"Time (s)","Gyroscope x (rad/s)","Gyroscope y (rad/s)","Gyroscope z (rad/s)","Absolute (rad/s)"
1.032500004E-4,-2.326184651E-3,3.502881154E-4,2.298751287E-2,2.310756553E-2
1.006025000E-2,7.748000789E-4,-5.957204849E-5,2.018080838E-2,2.019576418E-2
2.001725000E-2,2.585095353E-4,-1.584253274E-3,2.207826823E-2,2.213654475E-2
2.997325000E-2,-7.833191194E-4,3.278255463E-7,2.097838372E-2,2.099300294E-2
3.993025000E-2,1.258688280E-4,7.624542341E-4,2.054654621E-2,2.056107343E-2
4.988725000E-2,2.940830076E-3,2.374465577E-3,2.043416165E-2,2.078079716E-2
5.984425000E-2,-4.088256974E-4,1.310019754E-3,2.351992391E-2,2.355992595E-2
6.980125000E-2,1.080938382E-4,8.857781067E-4,2.011746727E-2,2.013724848E-2
7.975825000E-2,-5.999931600E-4,1.661798917E-3,2.165887877E-2,2.173082136E-2
8.971525000E-2,-2.300799824E-4,-1.050097868E-3,2.252014354E-2,2.254578691E-2
9.967225000E-2,-1.685011666E-4,1.483311877E-3,1.885119267E-2,1.891021078E-2
1.096292500E-1,2.458973555E-3,-4.986952990E-5,2.119237743E-2,2.133461739E-2
1.195862500E-1,-1.797489589E-3,1.856125891E-5,1.909241267E-2,1.917684893E-2
1.295432500E-1,-9.493064135E-5,7.067229599E-4,1.822262444E-2,1.823657069E-2
1.395002500E-1,-1.924411394E-3,1.448418014E-3,1.807168685E-2,1.823148758E-2
1.494572500E-1,-1.300699078E-3,-1.505826600E-3,1.929833926E-2,1.940065025E-2
1.594132500E-1,-1.157477731E-3,1.642625779E-3,1.828858443E-2,1.839864926E-2
1.693702500E-1,-1.341502182E-3,4.303548485E-4,1.943826862E-2,1.948925653E-2
1.793272500E-1,9.903917089E-5,-1.935024746E-3,1.874174550E-2,1.884163353E-2
1.892842500E-1,-2.295941580E-3,6.567630917E-4,1.926558837E-2,1.941302606E-2
1.992412500E-1,5.247140070E-4,1.156311482E-3,1.905104518E-2,1.909331567E-2
2.091982500E-1,-4.694440868E-4,8.564386517E-4,1.990352198E-2,1.992746979E-2
2.191552500E-1,-9.779944085E-4,-1.686131582E-4,1.846465096E-2,1.849130170E-2
2.291122500E-1,-7.489623968E-4,-1.373693347E-3,2.038212866E-2,2.044209252E-2
2.390692500E-1,7.728673518E-4,-2.625025809E-4,1.637628675E-2,1.639661548E-2
2.490262500E-1,-3.342088312E-4,-2.462575212E-4,1.916781068E-2,1.917230567E-2
2.589832500E-1,1.348922960E-4,5.253115669E-4,1.918235421E-2,1.919001984E-2
2.689402500E-1,5.040063988E-4,3.420859575E-4,1.721907035E-2,1.722984123E-2
2.788972500E-1,7.227705792E-4,-1.681381837E-4,1.656956226E-2,1.658617078E-2
2.888542500E-1,6.836222019E-4,-1.432606950E-3,1.618447155E-2,1.626212844E-2
2.988102500E-1,2.032964723E-3,8.693104610E-4,1.676496677E-2,1.691013770E-2
3.087672500E-1,-1.747957431E-4,-6.007542834E-4,1.496573351E-2,1.497880632E-2
3.187242500E-1,-7.750310469E-4,-3.547556698E-4,1.538142562E-2,1.540502447E-2
3.286812500E-1,-5.979307462E-4,-2.223229036E-3,1.180187054E-2,1.202432604E-2
3.386383750E-1,-1.546621788E-4,-2.598109655E-3,1.342836767E-2,1.367827301E-2
3.485953750E-1,-8.883629926E-4,4.283068702E-4,1.333941706E-2,1.337582457E-2
3.585523750E-1,-2.287025331E-3,7.622679695E-4,1.219988056E-2,1.243577995E-2
3.685093750E-1,1.058437629E-3,7.351040840E-4,1.250800863E-2,1.257421759E-2
3.784663750E-1,7.380566094E-4,1.403356902E-3,9.287908673E-3,9.422281341E-3
3.884233750E-1,1.754585188E-3,-2.547708340E-3,9.510016069E-3,1.000048962E-2
3.983803750E-1,5.552789662E-5,1.061065122E-4,1.005154476E-2,1.005225815E-2
4.083373750E-1,-1.514938194E-3,-7.567582652E-4,6.210733205E-3,6.437462835E-3
4.182943750E-1,-1.958064036E-3,-2.111609094E-3,7.327677682E-3,7.873231100E-3
4.282513750E-1,3.399949986E-3,-7.571252063E-4,8.019035682E-3,8.742873198E-3
4.382073750E-1,4.574633203E-5,-9.796675295E-5,8.225867525E-3,8.226578070E-3
4.481643750E-1,2.096380340E-3,1.076486893E-3,7.894037291E-3,8.238292257E-3
4.581213750E-1,2.893360797E-4,-2.216038294E-3,7.464500144E-3,7.791874196E-3
4.680783750E-1,-2.981558209E-3,1.121701673E-3,6.464216858E-3,7.206525070E-3
4.780353750E-1,-2.039324027E-4,8.793734014E-4,7.682302967E-3,7.735157715E-3
4.879923750E-1,-1.512609655E-3,-6.740484387E-4,6.348324940E-3,6.560759011E-3
4.979493750E-1,9.351547342E-4,-9.718965739E-4,6.893221289E-3,7.023930315E-3
5.079063750E-1,-2.279813401E-3,1.525349915E-3,6.969654933E-3,7.490015446E-3
5.178633750E-1,-1.725599635E-3,2.563055605E-4,5.794409662E-3,6.051327952E-3
5.278203750E-1,1.071252162E-3,8.001234382E-4,7.886854932E-3,7.999391191E-3
5.377773750E-1,-2.915079240E-4,1.094610430E-3,6.635967642E-3,6.731954799E-3
5.477343750E-1,-1.044915989E-3,1.561129466E-4,6.557937711E-3,6.642497099E-3
5.576913750E-1,-9.079931770E-4,1.462073997E-3,1.133088395E-2,1.146084827E-2
5.676483750E-1,1.043837517E-3,-1.183777116E-3,6.728675216E-3,6.911294755E-3
5.776043750E-1,4.935427569E-5,-8.660126477E-4,7.144395262E-3,7.196860247E-3
5.875613750E-1,-1.036416506E-3,1.169973984E-3,6.281264126E-3,6.472810620E-3
5.975183750E-1,-5.249415990E-4,-2.221565694E-3,5.447601900E-3,5.906545883E-3
6.074753750E-1,-2.565189265E-3,-8.202102035E-4,5.422301590E-3,6.054279088E-3
6.174323750E-1,-4.617795348E-4,1.296615228E-3,8.043276146E-3,8.160192556E-3
6.273893750E-1,-2.263560891E-4,1.301142387E-3,6.098903716E-3,6.240259219E-3
6.373463750E-1,1.635144348E-3,-2.309904434E-3,6.895836443E-3,7.453986569E-3
6.473033750E-1,-2.048336901E-4,-1.003357582E-3,5.613524467E-3,5.706166858E-3
6.572603750E-1,6.569914985E-4,-3.761891276E-5,7.060173899E-3,7.090776297E-3
6.672173750E-1,5.078545073E-4,-9.702574462E-4,6.672950462E-3,6.762217356E-3
6.771743750E-1,1.891940483E-3,-2.522616647E-3,7.295597345E-3,7.947878595E-3
6.871313750E-1,-5.413899198E-4,5.851872265E-5,3.437209874E-3,3.480077471E-3
6.970883750E-1,1.531376853E-3,-8.462779224E-4,4.276797175E-3,4.620854409E-3
7.070453750E-1,-2.389595145E-3,-2.174129710E-3,7.084568962E-3,7.786406253E-3
7.170013750E-1,1.219623955E-4,2.642050385E-4,6.290866062E-3,6.297592789E-3
7.269583750E-1,-2.792601241E-3,-4.046037793E-5,1.313732192E-2,1.343091531E-2
7.369153750E-1,1.843434875E-3,-2.248320729E-3,2.418861911E-2,2.436272753E-2
7.468723750E-1,3.967597149E-5,-2.246988937E-3,2.860840037E-2,2.869653473E-2
7.568293750E-1,-1.379284076E-3,-9.487755597E-5,3.158733249E-2,3.161757423E-2
7.667863750E-1,5.850635935E-4,-2.581300214E-4,2.446177974E-2,2.447013688E-2
7.767433750E-1,4.425322404E-4,-6.023952737E-4,1.726496965E-2,1.728114266E-2
7.867003750E-1,1.699810615E-3,1.443549991E-4,1.420819387E-2,1.431023995E-2
7.966573750E-1,5.088349571E-4,-2.775201574E-4,1.168268733E-2,1.169705577E-2
8.066143750E-1,-4.768008366E-4,4.527186975E-4,1.212210953E-2,1.213992721E-2
8.165713750E-1,3.493879922E-5,4.368778318E-4,1.504491456E-2,1.505129686E-2
8.265283750E-1,-3.671983723E-4,-1.819352619E-3,1.695759594E-2,1.705886687E-2
8.364853750E-1,2.630677540E-3,-6.994297728E-4,1.920713298E-2,1.939906244E-2
8.464423750E-1,2.081267536E-3,-6.938371807E-4,2.328363247E-2,2.338676176E-2
8.563983750E-1,-2.688884037E-3,1.467566937E-3,2.218837477E-2,2.239883535E-2
8.663553750E-1,-8.542323485E-4,7.340218872E-5,2.085865848E-2,2.087627204E-2
8.763123750E-1,5.020503886E-5,1.011315733E-3,1.699631289E-2,1.702644801E-2
8.862693750E-1,-2.890191041E-3,7.537882775E-4,1.436164789E-2,1.466895808E-2
8.962263750E-1,-1.279181801E-3,9.769545868E-4,1.478283666E-2,1.487020531E-2
9.061833750E-1,4.817004083E-4,6.881635636E-5,1.716050506E-2,1.716740239E-2
9.161403750E-1,-8.914081845E-4,-1.466525719E-3,1.711559482E-2,1.720142123E-2
9.260973750E-1,8.652127581E-4,-1.117651351E-3,1.977742277E-2,1.982786396E-2
9.360543750E-1,-1.905214041E-3,-5.693361163E-4,2.297531068E-2,2.306119869E-2
9.460113750E-1,2.848794684E-3,-1.051101834E-3,1.944529265E-2,1.968095151E-2
9.559683750E-1,-9.282834362E-4,-7.091276348E-4,1.651801728E-2,1.655927133E-2
9.659253750E-1,-1.514178934E-3,1.180497929E-4,1.734466292E-2,1.741103114E-2
9.758823750E-1,-7.872972637E-4,-5.905488506E-4,1.644151285E-2,1.647094198E-2
9.858393750E-1,1.091562910E-3,1.310681924E-3,1.595149189E-2,1.604242782E-2
9.957953750E-1,1.976890024E-3,6.352588534E-4,1.979306340E-2,1.990168352E-2
1.005752375E0,-4.521789961E-4,-5.687559023E-4,2.158057690E-2,2.159280548E-2
1.015709375E0,-1.164521091E-3,-3.575002775E-4,1.999258436E-2,2.002966164E-2
1.025666375E0,-7.967385463E-4,4.419805482E-4,2.020377479E-2,2.022430852E-2
1.035623375E0,1.979627181E-3,-5.219336599E-4,1.638529077E-2,1.651269488E-2
1.045580375E0,-2.226036740E-3,-1.697986387E-3,1.492161676E-2,1.518199737E-2
1.055537375E0,-9.286790155E-4,6.273416802E-4,1.853094809E-2,1.856480647E-2
1.065494375E0,-5.662227049E-4,4.702154547E-4,1.921644621E-2,1.923053602E-2
1.075451375E0,-8.421842940E-4,1.446923241E-3,1.815681159E-2,1.823383307E-2
1.085408375E0,-4.475039896E-4,-1.255919226E-3,2.128336206E-2,2.132508133E-2
1.095365375E0,-1.732327975E-3,1.752602868E-3,1.968842372E-2,1.984204137E-2
1.105322375E0,2.314611571E-3,7.374063134E-4,2.063651010E-2,2.077899767E-2
1.115279375E0,1.742138993E-4,-1.673493534E-5,1.758292690E-2,1.758379791E-2
1.125235375E0,1.289402135E-4,1.883283257E-4,1.788599789E-2,1.788745409E-2
1.135192375E0,3.067701589E-3,2.051959746E-3,1.659525000E-2,1.700069570E-2
1.145149375E0,-5.731058773E-4,-4.024095833E-4,1.789513789E-2,1.790883424E-2
1.155106375E0,-5.918603856E-4,5.111237988E-4,1.817594282E-2,1.819275800E-2
1.165063375E0,9.288045112E-4,1.455213875E-3,1.786328666E-2,1.794651319E-2
1.175020375E0,-2.354471246E-3,-1.223435625E-3,1.751001738E-2,1.770991356E-2
1.184977375E0,-6.953221746E-4,1.704444177E-3,1.971324719E-2,1.979900800E-2
1.194934375E0,-5.336294416E-4,-1.331220381E-3,2.001041546E-2,2.006174557E-2
1.204891375E0,7.513457676E-4,1.374284737E-3,1.819200814E-2,1.825930829E-2
1.214848375E0,-4.383248743E-4,7.570115849E-4,1.876833104E-2,1.878870525E-2
1.224805375E0,-2.029829891E-3,-1.161796041E-3,1.876566745E-2,1.891085018E-2
1.234762375E0,2.453954658E-4,-1.171582378E-3,1.668331400E-2,1.672620071E-2
1.244719375E0,-3.333094064E-4,-7.105888799E-4,1.611579210E-2,1.613489345E-2
1.254676375E0,-6.020744331E-4,2.863782458E-3,1.785810478E-2,1.809628829E-2
1.264632375E0,-1.647833269E-4,1.499178819E-3,1.694863476E-2,1.701560786E-2
1.274589375E0,-2.666691784E-3,-1.381378621E-3,1.938717440E-2,1.961840929E-2
1.284546375E0,2.546978649E-3,-1.355013810E-3,1.914509386E-2,1.936124432E-2
1.294503375E0,-2.697033575E-3,-1.239881851E-3,2.124594152E-2,2.145230356E-2
1.304460375E0,-3.910025116E-4,-1.829505898E-3,1.663334668E-2,1.673822561E-2
1.314417375E0,-1.527796732E-3,-5.917502567E-4,2.071264386E-2,2.077734215E-2
1.324374375E0,-2.421287354E-3,-3.177113831E-4,1.972834021E-2,1.987890793E-2
1.334331250E0,1.874370151E-3,-2.573833801E-3,1.890700683E-2,1.917323111E-2
1.344288250E0,1.154251397E-3,-3.793891519E-4,1.600150019E-2,1.604756183E-2
1.354245250E0,7.705620956E-4,-2.306627110E-3,1.868331060E-2,1.884092326E-2
1.364202250E0,8.898088709E-6,-3.571938723E-4,2.019225806E-2,2.019541909E-2
1.374159250E0,5.975724198E-4,-3.618076444E-4,1.991957799E-2,1.993182342E-2
1.384116250E0,1.292391098E-3,-2.130678855E-3,1.913767308E-2,1.929923828E-2
1.394073250E0,-5.512037314E-4,-7.454119623E-5,1.870430447E-2,1.871257298E-2
1.404029250E0,5.473502679E-4,-1.257783733E-3,1.734662242E-2,1.740077359E-2
1.413986250E0,4.923461238E-4,1.196308061E-3,1.699366048E-2,1.704282999E-2
1.423943250E0,5.301629426E-4,1.712961122E-3,1.529962197E-2,1.540434163E-2
1.433900250E0,2.377644414E-4,-1.345156692E-3,1.456882246E-2,1.463272245E-2
1.443857250E0,6.702617975E-4,-1.747027971E-3,1.432753913E-2,1.444921227E-2
1.453814250E0,-3.496083431E-3,-7.291538641E-4,1.730306633E-2,1.766777771E-2
1.463771250E0,2.100016689E-3,9.611546993E-4,1.811266877E-2,1.825931703E-2
1.473728250E0,-1.849203836E-3,3.181976266E-3,1.961097494E-2,1.995331716E-2
1.483685250E0,-6.369331386E-4,4.746066406E-4,1.891828701E-2,1.893495494E-2
1.493642250E0,-1.034187153E-4,1.339833252E-3,1.680872776E-2,1.686235978E-2
1.503599250E0,-1.941798721E-3,-1.040499657E-3,1.371839829E-2,1.389415969E-2
1.513556250E0,2.501416486E-3,-1.122028567E-3,1.780858822E-2,1.801837526E-2
1.523513250E0,1.351197250E-3,-6.951242685E-4,1.744160615E-2,1.750767137E-2
1.533470250E0,4.362756852E-3,-7.640346885E-4,1.928157732E-2,1.978374637E-2
1.543426250E0,1.560312463E-3,1.032001339E-3,1.960195601E-2,1.969102032E-2
1.553383250E0,2.427090658E-3,-2.050288022E-3,1.884086430E-2,1.910687357E-2
1.563340250E0,5.626116181E-4,-6.052562967E-4,1.577236876E-2,1.579400150E-2
1.573297250E0,4.474481102E-4,1.477726735E-3,1.335341111E-2,1.344237607E-2
1.583254250E0,-3.218925791E-3,-1.465598121E-3,1.539685205E-2,1.579786422E-2
1.593211250E0,-1.916868147E-3,1.144798473E-3,1.541729458E-2,1.557812309E-2
1.603168250E0,4.641409032E-5,-1.165227033E-3,1.813318767E-2,1.817064675E-2
1.613125250E0,3.642009338E-3,5.824426189E-4,1.957624778E-2,1.992066637E-2
1.623082250E0,-3.147187177E-3,2.589400858E-3,1.988011599E-2,2.029356537E-2
1.633039250E0,-1.612284686E-4,-2.585160546E-3,1.763090491E-2,1.782015313E-2
1.642996250E0,-7.207586896E-4,1.732888632E-3,1.423484460E-2,1.435803596E-2
1.652953250E0,-3.186184680E-3,-9.646080434E-5,1.412475482E-2,1.447997846E-2
1.662910250E0,1.934274915E-3,-5.867332220E-7,1.364618540E-2,1.378259031E-2
1.672866250E0,-3.006312996E-3,-1.078493893E-3,1.284366846E-2,1.323483609E-2
1.682823250E0,8.574012900E-4,-5.626389757E-4,1.541281864E-2,1.544689865E-2
1.692780250E0,4.385937937E-3,6.823679432E-4,1.664216816E-2,1.722393215E-2
1.702737250E0,-1.563563943E-3,-1.285653561E-4,1.866723597E-2,1.873304460E-2
1.712694250E0,2.590724034E-3,-4.629910924E-3,1.555775478E-2,1.643750772E-2
1.722651250E0,-1.952894963E-3,5.377715919E-3,1.576654613E-2,1.677252528E-2
1.732608250E0,4.347953014E-3,-4.017500207E-3,1.466384158E-2,1.581370460E-2
1.742565250E0,-2.004485112E-3,1.763156615E-3,1.746335626E-2,1.766622465E-2
1.752522250E0,1.656179782E-3,1.492807642E-4,1.370572858E-2,1.380623816E-2
1.762479250E0,-2.770088613E-4,-3.500618041E-4,1.735719107E-2,1.736293060E-2
1.772436250E0,1.891897409E-3,5.519157276E-4,1.585999317E-2,1.598196703E-2
1.782393250E0,-1.097767148E-3,-4.699388519E-4,1.589594595E-2,1.594073502E-2
1.792350250E0,7.535390323E-4,1.700638793E-3,1.485918649E-2,1.497515998E-2
1.802307250E0,-5.461974069E-6,-2.339377068E-3,1.676387899E-2,1.692632132E-2
1.812263250E0,1.756755169E-3,-1.226852648E-3,1.556425169E-2,1.571105620E-2
1.822220250E0,2.099770354E-3,1.416867599E-3,1.457781717E-2,1.479625976E-2
1.832177250E0,-2.074667253E-3,1.246407628E-3,1.550158300E-2,1.568938659E-2
1.842134250E0,2.065964509E-4,-1.276670955E-3,1.653276198E-2,1.658326836E-2
1.852091250E0,-1.261360012E-5,3.346433863E-3,1.678026095E-2,1.711069655E-2
1.862048250E0,-2.147476189E-4,-2.436886542E-3,1.486891136E-2,1.506881075E-2
1.872005250E0,1.208954374E-3,8.747782558E-4,1.484515518E-2,1.491996783E-2
1.881962250E0,1.409756718E-3,-1.548698172E-3,1.110234857E-2,1.129814249E-2
1.891919250E0,2.291428158E-3,1.829792745E-3,1.426607370E-2,1.456432777E-2
1.901876250E0,-1.645388547E-4,-2.230196260E-3,1.713296771E-2,1.727829364E-2
1.911833250E0,-2.763969824E-4,1.021886244E-3,1.647558063E-2,1.650955493E-2
1.921790250E0,-1.227327157E-4,-1.943010837E-3,1.731980592E-2,1.742888498E-2
1.931747250E0,1.456886996E-3,-1.142449677E-3,1.555857062E-2,1.566833848E-2
1.941703250E0,-2.845715964E-3,-1.927815378E-3,1.456041634E-2,1.496062484E-2
1.951660250E0,-8.651309181E-4,-1.970551908E-3,1.185642555E-2,1.205015988E-2
1.961617250E0,-1.236642012E-3,3.855470568E-4,1.397470385E-2,1.403460999E-2
1.971574250E0,-9.394532535E-4,2.865195274E-4,1.325547695E-2,1.329181459E-2
1.981531250E0,2.920266241E-3,-3.256816417E-3,1.560385153E-2,1.620540004E-2
1.991488250E0,-1.926842844E-3,-2.959802747E-3,1.631968468E-2,1.669746280E-2
2.001445250E0,-1.582762459E-3,9.848717600E-4,1.643819362E-2,1.654355823E-2
2.011402250E0,-4.258719273E-4,-3.185635433E-4,1.988317445E-2,1.989028597E-2
2.021359250E0,-1.994207501E-3,-4.265635274E-3,1.782082394E-2,1.843242452E-2
2.031316250E0,2.108089393E-4,2.729613334E-4,1.555356383E-2,1.555738719E-2
2.041273250E0,7.706054021E-4,-3.954917192E-4,1.245071739E-2,1.248080967E-2
2.051230250E0,2.299140207E-3,2.727032639E-3,1.253651828E-2,1.303407239E-2
2.061187250E0,-1.165898750E-3,-4.107039422E-4,1.206966490E-2,1.213279887E-2
2.071144250E0,1.667317469E-3,1.565571874E-4,1.672182418E-2,1.680547118E-2
2.081100250E0,-1.279470278E-3,7.017059252E-4,1.711597107E-2,1.717806454E-2
2.091057250E0,-2.022246365E-3,1.113656908E-3,1.643469557E-2,1.659605166E-2
2.101014250E0,-3.952300176E-5,2.784790471E-3,1.604720578E-2,1.628709407E-2
2.110971250E0,-1.731714699E-3,7.286407053E-4,1.378568448E-2,1.391311790E-2
2.120928250E0,7.146650460E-4,1.556084491E-3,1.529702730E-2,1.539256929E-2
2.130885250E0,-9.880943689E-4,2.708958462E-3,1.379980892E-2,1.409785490E-2
2.140842250E0,5.469515454E-4,3.816215321E-4,1.243680343E-2,1.245467264E-2
2.150799250E0,2.749343403E-4,-8.341968060E-4,1.398668066E-2,1.401423237E-2
2.160756250E0,-3.381252754E-4,-3.670779988E-4,1.580455527E-2,1.581243315E-2
2.170713250E0,1.848089974E-3,4.735961556E-5,1.604671218E-2,1.615285272E-2
2.180670250E0,1.359666232E-3,1.743920147E-4,1.626322977E-2,1.632089910E-2
2.190627250E0,-3.690302838E-4,9.252224118E-5,1.508086175E-2,1.508565990E-2
2.200584250E0,-5.306841340E-4,5.218237638E-4,1.301371679E-2,1.303498179E-2
2.210540250E0,-3.996141255E-3,-7.417891175E-5,1.406644285E-2,1.462325073E-2
2.220497250E0,2.681120532E-4,2.786517143E-6,1.411970705E-2,1.412225262E-2
2.230454250E0,-6.141157355E-4,-5.761394277E-4,1.480935514E-2,1.483327592E-2
2.240411250E0,-8.135864045E-4,2.866424620E-5,1.626077667E-2,1.628114254E-2
2.250368250E0,-1.656056847E-4,-1.870218664E-3,1.547521725E-2,1.558869758E-2
2.260325250E0,1.112445258E-3,1.917062327E-3,1.542595029E-2,1.558437053E-2
2.270282250E0,9.096167050E-4,9.608753026E-4,1.564269513E-2,1.569855391E-2
2.280239250E0,5.759225460E-4,-3.699064255E-4,1.547678187E-2,1.549191062E-2
2.290196250E0,-1.738753403E-3,5.234032869E-5,1.595953666E-2,1.605405909E-2
2.300153250E0,9.648877895E-4,1.671808772E-3,1.531877927E-2,1.543991423E-2
2.310110250E0,-2.267992822E-3,5.883639678E-4,1.548501849E-2,1.566128224E-2
2.320067250E0,1.861102646E-4,1.446818933E-4,1.159919798E-2,1.160159316E-2
2.330024250E0,1.175251557E-3,4.493538290E-5,1.485183649E-2,1.489833153E-2
2.339980417E0,1.837566961E-4,-7.763830945E-4,1.461428218E-2,1.463604389E-2
2.349937417E0,8.317690808E-4,-3.475807607E-4,1.272713207E-2,1.275901810E-2
2.359894417E0,-4.441081546E-5,-8.206348866E-5,1.440838538E-2,1.440868752E-2
2.369851417E0,-3.356507514E-4,-1.311982051E-3,1.505450718E-2,1.511529506E-2
2.379808417E0,3.103166819E-6,1.082998700E-3,1.521509700E-2,1.525359211E-2
2.389765417E0,-1.785000786E-4,-1.514932141E-3,1.533619314E-2,1.541186886E-2
2.399722417E0,-4.384245258E-4,1.673936844E-3,1.451913640E-2,1.462188778E-2
2.409679417E0,6.911924575E-4,7.823025808E-4,1.392115280E-2,1.396023781E-2
2.419636417E0,2.019843552E-3,1.429983415E-3,1.468521357E-2,1.489228384E-2
2.429593417E0,4.571203608E-4,-4.101935774E-4,1.186285168E-2,1.187874016E-2
2.439550417E0,-9.405065794E-4,-9.758491069E-4,1.459552348E-2,1.465831299E-2
2.449507417E0,2.538783243E-3,-5.942257121E-4,1.134399325E-2,1.163978983E-2
2.459464417E0,7.448717952E-6,-7.228562608E-4,1.085024327E-2,1.087429794E-2
2.469421417E0,-8.367837872E-4,6.913319230E-4,1.652527228E-2,1.656088074E-2
2.479377417E0,8.420728846E-4,1.145933755E-3,1.242054254E-2,1.250168500E-2
2.489334417E0,-4.740285221E-4,-1.647815108E-3,1.413672417E-2,1.424032893E-2
2.499291417E0,-2.042097971E-3,2.656662837E-4,1.531171054E-2,1.544957029E-2
2.509248417E0,1.452349359E-3,4.495214671E-4,1.340178028E-2,1.348773898E-2
2.519205417E0,5.008019507E-4,-2.018696629E-3,1.618212089E-2,1.631523751E-2
2.529162417E0,-1.257211901E-3,1.781703904E-4,1.200426742E-2,1.207123701E-2
2.539119417E0,1.984121511E-3,2.210959792E-5,1.286313683E-2,1.301528010E-2
2.549076417E0,2.346786670E-3,7.968153805E-4,1.329199970E-2,1.352107904E-2
2.559033417E0,1.765418681E-3,4.079937935E-4,1.030553132E-2,1.046361018E-2
2.568990417E0,8.446989814E-4,-4.722345620E-4,1.337789558E-2,1.341285249E-2
2.578947417E0,-6.019300781E-4,-2.570515499E-4,1.366178878E-2,1.367745839E-2
2.588904417E0,9.731947212E-4,-3.160657361E-4,1.529907808E-2,1.533325782E-2
2.598861417E0,-7.112547755E-4,-9.424416348E-4,1.692866534E-2,1.696979050E-2
2.608817417E0,-1.604772173E-3,1.157644205E-3,1.917753182E-2,1.927934544E-2
2.618774417E0,7.811539108E-4,-1.683440059E-4,1.336012222E-2,1.338399816E-2
2.628731417E0,2.254186431E-3,-1.124929637E-3,1.260050572E-2,1.284988590E-2
2.638688417E0,-2.987198532E-4,-1.820546575E-3,1.158824004E-2,1.173417789E-2
2.648645417E0,-3.763397690E-4,3.345133737E-3,1.097586751E-2,1.148047120E-2
2.658602417E0,1.752008684E-4,-1.838216558E-4,9.538028389E-3,9.541408245E-3
2.668559417E0,3.060841700E-4,5.800202489E-4,1.401409134E-2,1.402942861E-2
2.678516417E0,-1.701939153E-3,-3.361068666E-4,1.522609591E-2,1.532460641E-2
2.688473417E0,-1.800225815E-3,5.812244490E-4,1.363314688E-2,1.376376870E-2
2.698430417E0,-1.860840712E-4,1.393222250E-3,1.622733101E-2,1.628809281E-2
2.708387417E0,-1.218171092E-3,1.605992205E-3,1.328546740E-2,1.343751450E-2
2.718344417E0,-3.324036952E-4,2.698686905E-3,1.148224063E-2,1.179979886E-2
2.728301417E0,6.864083698E-4,-2.277274616E-3,1.126226410E-2,1.151067890E-2
2.738257417E0,-4.129444715E-4,-2.530807629E-3,1.074294746E-2,1.104474674E-2
2.748214417E0,-1.465035137E-3,1.092737541E-3,9.108187631E-3,9.289751622E-3
2.758171417E0,3.967806697E-4,1.825905405E-3,1.275911368E-2,1.289520638E-2
2.768128417E0,3.383078147E-4,-6.552785635E-5,1.477194577E-2,1.477596454E-2
2.778085417E0,-1.963728806E-3,-6.429012865E-4,1.472134888E-2,1.486565390E-2
2.788042417E0,1.489216462E-3,-2.426551655E-4,1.231616735E-2,1.240824829E-2
2.797999417E0,8.732272545E-4,-2.465329133E-3,1.390314475E-2,1.414700701E-2
2.807956417E0,-1.854742877E-3,5.934666842E-5,1.160726883E-2,1.175467068E-2
2.817913417E0,7.823191117E-4,-1.329758205E-3,1.166825555E-2,1.176981171E-2
2.827870417E0,-2.206206089E-3,-3.989459947E-4,9.210649878E-3,9.479587248E-3
2.837827417E0,-1.572107431E-3,-1.243967563E-3,1.221629232E-2,1.237969205E-2
2.847784417E0,-2.174148802E-3,1.368202269E-3,1.110615209E-2,1.139936466E-2
2.857741417E0,-7.213943172E-4,-3.548637033E-4,1.444602013E-2,1.446837363E-2
2.867697417E0,1.780384569E-3,5.744844675E-4,1.487453468E-2,1.499171717E-2
2.877654417E0,-1.289174892E-3,-1.406908035E-3,1.452858932E-2,1.465337060E-2
2.887611417E0,-1.855733106E-3,-1.283548772E-5,1.117572747E-2,1.132875962E-2
2.897568417E0,-2.622989705E-3,2.344860695E-3,1.378695853E-2,1.422879729E-2
2.907525417E0,9.408572223E-4,2.884734422E-4,6.854463369E-3,6.924745289E-3
2.917482417E0,8.987793699E-4,-1.261220314E-3,1.087637059E-2,1.098607839E-2
2.927439417E0,-1.943069743E-3,-2.842372283E-3,1.006533764E-2,1.063793317E-2
2.937396417E0,-8.386569098E-4,4.447670653E-4,7.880480960E-3,7.937451941E-3
2.947353417E0,4.300263245E-4,-2.377319150E-3,1.086555421E-2,1.113089562E-2
2.957310417E0,2.320071682E-3,-9.725010023E-4,9.063925594E-3,9.406552928E-3
2.967267417E0,4.079296719E-3,-4.100045189E-4,1.027440280E-2,1.106219319E-2
2.977224417E0,-1.354219858E-4,-9.476961568E-4,1.711419970E-2,1.714095384E-2
2.987181417E0,-9.907477070E-4,8.446406573E-4,1.940806024E-2,1.945167862E-2
2.997138417E0,-1.479704166E-3,-8.158404380E-4,1.887915842E-2,1.895462326E-2
3.007094417E0,1.964593772E-3,1.622568816E-4,1.981353387E-2,1.991135557E-2
3.017051417E0,1.502269180E-3,6.315056235E-4,1.699963957E-2,1.707756884E-2
3.027008417E0,-6.677045021E-4,-1.704062335E-3,1.844021492E-2,1.853081714E-2
3.036965417E0,4.215284716E-4,1.465098932E-3,1.459621079E-2,1.467561142E-2
3.046922417E0,-1.792738913E-3,2.301146276E-3,1.585496590E-2,1.612107721E-2
3.056879417E0,2.230076352E-4,-1.380673610E-3,1.464402303E-2,1.471065609E-2
3.066836417E0,1.038018730E-3,4.035979509E-4,1.543081552E-2,1.547095478E-2
3.076793417E0,2.469734056E-3,8.544707671E-4,1.740155369E-2,1.759669791E-2
3.086750417E0,-5.300114863E-4,4.336429760E-3,1.321560517E-2,1.391897106E-2
3.096707417E0,-6.573104765E-4,-6.348928437E-4,1.312292740E-2,1.315470902E-2
3.106664417E0,1.159760170E-3,9.141219780E-4,1.079550944E-2,1.089603996E-2
3.116621417E0,-2.603552770E-3,-1.010278240E-3,1.365068741E-2,1.393342800E-2
3.126578417E0,-2.118137898E-3,1.730406657E-4,1.243687421E-2,1.261714276E-2
3.136534417E0,-1.722391928E-3,3.485428169E-4,1.465076208E-2,1.475577669E-2
3.146491417E0,2.262222115E-4,-1.464135014E-3,8.482895792E-3,8.611294260E-3
3.156448417E0,-2.288600896E-3,5.489485338E-4,1.170505211E-2,1.193931671E-2
3.166405417E0,-3.401776776E-4,1.206901856E-3,1.198790781E-2,1.205330937E-2
3.176362417E0,-6.453760434E-4,-9.915372357E-4,1.127471589E-2,1.133661654E-2
3.186319417E0,-8.532479405E-4,6.732745096E-4,1.079566777E-2,1.085024300E-2
3.196276417E0,-1.946480479E-4,3.366507590E-4,9.616423398E-3,9.624282860E-3
3.206233417E0,1.436746679E-4,-9.466577321E-4,1.350269467E-2,1.353660100E-2
3.216190417E0,9.847008623E-4,3.590037115E-3,1.132742316E-2,1.192344403E-2
3.226147417E0,-2.897222992E-3,-8.818386123E-4,1.246833615E-2,1.283085916E-2
3.236104417E0,-5.429866724E-5,4.263054579E-4,1.089067943E-2,1.089915516E-2
3.246061417E0,9.983079508E-4,-1.136185601E-3,1.634874940E-2,1.641856094E-2
3.256018417E0,-2.637640573E-4,1.440422609E-3,1.443020627E-2,1.450431804E-2
3.265974417E0,-1.432201592E-3,1.531951129E-4,1.585607976E-2,1.592136726E-2
3.275931417E0,-6.122142076E-4,-4.100631922E-4,1.580414549E-2,1.582131387E-2
3.285888417E0,-9.829245973E-4,-1.421809196E-3,1.532978937E-2,1.542692854E-2
3.295845417E0,-1.533499453E-4,3.348113969E-4,1.735618711E-2,1.736009348E-2
3.305802417E0,7.211734774E-4,7.455609739E-4,2.006310970E-2,2.008990600E-2
3.315759417E0,-1.680465182E-3,-8.097253740E-4,2.107191458E-2,2.115431877E-2
3.325716417E0,-1.712205587E-3,-5.220621824E-5,2.247178182E-2,2.253697743E-2
3.335673000E0,-1.032833243E-3,6.511341780E-4,2.272211760E-2,2.275489724E-2
3.345630000E0,-6.549139507E-4,1.431707293E-3,2.690952644E-2,2.695554324E-2
3.355587000E0,6.300612586E-4,-1.781130210E-3,2.718916163E-2,2.725472275E-2
3.365544000E0,-1.433614176E-3,3.027059138E-4,2.670580521E-2,2.674597002E-2
3.375501000E0,-8.519797120E-4,1.024689525E-3,3.210775927E-2,3.213540202E-2
3.385458000E0,2.832171740E-3,-1.179386862E-3,3.161586449E-2,3.176436742E-2
3.395414000E0,-7.228821050E-4,1.065924764E-3,3.631341457E-2,3.633624681E-2
3.405371000E0,-2.164486796E-5,-7.092459127E-4,3.789695352E-2,3.790359593E-2
3.415328000E0,-2.041918924E-3,7.416438311E-4,4.120353609E-2,4.126076653E-2
3.425285000E0,-1.169095514E-3,2.229780890E-3,4.355987161E-2,4.363256951E-2
3.435242000E0,-2.229299862E-3,6.241612136E-4,4.722464830E-2,4.728135745E-2
3.445199000E0,-6.077769212E-4,3.232562914E-3,4.828459769E-2,4.839650019E-2
3.455156000E0,1.844728133E-3,5.888426676E-4,4.896743596E-2,4.900570928E-2
3.465113000E0,-2.514557680E-3,-2.220996656E-3,5.193234235E-2,5.204059962E-2
3.475070000E0,7.696527755E-4,2.399321645E-3,4.987824708E-2,4.994185261E-2
3.485027000E0,2.620324492E-3,-4.560984671E-4,1.772238500E-2,1.792085535E-2
3.494984000E0,-4.383523017E-3,1.175087877E-3,-1.823907718E-2,1.879521327E-2
3.504941000E0,-2.104890067E-3,1.733013429E-3,-2.664925903E-2,2.678837256E-2
3.514898000E0,2.442723839E-3,6.262045354E-4,-1.792714000E-2,1.810362893E-2
3.524854000E0,-2.374710748E-3,2.474543639E-3,-1.100986823E-2,1.153168747E-2
3.534811000E0,-3.981661983E-3,4.806350917E-4,-7.673993707E-3,8.658800243E-3
3.544768000E0,4.345576279E-3,9.486051276E-4,1.981800422E-3,4.869437113E-3
3.554725000E0,-2.956811106E-3,-4.985565320E-4,7.424768060E-3,8.007401032E-3
3.564682000E0,1.991208643E-3,7.942859083E-4,7.442139089E-3,7.744755399E-3
3.574639000E0,7.094291504E-4,-4.608621821E-4,1.557702944E-2,1.559998493E-2
3.584596000E0,9.802618297E-4,-5.184235051E-4,1.879437268E-2,1.882705820E-2
3.594553000E0,2.138040727E-4,1.276591793E-4,2.170973644E-2,2.171116453E-2
3.604510000E0,2.775850007E-3,-5.953880027E-4,2.502749488E-2,2.518799972E-2
3.614467000E0,-2.827905118E-4,2.152780071E-4,2.801822498E-2,2.802047905E-2
3.624424000E0,-7.110654842E-4,-3.213994205E-6,2.990483120E-2,2.991328390E-2
3.634381000E0,-1.094826963E-3,-1.209625974E-3,3.367187083E-2,3.371137384E-2
3.644338000E0,-3.293571295E-3,2.437811345E-4,3.665111959E-2,3.679961424E-2
3.654295000E0,7.919839118E-4,1.876831055E-3,3.135329485E-2,3.141940215E-2
3.664251000E0,-3.471157979E-4,2.342846245E-3,1.565068588E-2,1.582887824E-2
3.674208000E0,1.322153723E-3,-1.683054492E-3,-7.400039583E-3,7.703333611E-3
3.684165000E0,-4.738292191E-4,5.315318704E-4,-8.759741671E-3,8.788635526E-3
3.694122000E0,-5.755620077E-4,1.569366083E-3,-2.529809251E-3,3.032180136E-3
3.704079000E0,-1.895030029E-3,-2.739168704E-4,2.791697159E-3,3.385224113E-3
3.714036000E0,-3.307037987E-3,-5.961591378E-4,5.363512784E-3,6.329231814E-3
3.723993000E0,-8.093309589E-4,4.954868928E-4,1.185515523E-2,1.189307485E-2
3.733950000E0,5.667244550E-4,2.123927698E-4,1.782036945E-2,1.783064370E-2
3.743907000E0,-2.774232998E-4,1.713383012E-3,2.008625865E-2,2.016111186E-2
3.753864000E0,1.730600256E-3,4.350654781E-4,2.484586090E-2,2.490985875E-2
3.763821000E0,-5.282016937E-4,1.586588100E-3,2.271746099E-2,2.277892211E-2
3.773778000E0,-3.042297903E-4,-2.978648990E-4,2.590420097E-2,2.590769977E-2
3.783735000E0,2.656028373E-3,-5.621491000E-4,1.678741351E-2,1.700552118E-2
3.793691000E0,7.159155793E-4,-6.931768730E-4,3.252964467E-3,3.402176820E-3
3.803648000E0,6.532156840E-4,4.503363743E-4,-2.171346918E-3,2.311761453E-3
3.813605000E0,-2.735656686E-3,1.532911323E-3,1.373477280E-4,3.138869068E-3
3.823562000E0,6.441480946E-4,1.426255330E-3,6.766190752E-3,6.944815932E-3
3.833519000E0,-2.554676030E-4,-1.240899786E-3,9.316168725E-3,9.401919788E-3
3.843476000E0,-8.199855220E-4,1.586020924E-3,1.581485197E-2,1.591531908E-2
3.853433000E0,-7.259759586E-4,1.705330797E-3,1.619008929E-2,1.629583337E-2
3.863390000E0,1.870127046E-3,-1.397933811E-4,1.725322381E-2,1.735484512E-2
3.873347000E0,1.288226340E-3,-1.426366158E-3,1.950359717E-2,1.959807006E-2
3.883304000E0,1.043209108E-3,5.894443020E-4,1.436504535E-2,1.441493177E-2
3.893261000E0,-8.210036904E-4,-1.503800042E-3,6.300196052E-3,6.529006962E-3
3.903218000E0,-7.898050826E-4,-2.323072404E-3,5.119580775E-3,5.677196912E-3
3.913174000E0,-2.743499819E-3,-5.171829835E-4,3.517156467E-3,4.490507667E-3
3.923131000E0,-1.733053708E-3,7.838429883E-4,7.523883134E-3,7.760586473E-3
3.933088000E0,-3.109109122E-3,-4.225689918E-4,1.202062890E-2,1.242339097E-2
3.943045000E0,1.123878057E-3,1.556351781E-4,1.536958478E-2,1.541140683E-2
3.953002000E0,5.081552081E-4,-1.130938530E-3,1.661541127E-2,1.666160662E-2
3.962959000E0,1.817421988E-3,1.517541707E-3,1.785511337E-2,1.801141385E-2
3.972916000E0,-1.828179229E-3,4.264451563E-4,1.493708603E-2,1.505458847E-2
3.982873000E0,-3.008446656E-4,-3.512345254E-3,1.085331105E-2,1.141146079E-2
3.992830000E0,-2.505108714E-4,-1.444401219E-3,9.286573157E-3,9.401568570E-3
4.002787000E0,-5.526111927E-4,1.484334469E-3,9.235467762E-3,9.370298433E-3
4.012744000E0,-1.508153277E-3,1.451045275E-3,9.029604495E-3,9.268970602E-3
4.022701000E0,1.643156400E-3,-9.048022330E-4,1.252719201E-2,1.266685319E-2
4.032658000E0,-1.792446710E-4,1.866749488E-3,1.518609188E-2,1.530144663E-2
4.042614000E0,9.676249465E-4,-2.454913221E-3,1.510804147E-2,1.533674717E-2
4.052571000E0,9.769460885E-4,-8.255904540E-4,1.592829451E-2,1.597956787E-2
4.062528000E0,9.458370041E-4,4.679439589E-4,1.222486421E-2,1.227032535E-2
4.072485000E0,4.819142632E-4,2.122810110E-4,9.452249855E-3,9.466907198E-3
4.082442000E0,-2.493031090E-3,7.100477815E-4,6.875338033E-3,7.347764622E-3
4.092399000E0,4.585502902E-4,-2.506251447E-3,1.151776128E-2,1.179620233E-2
4.102356000E0,-1.945709577E-3,1.991940662E-4,1.289314590E-2,1.304065471E-2
4.112313000E0,2.111349721E-3,1.597619615E-3,1.456694491E-2,1.480560942E-2
4.122270000E0,-1.858589472E-3,-1.221079379E-3,1.556134038E-2,1.571943714E-2
4.132227000E0,-3.789372277E-4,3.060698509E-5,1.523589902E-2,1.524064136E-2
4.142184000E0,1.535041723E-3,2.828612924E-4,1.355984434E-2,1.364938615E-2
4.152141000E0,-4.314747639E-5,-1.211971045E-3,8.369076997E-3,8.456487764E-3
4.162098000E0,-7.418668829E-4,-1.513343304E-4,7.834443823E-3,7.870945214E-3
4.172055000E0,-8.406701963E-4,-2.014482394E-3,8.290374652E-3,8.572932845E-3
4.182011000E0,2.017022576E-3,-2.480078489E-3,8.560903370E-3,9.138284079E-3
4.191968000E0,1.651636790E-3,8.877553046E-4,1.217294857E-2,1.231652104E-2
4.201925000E0,1.964783296E-3,1.734774560E-4,1.286195777E-2,1.301231823E-2
4.211882000E0,-9.199527558E-4,-1.091257669E-3,1.193837263E-2,1.202338959E-2
4.221839000E0,-6.648171693E-4,7.706228644E-5,1.299271174E-2,1.300993769E-2
4.231796000E0,9.128395468E-4,7.892679423E-5,1.044619642E-2,1.048630179E-2
4.241753000E0,-1.124510774E-3,-1.294157468E-3,9.664479643E-3,9.815372372E-3
4.251710000E0,-2.142423764E-4,-4.291627556E-4,1.123308018E-2,1.124331672E-2
4.261667000E0,3.977521555E-4,-1.364424825E-3,8.160371333E-3,8.283207240E-3
4.271624000E0,-8.161165752E-4,1.277439296E-4,1.265578717E-2,1.268271712E-2
4.281581000E0,6.577506429E-4,8.254311979E-6,1.452451199E-2,1.453940001E-2
4.291538000E0,-8.922091220E-4,-1.292699948E-3,1.280943677E-2,1.290537797E-2
4.301495000E0,-1.129331300E-3,7.314281538E-4,1.311008632E-2,1.317895063E-2
4.311451000E0,1.204130473E-3,1.358070411E-3,1.203842834E-2,1.217448324E-2
4.321408000E0,-2.016851213E-4,9.018396959E-4,9.754553437E-3,9.798229661E-3
4.331365000E0,-7.457688916E-4,-6.270809099E-4,9.581450373E-3,9.630866677E-3
4.341322542E0,9.633176960E-4,2.698156051E-3,1.108180918E-2,1.144615751E-2
4.351279542E0,-1.819951925E-3,2.202542499E-3,1.037260704E-2,1.075892166E-2
4.361236542E0,-9.376397356E-4,-7.209368050E-6,1.158116385E-2,1.161906091E-2
4.371193542E0,2.307954710E-3,-1.498579048E-3,9.916421026E-3,1.029115154E-2
4.381150542E0,-7.115195040E-4,1.781592146E-4,1.433359459E-2,1.435234945E-2
4.391107542E0,3.793112701E-4,-5.006799474E-4,1.237031072E-2,1.238624822E-2
4.401064542E0,-8.891555481E-4,-3.964882344E-4,9.784914553E-3,9.833227004E-3
4.411021542E0,-1.458273036E-3,4.826216027E-4,1.090850309E-2,1.101612107E-2
4.420978542E0,-5.952606443E-4,1.553970389E-3,1.051297039E-2,1.064385765E-2
4.430935542E0,-1.092739170E-3,1.175269485E-3,1.015397534E-2,1.028000741E-2
4.440891542E0,-1.989766723E-3,-5.204724148E-4,9.893275797E-3,1.010479931E-2
4.450848542E0,-2.560489811E-4,7.820595056E-5,1.321503520E-2,1.321774688E-2
4.460805542E0,7.391270483E-4,4.516420886E-4,1.504674181E-2,1.507165315E-2
4.470762542E0,-9.943244513E-4,6.575044245E-5,1.363446936E-2,1.367083607E-2
4.480719542E0,-6.748191081E-4,-1.350079663E-3,1.168634556E-2,1.178341073E-2
4.490676542E0,-1.258850330E-3,4.052091390E-4,8.604003116E-3,8.705042690E-3
4.500633542E0,2.036893973E-3,-3.273318522E-3,1.047767326E-2,1.116446095E-2
4.510590542E0,1.921312651E-3,-2.589418553E-3,1.206944510E-2,1.249271931E-2
4.520547542E0,2.764506731E-3,4.737423733E-4,1.387764513E-2,1.415824720E-2
4.530504542E0,9.120119503E-4,-1.867176034E-3,1.022698358E-2,1.043596211E-2
4.540461542E0,-1.497506164E-4,-2.239830792E-3,1.221044920E-2,1.241508506E-2
4.550418542E0,1.088086748E-3,1.322680153E-3,9.898560122E-3,1.004564125E-2
4.560375542E0,-2.056679223E-4,1.283573918E-3,1.281772181E-2,1.288347212E-2
4.570331542E0,-1.436314778E-3,4.563964903E-4,1.256046072E-2,1.265055221E-2
4.580288542E0,-5.033710040E-4,-2.104481682E-3,1.012044959E-2,1.034918960E-2
4.590245542E0,-1.187537098E-3,3.011515364E-4,1.192926802E-2,1.199201284E-2
4.600202542E0,-8.718085010E-4,-2.313265577E-3,1.022275910E-2,1.051741657E-2
4.610159542E0,3.367338795E-4,1.030599698E-3,8.648566902E-3,8.716262668E-3
4.620116542E0,-2.923103748E-3,2.954527736E-5,1.240290888E-2,1.274274527E-2
4.630073542E0,2.420795383E-3,1.569118351E-3,1.047478057E-2,1.086477845E-2
4.640030542E0,-3.007284831E-3,1.429746859E-3,9.014241397E-3,9.609603848E-3
4.649987542E0,1.399714267E-3,4.809815437E-5,8.838739246E-3,8.949012511E-3
4.659944542E0,1.123816706E-3,3.349538893E-4,1.075451262E-2,1.081825771E-2
4.669901542E0,3.158580512E-6,1.558410935E-3,1.081283577E-2,1.092456278E-2
4.679858542E0,1.291325316E-5,-4.616258666E-4,1.080522686E-2,1.081509097E-2
4.689815542E0,8.004100528E-4,1.636845991E-4,1.112800092E-2,1.115795023E-2
4.699771542E0,-2.403941471E-4,-1.300331205E-4,8.472999558E-3,8.477406412E-3
4.709728542E0,-1.335752197E-3,-4.887608811E-4,8.396567777E-3,8.516188793E-3
4.719685542E0,-1.559020020E-3,7.772892714E-4,9.977892041E-3,1.012882282E-2
4.729642542E0,3.736675717E-3,-2.186010592E-3,1.040479541E-2,1.126947892E-2
4.739599542E0,-2.310631797E-3,2.213059925E-3,1.216453873E-2,1.257826125E-2
4.749556542E0,1.237764023E-3,4.452541471E-4,8.836118504E-3,8.933493228E-3
4.759513542E0,-1.079384238E-4,3.433572128E-4,1.137685403E-2,1.138254596E-2
4.769470542E0,-1.121994574E-4,-5.341544747E-4,8.335791528E-3,8.353641728E-3
4.779427542E0,1.126083313E-3,-5.552172661E-5,7.302097976E-3,7.388625119E-3
4.789384542E0,2.874715021E-3,9.245220572E-4,1.053836942E-2,1.096247953E-2
4.799341542E0,1.338597154E-3,-2.290401608E-5,1.012374088E-2,1.021188016E-2
4.809298542E0,1.717831241E-3,6.016073748E-4,1.194294542E-2,1.208084521E-2
4.819255542E0,1.082564006E-3,2.911631018E-4,1.182555035E-2,1.187856733E-2
4.829212542E0,4.671075149E-4,-6.808908656E-4,8.379686624E-3,8.420270169E-3
4.839168542E0,-9.131182451E-4,1.202487387E-3,9.290859103E-3,9.412747937E-3
4.849125542E0,-4.185876809E-3,1.080247574E-3,4.985325038E-3,6.598633587E-3
4.859082542E0,-7.784380578E-4,2.059970982E-3,6.807375699E-3,7.154705456E-3
4.869039542E0,2.016815823E-3,-1.070434228E-4,7.780760527E-3,8.038609253E-3
4.878996542E0,1.285722246E-4,-9.816428646E-4,1.035084575E-2,1.039808450E-2
4.888953542E0,5.461558467E-4,-1.960087568E-3,1.365716010E-2,1.380790540E-2
4.898910542E0,7.972156163E-4,-4.580654204E-4,1.475760899E-2,1.478622331E-2
4.908867542E0,-9.734020568E-5,2.531332895E-3,9.756727144E-3,1.008022053E-2
4.918824542E0,1.335230889E-3,1.206150278E-3,9.050518274E-3,9.227649812E-3
4.928781542E0,9.008693742E-4,-3.773653880E-4,6.700012833E-3,6.770830246E-3
4.938738542E0,6.851906655E-4,2.914834768E-4,8.574165404E-3,8.606437198E-3
4.948695542E0,1.360568334E-3,3.876239061E-4,1.002265885E-2,1.012201013E-2
4.958652542E0,1.503786538E-3,6.297370419E-4,1.053614169E-2,1.066153012E-2
4.968608542E0,2.609530929E-3,-2.224743366E-4,9.119074792E-3,9.487711608E-3
4.978565542E0,-4.776054993E-4,3.379965201E-4,1.074639708E-2,1.076231382E-2
4.988522542E0,-1.092795515E-3,-1.207169145E-3,1.118102670E-2,1.129897417E-2
4.998479542E0,-7.594153285E-4,-1.626505516E-3,7.409667596E-3,7.624001949E-3
5.008436542E0,-1.886997838E-3,-9.572040290E-5,7.060529664E-3,7.308967258E-3
5.018393542E0,-2.320304979E-3,1.810675487E-3,8.223470300E-3,8.734290165E-3
5.028350542E0,1.215840224E-3,1.619992778E-3,1.001151651E-2,1.021435788E-2
5.038307542E0,4.182552220E-4,9.407475591E-5,9.271517396E-3,9.281423507E-3
5.048264542E0,1.905550016E-4,2.144176513E-3,1.230112836E-2,1.248805681E-2
5.058221542E0,-5.134113599E-4,-2.075342461E-3,1.222882792E-2,1.241430103E-2
5.068178542E0,-1.552044181E-3,1.201943494E-3,1.042560115E-2,1.060880148E-2
5.078135542E0,2.781797666E-4,1.272261143E-3,1.087816060E-2,1.095583910E-2
5.088092542E0,7.370423991E-4,3.441497684E-4,8.783318102E-3,8.820904004E-3
5.098048542E0,5.649887025E-4,-7.416261360E-4,8.448954672E-3,8.500238620E-3
5.108005542E0,1.225452637E-3,-1.457750797E-3,6.890472025E-3,7.148802436E-3
5.117962542E0,-1.454307465E-3,6.924262270E-4,8.975125849E-3,9.118516781E-3
5.127919542E0,-2.025821945E-3,-9.832344949E-4,1.106198132E-2,1.128885005E-2
5.137876542E0,4.796304274E-4,-7.546320558E-5,1.218436658E-2,1.219403662E-2
5.147833542E0,1.242626109E-3,-9.204847738E-4,1.147729531E-2,1.158100684E-2
5.157790542E0,1.907275873E-3,-1.306777820E-3,9.708093479E-3,9.979601622E-3
5.167747542E0,4.124436527E-4,-2.019706182E-3,6.923491135E-3,7.223853011E-3
5.177704542E0,6.267572753E-4,7.639452815E-5,8.600406349E-3,8.623552062E-3
5.187661542E0,1.906406134E-3,1.107037999E-3,6.095170975E-3,6.481591370E-3
5.197618542E0,1.164138434E-3,8.974447846E-4,1.030221395E-2,1.040654783E-2
5.207575542E0,-4.390846007E-4,-1.350795850E-3,9.103527293E-3,9.213666690E-3
5.217532542E0,-3.099946771E-4,2.142198384E-3,1.041358709E-2,1.063616034E-2
5.227488542E0,5.408852594E-4,1.177867875E-3,1.116406918E-2,1.123905557E-2
5.237445542E0,-1.859595068E-4,9.494749829E-4,8.144728839E-3,8.201993145E-3
5.247402542E0,-2.938173711E-4,4.208376631E-4,7.014214993E-3,7.032968431E-3
5.257359542E0,5.823690444E-4,9.558117017E-4,6.082948297E-3,6.185061819E-3
5.267316542E0,1.462543732E-3,-2.224268392E-3,7.933046669E-3,8.367773509E-3
5.277273542E0,-6.918548606E-4,-8.958699182E-4,7.685508579E-3,7.768416066E-3
5.287230542E0,6.786077283E-4,1.209257171E-4,9.683944285E-3,9.708445210E-3
5.297187542E0,1.917114481E-3,1.029515639E-3,7.946133614E-3,8.238705589E-3
5.307144542E0,-1.593520865E-4,6.201881915E-4,1.147375628E-2,1.149161041E-2
5.317101542E0,-3.851412330E-4,7.268739864E-4,1.189822517E-2,1.192662743E-2
5.327058542E0,-4.455947783E-4,8.132308722E-5,1.113602705E-2,1.114523516E-2
5.337015750E0,3.496368881E-4,-1.510710455E-3,1.137716137E-2,1.148234701E-2
5.346972750E0,-1.489068381E-4,9.678937495E-4,1.009777747E-2,1.014515162E-2
5.356928750E0,9.663132951E-4,1.291434281E-3,1.008092426E-2,1.020914285E-2
5.366885750E0,-1.865692204E-3,1.271992922E-3,7.900858298E-3,8.217197529E-3
5.376842750E0,1.701091533E-3,-4.931828007E-4,7.300566882E-3,7.512337750E-3
5.386799750E0,-1.979130553E-3,-1.839676872E-3,5.198268220E-3,5.858614275E-3
5.396756750E0,3.430986544E-4,-2.493564971E-3,1.085537672E-2,1.114337412E-2
5.406713750E0,6.187357940E-4,-3.563789651E-4,1.110704616E-2,1.112997369E-2
5.416670750E0,-2.026209142E-3,-7.476890460E-4,8.659211919E-3,8.924489534E-3
5.426627750E0,-1.978006214E-3,2.960041165E-4,8.015258238E-3,8.261022433E-3
5.436584750E0,-3.520711325E-4,1.857381314E-3,8.109213784E-3,8.326654048E-3
5.446541750E0,-6.865642499E-4,-8.747549728E-4,5.789065734E-3,5.894900237E-3
5.456498750E0,1.410800614E-3,-2.110376954E-5,9.229600430E-3,9.336826433E-3
5.466455750E0,8.030672325E-4,-1.957221888E-3,6.973635405E-3,7.287470430E-3
5.476412750E0,1.413683640E-3,2.179361880E-3,1.023275778E-2,1.055734111E-2
5.486369750E0,-2.010342432E-3,-3.770058975E-4,9.408775717E-3,9.628534189E-3
5.496325750E0,-1.938127447E-3,7.388992235E-4,1.009253412E-2,1.030347296E-2
5.506282750E0,-1.738123829E-3,2.515227534E-3,1.268325746E-2,1.304654988E-2
5.516239750E0,2.110437024E-3,-6.884615868E-5,1.045762375E-2,1.066867277E-2
5.526196750E0,-6.272925530E-4,5.380883813E-4,1.251517981E-2,1.254243839E-2
5.536153750E0,-4.001900088E-4,-1.181350090E-3,7.687479258E-3,7.788008565E-3
5.546110750E0,-7.218997926E-4,-1.470569521E-3,6.013415754E-3,6.232566330E-3
5.556067750E0,-3.188445698E-4,8.243881166E-4,6.224729121E-3,6.287171880E-3
5.566024750E0,-1.067991601E-3,6.741862744E-4,7.295317948E-3,7.403836651E-3
5.575981750E0,1.583667006E-3,3.509679809E-4,7.166499272E-3,7.347781402E-3
5.585938750E0,1.800182043E-3,3.150152043E-4,9.122325107E-3,9.303585617E-3
5.595895750E0,-4.538693465E-4,9.389221668E-4,7.520431653E-3,7.592395173E-3
5.605852750E0,2.162686316E-3,-5.836067721E-4,6.650110707E-3,7.017248847E-3
5.615809750E0,-6.720307283E-5,2.586040646E-4,9.111844003E-3,9.115760717E-3
5.625765750E0,-8.192795794E-4,-8.361227810E-5,7.700636983E-3,7.744547759E-3
5.635722750E0,1.344186021E-3,9.231083095E-4,5.267463624E-3,5.514085422E-3
5.645679750E0,1.927151927E-3,-3.833031282E-3,5.737245083E-3,7.163939175E-3
5.655636750E0,1.481823856E-3,9.341249242E-4,9.939173236E-3,1.009235136E-2
5.665593750E0,1.125226496E-3,-9.399410337E-4,9.750356898E-3,9.859973806E-3
5.675550750E0,-1.304555684E-3,-6.825942546E-4,8.494900540E-3,8.621550651E-3
5.685507750E0,-9.905688930E-4,-9.438497946E-4,9.809171781E-3,9.904137024E-3
5.695464750E0,-9.528817609E-4,2.441546880E-3,9.724611416E-3,1.007160375E-2
5.705421750E0,1.066060504E-3,-3.582350910E-4,8.911015466E-3,8.981704405E-3
5.715378750E0,2.268241253E-3,-2.573067322E-4,7.739095017E-3,8.068749396E-3
5.725335750E0,3.164105583E-4,-3.001838923E-4,9.692789987E-3,9.702597783E-3
5.735292750E0,7.763721514E-4,1.679882407E-4,7.456488907E-3,7.498679923E-3
5.745249750E0,-4.979504738E-4,-1.213126816E-3,5.101453513E-3,5.267300949E-3
5.755205750E0,-5.504891742E-4,5.891006440E-4,9.159609675E-3,9.195027314E-3
5.765162750E0,-1.400037436E-3,3.709876910E-4,7.221627980E-3,7.365435994E-3
5.775119750E0,-1.070950413E-3,-9.792642668E-4,8.858509362E-3,8.976585175E-3
5.785076750E0,1.574101276E-3,5.097091198E-4,1.047984138E-2,1.060965002E-2
5.795033750E0,-1.029619249E-3,1.779105514E-3,9.251669049E-3,9.477273470E-3
5.804990750E0,-7.566453423E-4,-4.358681850E-3,5.975447595E-3,7.434823038E-3
5.814947750E0,-8.533871733E-4,-8.325520903E-4,9.619874880E-3,9.693472306E-3
5.824904750E0,-2.831316786E-3,-1.452802680E-3,8.476847783E-3,9.054498258E-3
5.834861750E0,9.586830856E-4,-1.223972067E-3,7.325269282E-3,7.488441155E-3
5.844818750E0,-9.004697204E-4,1.027731225E-3,9.992159903E-3,1.008515427E-2
5.854775750E0,-1.193117350E-4,1.438193023E-3,8.329089731E-3,8.453186985E-3
5.864732750E0,3.488524817E-5,-5.506910384E-6,6.794311106E-3,6.794402896E-3
5.874689750E0,-2.921861596E-4,-4.612104967E-4,9.332025424E-3,9.347983011E-3
5.884646750E0,6.561656483E-4,1.064248383E-3,1.145669259E-2,1.152471185E-2
5.894602750E0,1.811063150E-3,6.728712469E-5,8.564293385E-3,8.753947593E-3
5.904559750E0,-2.789547667E-3,-1.431806944E-3,1.144050807E-2,1.186241426E-2
5.914516750E0,1.117527019E-3,2.284664661E-4,7.379293442E-3,7.466929440E-3
5.924473750E0,-4.449496046E-4,-5.116267130E-4,8.532706648E-3,8.559604242E-3
5.934430750E0,2.535974141E-3,1.136207953E-3,7.704837248E-3,8.190644076E-3
5.944387750E0,1.260797726E-4,-4.156157374E-4,8.970903233E-3,8.981410655E-3
5.954344750E0,-5.839662626E-4,-3.023408353E-4,8.038530126E-3,8.065382394E-3
5.964301750E0,-1.223923871E-3,-6.802435964E-4,8.195923641E-3,8.314678907E-3
5.974258750E0,-2.402848098E-3,-1.599368639E-3,8.418988436E-3,8.900057602E-3
5.984215750E0,4.240939859E-3,-1.231053844E-3,5.248762667E-3,6.859342096E-3
5.994172750E0,1.173425699E-4,1.882705837E-4,6.433874369E-3,6.437697918E-3
6.004129750E0,2.028300660E-4,-1.731198281E-4,3.976576030E-3,3.985507174E-3
6.014086750E0,-6.441983860E-4,5.827555433E-4,5.052248016E-3,5.126383286E-3
6.024042750E0,-1.638889080E-3,2.272265032E-3,6.851213053E-3,7.401909624E-3
6.033999750E0,7.124410477E-4,8.084382862E-4,6.175763905E-3,6.269067277E-3
6.043956750E0,-1.685469178E-3,-2.028094605E-3,6.696946919E-3,7.197435107E-3
6.053913750E0,-5.842777900E-4,-4.212381318E-4,5.756471306E-3,5.801360530E-3
6.063870750E0,-1.104126917E-3,7.143337280E-4,7.457435131E-3,7.572496792E-3
6.073827750E0,1.774532604E-3,-1.533203758E-3,9.084410965E-3,9.382228004E-3
6.083784750E0,-2.816941123E-4,-4.223985597E-4,1.242268458E-2,1.243305531E-2
6.093741750E0,-2.955483040E-3,1.898359507E-3,7.797509432E-3,8.552181135E-3
6.103698750E0,5.140833091E-4,1.691964455E-3,8.147448301E-3,8.337142148E-3
6.113655750E0,9.234795580E-4,1.527980901E-3,6.129767746E-3,6.384480617E-3
6.123612750E0,1.808447996E-3,-1.783063635E-4,7.738582790E-3,7.949084281E-3
6.133569750E0,-3.074395936E-3,5.829399452E-4,7.630649954E-3,8.247335817E-3
6.143526750E0,2.140606055E-3,2.210158855E-4,7.739041001E-3,8.032670659E-3
6.153482750E0,1.430916484E-3,-2.213682979E-3,8.755773306E-3,9.143931348E-3
6.163439750E0,-1.221325714E-3,-7.164543495E-4,9.353917092E-3,9.460481399E-3
6.173396750E0,-1.295438269E-3,-1.703917980E-3,1.023992524E-2,1.046124111E-2
6.183353750E0,6.811599014E-4,-1.197917387E-3,7.469706237E-3,7.595755140E-3
6.193310750E0,2.790683648E-4,1.261188649E-3,9.352533147E-3,9.441310938E-3
6.203267750E0,-2.615255304E-3,2.282511443E-3,7.524272427E-3,8.286380051E-3
6.213224750E0,-8.607478812E-4,3.925338387E-4,7.167134434E-3,7.229300500E-3
6.223181750E0,1.818797318E-4,-1.994874328E-4,6.199341267E-3,6.205216162E-3
6.233138750E0,-3.081268864E-3,1.104185358E-3,7.549779490E-3,8.228767432E-3
6.243095750E0,-1.160064247E-3,-5.115540698E-4,7.769489661E-3,7.872255472E-3
6.253052750E0,-5.973877851E-4,-8.811019361E-4,6.428578869E-3,6.516121473E-3
6.263009750E0,-4.937909544E-4,1.220398583E-3,6.709011272E-3,6.836960907E-3
6.272966750E0,-5.972301587E-4,-2.807184123E-3,5.729326978E-3,6.407975826E-3
6.282922750E0,1.431286801E-4,7.515493780E-5,8.070243523E-3,8.071862523E-3
6.292879750E0,-1.679506619E-3,2.461570315E-3,6.759325042E-3,7.387052587E-3
6.302836750E0,-4.896062892E-4,1.611318439E-4,1.754978672E-3,1.829105773E-3
6.312793750E0,-1.382748829E-3,-1.711973920E-3,7.870668545E-3,8.172531577E-3
6.322750750E0,-1.950002043E-3,-4.879850894E-4,6.778238341E-3,7.070017852E-3
6.332707750E0,2.218762413E-3,3.183537163E-3,5.562230945E-3,6.782051946E-3
6.342664875E0,7.178047672E-4,7.014712319E-4,5.970492959E-3,6.054262279E-3
6.352621875E0,-5.819769576E-4,2.946117893E-4,9.698910639E-3,9.720820997E-3
6.362578875E0,-6.717254873E-4,1.913547516E-3,7.443746552E-3,7.715065907E-3
6.372535875E0,-2.021960681E-3,3.259824589E-4,8.464394137E-3,8.708648441E-3
6.382492875E0,-5.851855967E-4,-1.567525789E-3,8.415656164E-3,8.580375747E-3
6.392449875E0,-1.956792083E-3,5.220379680E-4,6.458383054E-3,6.768476236E-3
6.402406875E0,5.953151267E-4,-6.172619760E-4,6.212040782E-3,6.270953925E-3
6.412363875E0,-1.071251696E-3,-1.202234998E-3,5.348242819E-3,5.585396176E-3
6.422319875E0,6.606018869E-4,-1.050435007E-3,4.788447171E-3,4.946618529E-3
6.432276875E0,-1.925534103E-3,-6.432244554E-4,3.561051562E-3,4.099086180E-3
6.442233875E0,7.448173128E-4,-4.046047106E-4,7.988823578E-3,8.033664168E-3
6.452190875E0,1.301197102E-3,1.157711260E-3,6.126435474E-3,6.369193110E-3
6.462147875E0,8.910702309E-4,-3.781920299E-3,7.109941915E-3,8.102357764E-3
6.472104875E0,-2.921308624E-3,-5.689673126E-4,8.017640561E-3,8.552211880E-3
6.482061875E0,-8.349881973E-4,-1.662969589E-4,6.106823683E-3,6.165886429E-3
6.492018875E0,-4.267413169E-4,-1.029465348E-4,6.157938391E-3,6.173565531E-3
6.501975875E0,1.134403748E-3,-1.898982562E-3,8.579816669E-3,8.860375879E-3
6.511932875E0,1.856741845E-3,-1.627641730E-3,4.517585039E-3,5.148328123E-3
6.521889875E0,-1.064745942E-3,4.565482959E-4,5.469396710E-3,5.590744194E-3
6.531846875E0,1.507588895E-4,5.999514833E-4,8.324280381E-3,8.347233907E-3
6.541803875E0,-4.018982872E-5,-2.748984843E-5,6.340224296E-3,6.340411267E-3
6.551759875E0,-3.549456596E-3,1.822398975E-3,6.283802912E-3,7.443517931E-3
6.561716875E0,-2.533460502E-3,-9.278478101E-4,4.995362833E-3,5.677409049E-3
6.571673875E0,5.223918706E-4,2.365810797E-4,5.045685917E-3,5.078169970E-3
6.581630875E0,-1.245680731E-3,-4.095016047E-4,5.467798561E-3,5.622831417E-3
6.591587875E0,-2.846727148E-5,-2.605104819E-4,4.732450470E-3,4.739700787E-3
6.601544875E0,-9.850831702E-5,-1.627510414E-3,4.538839683E-3,4.822816574E-3
6.611501875E0,1.266569947E-3,5.754390731E-4,4.935173318E-3,5.127500876E-3
6.621458875E0,-1.091392944E-3,1.517301425E-4,8.146682754E-3,8.220863731E-3
6.631415875E0,4.569878802E-3,-2.019994892E-3,5.319749936E-3,7.298212864E-3
6.641372875E0,-1.362579176E-3,1.163547859E-3,7.065450773E-3,7.289105587E-3
6.651329875E0,-1.996162115E-3,1.243126579E-3,7.551819086E-3,7.909487871E-3
6.661286875E0,3.290212713E-3,2.886494622E-4,8.352365345E-3,8.981693886E-3
6.671243875E0,-9.582750499E-5,1.770863310E-4,9.938791394E-3,9.940830793E-3
6.681200875E0,3.010483691E-3,-3.251861781E-4,7.411450148E-3,8.006144603E-3
6.691156875E0,-8.974887896E-4,-1.352662221E-4,7.266368717E-3,7.322833974E-3
6.701113875E0,1.595229958E-3,-1.825042069E-3,3.103047609E-3,3.937567985E-3
6.711070875E0,-9.941933677E-4,2.150102518E-3,4.151673988E-3,4.779932865E-3
6.721027875E0,-1.463975059E-3,-1.886859536E-4,3.723969683E-3,4.005842678E-3
6.730984875E0,-5.049824249E-4,4.020184278E-4,5.817741156E-3,5.853438154E-3
6.740941875E0,3.078142181E-4,-1.032627188E-3,4.963397980E-3,5.079014472E-3
6.750898875E0,8.507741150E-4,2.287980169E-4,6.273537874E-3,6.335096099E-3
6.760855875E0,-2.957168035E-4,-1.240467653E-3,7.049050182E-3,7.163471009E-3
6.770812875E0,1.494729077E-3,-1.361917704E-3,8.217394352E-3,8.462541272E-3
6.780769875E0,1.613772358E-3,2.636760473E-4,7.442150265E-3,7.619671046E-3
6.790726875E0,1.742762746E-3,5.138497800E-4,5.840916187E-3,6.116989904E-3
6.800683875E0,-5.339737982E-4,-1.030784100E-3,7.733091712E-3,7.819741128E-3
6.810640875E0,-8.796153124E-4,7.563419640E-4,7.241612300E-3,7.333943344E-3
6.820596875E0,-2.074590884E-5,-3.848224878E-4,5.216544494E-3,5.230760480E-3
6.830553875E0,8.118501864E-5,1.376632601E-3,6.914161146E-3,7.050342735E-3
6.840510875E0,-3.300069366E-4,1.191009767E-3,6.340518594E-3,6.459844029E-3
6.850467875E0,1.989121316E-3,3.855731338E-4,6.582180038E-3,6.886970619E-3
6.860424875E0,1.346500590E-3,-5.318857729E-4,8.054109290E-3,8.183192701E-3
6.870381875E0,9.829589399E-4,-9.980695322E-4,7.099788636E-3,7.236667033E-3
6.880338875E0,1.749150339E-3,-9.392667562E-5,6.700314581E-3,6.925501037E-3
6.890295875E0,-1.448546536E-4,1.793934964E-3,4.498649389E-3,4.845310294E-3
6.900252875E0,8.519664407E-4,-1.765646040E-3,5.777500570E-3,6.101054465E-3
6.910209875E0,1.797748031E-3,-2.677841112E-4,6.367713213E-4,1.925898240E-3
6.920166875E0,-9.149848484E-5,-1.359730959E-7,5.029655993E-3,5.030488187E-3
6.930123875E0,-2.390292939E-3,1.153362915E-3,3.113890067E-3,4.091461560E-3
6.940080875E0,-2.296704333E-4,7.531605661E-5,4.260117188E-3,4.266968417E-3
6.950037875E0,1.024625846E-3,1.661534421E-3,3.072086722E-3,3.639817521E-3
6.959993875E0,2.080036560E-3,-6.053484976E-4,6.463356316E-3,6.816742166E-3
6.969950875E0,-5.793052260E-4,-1.545324922E-3,4.841411486E-3,5.114967139E-3
6.979907875E0,3.109705634E-3,9.639048949E-4,7.077133283E-3,7.790070429E-3
6.989864875E0,-6.288129371E-4,-4.274221137E-4,7.045863196E-3,7.086768202E-3
6.999821875E0,-3.412881633E-3,8.551562205E-4,7.131082937E-3,7.951817217E-3
7.009778875E0,-1.727407565E-3,-7.184101269E-4,1.054188050E-2,1.070660051E-2
7.019735875E0,8.913478814E-5,9.447336197E-4,1.317814179E-2,1.321226277E-2
7.029692875E0,5.200264277E-4,-2.095904201E-4,1.067633182E-2,1.069104376E-2
7.039649875E0,6.105739158E-4,-5.190493539E-4,7.747121155E-3,7.788459343E-3
7.049606875E0,4.351143260E-3,1.262959093E-3,7.151892409E-3,8.466231651E-3
7.059563875E0,2.169481711E-3,-1.612189226E-3,2.715067938E-3,3.831109357E-3
7.069520875E0,7.010208210E-4,1.230769791E-3,2.940362319E-3,3.263733298E-3
7.079477875E0,-2.278897446E-4,-1.633993350E-3,3.357147798E-3,3.740629538E-3
7.089433875E0,-2.108136425E-3,-7.063029334E-4,1.683358103E-3,2.788691005E-3
7.099390875E0,1.254104543E-3,1.189334318E-3,2.855947241E-3,3.338222427E-3
7.109347875E0,-1.517293043E-3,-2.515949309E-4,4.250386730E-3,4.520095745E-3
7.119304875E0,2.730981447E-3,-2.788787708E-3,6.748432294E-3,7.795956321E-3
7.129261875E0,-6.206117105E-4,2.124750055E-3,5.862895399E-3,6.266838450E-3
7.139218875E0,1.676364802E-3,-5.464004353E-4,8.853890002E-3,9.027741719E-3
7.149175875E0,-1.281247707E-3,-2.147720195E-3,6.124019623E-3,6.614976498E-3
7.159132875E0,-1.211473020E-3,-1.297905110E-3,7.997021079E-3,8.191737953E-3
7.169089875E0,-5.199364386E-5,8.728839457E-4,5.505794659E-3,5.574800853E-3
7.179046875E0,-1.424054382E-3,9.264135733E-4,5.279956385E-3,5.546540582E-3
7.189003875E0,1.419360866E-3,-1.950464211E-3,2.782234922E-3,3.682353469E-3
7.198960875E0,-7.955902256E-4,9.206896648E-4,-1.754797995E-5,1.216939274E-3
7.208917875E0,-1.982785761E-5,1.908812672E-3,3.698237240E-3,4.161840656E-3
7.218874875E0,-2.837718697E-3,-4.542106763E-4,4.164557904E-3,5.059891034E-3
7.228830875E0,1.472979318E-3,1.519382931E-3,7.203871384E-3,7.508259151E-3
7.238787875E0,2.090299968E-3,1.181161962E-3,2.991551533E-3,3.835867322E-3
7.248744875E0,1.996715087E-3,-1.163350418E-3,3.768885508E-3,4.420944844E-3
7.258701875E0,1.317076501E-3,1.325373538E-3,7.483730093E-3,7.713463659E-3
7.268658875E0,2.001321409E-3,4.374738783E-4,4.970287904E-3,5.375912260E-3
7.278615875E0,1.156566781E-3,1.307794824E-3,7.074182853E-3,7.286428279E-3
7.288572875E0,-1.828964334E-3,-1.221895218E-6,6.348781288E-3,6.606976303E-3
7.298529875E0,-2.707487438E-4,-2.235965803E-4,6.250243634E-3,6.260099504E-3
7.308486875E0,-1.909051090E-3,-2.364665270E-4,5.102904513E-3,5.453441753E-3
7.318443875E0,-6.190158892E-4,-1.213314012E-3,8.829200640E-3,8.933649619E-3
7.328400875E0,-4.937055055E-4,5.966471508E-4,5.647795275E-3,5.700642456E-3
7.338357542E0,-2.327824477E-3,-5.714157596E-4,5.852324888E-3,6.324159182E-3
7.348314542E0,-3.586639650E-4,-5.870545283E-4,8.340673521E-3,8.368996812E-3
7.358270542E0,3.356221132E-4,1.639348455E-3,7.229069248E-3,7.420212109E-3
7.368227542E0,1.618483802E-4,1.229527406E-3,4.923652858E-3,5.077429468E-3
7.378184542E0,-1.183161512E-4,-2.892734483E-4,6.385196000E-3,6.392840198E-3
7.388141542E0,-4.596889485E-4,1.065863296E-3,7.440075278E-3,7.530079591E-3
7.398098542E0,-7.742084563E-4,4.035355523E-4,4.601944238E-3,4.684029296E-3
7.408055542E0,1.237483229E-3,3.009475768E-5,6.502985954E-3,6.619750506E-3
7.418012542E0,1.891555497E-3,1.821603626E-3,4.422791302E-3,5.143666482E-3
7.427969542E0,-2.441904508E-5,1.688022166E-4,5.972061306E-3,5.974496357E-3
7.437926542E0,1.093309605E-3,-1.563699916E-4,5.884975195E-3,5.987713296E-3
7.447883542E0,-4.517382476E-4,3.556339070E-4,6.276505068E-3,6.302781829E-3
7.457840542E0,5.610618973E-4,-6.736777723E-4,5.182744935E-3,5.256374916E-3
7.467797542E0,-1.978094457E-3,-9.969295934E-4,5.718933418E-3,6.132937774E-3
7.477754542E0,1.444866182E-3,-2.258734778E-3,5.741035566E-3,6.336324680E-3
7.487711542E0,7.255889941E-4,-1.552779227E-3,6.084714085E-3,6.321498890E-3
7.497667542E0,2.380743623E-3,1.371371560E-3,6.707094610E-3,7.248014780E-3
7.507624542E0,-3.140185960E-3,4.261936992E-4,9.904578328E-3,1.039918654E-2
7.517581542E0,-7.914868183E-5,2.533020452E-3,6.087735295E-3,6.594162430E-3
7.527538542E0,-8.866791613E-4,1.190853305E-3,3.628795967E-3,3.920776925E-3
7.537495542E0,3.105399199E-3,-1.022766344E-3,3.900973126E-3,5.089906336E-3
7.547452542E0,-1.195836812E-3,1.413865015E-3,2.637870610E-3,3.222949164E-3
7.557409542E0,-2.714903792E-3,1.196817495E-3,5.225662142E-3,6.009211225E-3
7.567366542E0,2.408772707E-3,-2.127287909E-3,4.931075498E-3,5.885834297E-3
7.577323542E0,-8.075269870E-4,-1.229269430E-3,5.101518705E-3,5.309302804E-3
7.587280542E0,-1.331231557E-3,-4.135482013E-4,6.140964106E-3,6.297193003E-3
7.597237542E0,-1.199405175E-3,-1.240459271E-3,5.604604259E-3,5.864205051E-3
7.607194542E0,-3.441951703E-4,1.255285926E-3,4.872806370E-3,5.043654924E-3
7.617151542E0,-8.462010883E-4,9.865723550E-4,5.088523030E-3,5.251899459E-3
7.627108542E0,1.503394451E-3,1.325513236E-3,5.372622982E-3,5.734305356E-3
7.637064542E0,-6.702775136E-4,-5.355039611E-4,6.795549765E-3,6.849491445E-3
7.647021542E0,-4.724909086E-4,1.071672887E-4,6.995704025E-3,7.012460859E-3
7.656978542E0,-1.939244103E-4,-1.010295004E-3,9.843420237E-3,9.897031102E-3
7.666935542E0,-3.108178964E-3,-3.852285445E-4,9.123241529E-3,9.645865098E-3
7.676892542E0,-4.356966820E-4,4.728427157E-4,7.685402408E-3,7.712251423E-3
7.686849542E0,1.503140666E-4,-1.694872975E-3,4.639115185E-3,4.941313430E-3
7.696806542E0,-3.756603692E-4,1.402383670E-3,3.116585314E-3,3.438154257E-3
7.706763542E0,1.727182884E-3,1.305807382E-5,2.494392917E-3,3.034028222E-3
7.716720542E0,1.740272855E-4,-1.188826747E-3,4.105871543E-3,4.278057464E-3
7.726677542E0,1.298986375E-3,1.004173420E-3,5.431706086E-3,5.674430444E-3
7.736634542E0,-1.252854476E-3,1.700716093E-4,6.785126403E-3,6.901920674E-3
7.746591542E0,-9.311060421E-5,-1.092161052E-3,7.988002151E-3,8.062857044E-3
7.756548542E0,1.025683247E-3,-9.155934677E-4,6.152018905E-3,6.303782525E-3
7.766504542E0,-5.288666580E-4,3.040784970E-3,8.545510471E-3,9.085803343E-3
7.776461542E0,1.995078055E-4,1.019445248E-3,5.476750433E-3,5.574393894E-3
7.786418542E0,-1.696595456E-3,-4.010070115E-4,6.401440129E-3,6.634582013E-3
7.796375542E0,-1.029740088E-3,6.072660908E-4,4.019776359E-3,4.193773805E-3
7.806332542E0,2.734738868E-3,1.218464226E-3,3.016168252E-3,4.249790897E-3
7.816289542E0,8.422966348E-4,1.674664207E-3,1.778064296E-3,2.583694345E-3
7.826246542E0,2.949540736E-3,-3.896579146E-4,2.991035581E-3,4.218757837E-3
7.836203542E0,-2.241226379E-3,1.855846494E-4,5.214776844E-3,5.679034678E-3
7.846160542E0,-1.075514825E-3,-4.060417414E-4,4.767023027E-3,4.903683368E-3
7.856117542E0,2.216684865E-3,-2.490231767E-3,6.266646087E-3,7.098295516E-3
7.866074542E0,1.438256470E-3,1.385590993E-3,5.376707762E-3,5.735628164E-3
7.876031542E0,-1.140748616E-3,1.158690080E-3,6.039302796E-3,6.254362347E-3
7.885988542E0,2.242060145E-4,-6.262958050E-4,5.442935973E-3,5.483435673E-3
7.895945542E0,1.860992052E-5,-1.714196987E-3,7.142566144E-3,7.345411409E-3
7.905901542E0,-1.140006352E-4,-1.621181145E-4,5.860010162E-3,5.863360600E-3
7.915858542E0,-9.338604286E-6,1.159874722E-3,3.728682175E-3,3.904928597E-3
7.925815542E0,-5.689961836E-4,-6.079021841E-4,2.511560917E-3,2.645985631E-3
7.935772542E0,-4.880920518E-3,3.311289474E-4,4.914265126E-3,6.934193047E-3
7.945729542E0,-1.913399901E-3,8.826144040E-6,2.389110625E-3,3.060886581E-3
7.955686542E0,2.811580431E-3,5.915947258E-5,3.898590803E-3,4.807025547E-3
7.965643542E0,3.275157651E-4,2.944003791E-4,6.443750113E-3,6.458781130E-3
7.975600542E0,-8.133824449E-4,6.446065381E-4,4.868220538E-3,4.977617884E-3
7.985557542E0,-7.321266457E-5,6.857346743E-4,3.702199087E-3,3.765882395E-3
7.995514542E0,-1.230356051E-3,-1.906319521E-3,7.299596444E-3,7.644078648E-3
8.005471542E0,-8.519554976E-4,1.605795696E-4,6.060715765E-3,6.122408803E-3
8.015428542E0,-9.094798006E-4,-1.409353688E-3,6.317976862E-3,6.536838912E-3
8.025385542E0,6.724736886E-4,9.295679629E-4,5.917338654E-3,6.027537989E-3
8.035342542E0,-1.796276541E-3,-1.183860004E-4,5.506413057E-3,5.793203727E-3
8.045298542E0,-1.235152595E-3,2.475148998E-3,4.683971405E-3,5.439811818E-3
8.055255542E0,2.132682130E-5,4.594027996E-4,5.002487451E-3,5.023583030E-3
8.065212542E0,-4.434166476E-4,-1.256847754E-4,5.191916600E-3,5.212332776E-3
8.075169542E0,-3.857855452E-3,-1.505735330E-3,7.313122973E-3,8.404287905E-3
8.085126542E0,3.770719049E-4,1.391963102E-3,4.544533789E-3,4.767864497E-3
8.095083542E0,-3.198953345E-5,1.285436563E-3,4.262771457E-3,4.452481441E-3
8.105040542E0,-2.162543358E-3,4.086392000E-4,8.190799505E-3,8.481319254E-3
8.114997542E0,6.316453218E-4,-1.320817508E-3,4.175018519E-3,4.424286873E-3
8.124954542E0,-5.917719100E-4,-1.586545259E-4,7.059957832E-3,7.086492069E-3
8.134911542E0,2.211471321E-3,3.522355109E-5,6.492972374E-3,6.859339352E-3
8.144868542E0,-1.890835585E-3,-2.607948147E-3,5.472151563E-3,6.349889406E-3
8.154825542E0,-9.928178042E-4,-1.049200073E-3,3.576779738E-3,3.857442324E-3
8.164782542E0,-8.301017806E-4,-8.617769927E-4,7.029691711E-3,7.130798981E-3
8.174739542E0,-2.713755704E-3,-1.492679119E-3,4.945235327E-3,5.835058990E-3
8.184695542E0,9.312964976E-4,-6.194850430E-4,7.811287418E-3,7.890962299E-3
8.194652542E0,2.169133630E-3,-1.170227304E-3,6.946293637E-3,7.370588032E-3
8.204609542E0,2.843628172E-4,1.225678250E-3,5.888499320E-3,6.021426212E-3
8.214566542E0,7.512149168E-4,-2.446288243E-3,7.503438741E-3,7.927814513E-3
8.224523542E0,-1.922494033E-3,1.375963911E-4,4.216721281E-3,4.636340630E-3
8.234480542E0,2.038425300E-3,-2.192668617E-4,5.181049928E-3,5.571941674E-3
8.244437542E0,8.281534538E-4,1.010010950E-3,2.827322111E-3,3.114435836E-3
8.254394542E0,-3.041153075E-3,-1.276579686E-3,4.367696121E-3,5.473119506E-3
8.264351542E0,-1.574335620E-3,1.442577690E-3,2.050455660E-3,2.960393799E-3
8.274308542E0,-6.275817286E-4,-7.007345557E-4,3.078967333E-3,3.219460759E-3
8.284265542E0,9.209651034E-4,1.257838681E-3,5.208492279E-3,5.436793788E-3
8.294222542E0,-1.780545339E-3,-1.029550098E-3,5.016211420E-3,5.421502755E-3
8.304179542E0,5.971433129E-4,-1.069297083E-3,7.670801133E-3,7.767957673E-3
8.314136542E0,9.020752041E-4,-2.685835585E-3,4.316549748E-3,5.163337505E-3
8.324092542E0,-4.068277776E-4,-1.483346336E-3,9.176101536E-3,9.304120839E-3
8.334049542E0,-2.222706098E-4,6.418563426E-4,6.916675717E-3,6.949948687E-3
8.344007000E0,-2.939878032E-4,1.368373632E-4,5.747992545E-3,5.757132237E-3
8.353964000E0,-9.746919386E-4,-3.609070554E-4,5.941603333E-3,6.031826294E-3
8.363921000E0,5.903727142E-4,4.827110097E-4,3.098078072E-3,3.190554435E-3
8.373878000E0,2.672698349E-3,1.037181355E-3,2.059176564E-3,3.529769079E-3
8.383835000E0,3.153743455E-4,-8.836593479E-4,4.670549184E-3,4.763858153E-3
8.393792000E0,8.836928755E-4,-7.614204660E-4,4.150699824E-3,4.311494318E-3
8.403749000E0,-1.109280856E-3,1.263756305E-3,4.135889933E-3,4.464657831E-3
8.413706000E0,1.014856389E-3,-3.626365215E-4,2.840528265E-3,3.038098017E-3
8.423663000E0,1.905351295E-3,-2.425013110E-3,5.681736395E-3,6.464764543E-3
8.433620000E0,1.087494427E-3,5.729077384E-4,6.727563217E-3,6.838930783E-3
8.443577000E0,-9.900282603E-4,-1.739315689E-3,3.807358444E-3,4.301319953E-3
8.453534000E0,-3.277000505E-4,2.585873008E-4,6.134692580E-3,6.148878577E-3
8.463490000E0,4.877520259E-4,1.809382811E-4,7.531831041E-3,7.549776125E-3
8.473447000E0,1.080305432E-3,5.633682013E-4,2.810047939E-3,3.062811287E-3
8.483404000E0,5.147157935E-4,1.160855405E-3,5.380172282E-3,5.527998861E-3
8.493361000E0,-6.727876607E-4,1.650992781E-4,7.049977779E-3,7.083931655E-3
8.503318000E0,-1.897434238E-3,2.497481182E-3,3.798913211E-3,4.926399347E-3
8.513275000E0,-1.919005765E-3,6.567044184E-4,3.997851163E-3,4.482929594E-3
8.523232000E0,-2.452614717E-5,-1.300999895E-3,6.963424385E-4,1.475837067E-3
8.533189000E0,-2.528429963E-3,-4.613045603E-4,2.919550985E-3,3.889670671E-3
8.543146000E0,6.747845327E-4,-8.865399286E-4,5.028530955E-3,5.150476753E-3
8.553103000E0,7.376350695E-4,-9.603099898E-4,6.341468543E-3,6.456045543E-3
8.563060000E0,-2.759660129E-4,1.128660515E-4,7.232366130E-3,7.238509226E-3
8.573017000E0,1.407950651E-3,-1.431501471E-3,4.632053897E-3,5.048509166E-3
8.582974000E0,1.116969739E-3,2.275398001E-4,4.473444074E-3,4.616394442E-3
8.592930000E0,-1.384537434E-3,5.180910230E-4,4.221245646E-3,4.472614115E-3
8.602887000E0,3.083726857E-3,-1.272149384E-4,1.145942137E-3,3.292223921E-3
8.612844000E0,1.115650637E-3,3.295168281E-4,2.361943945E-3,2.632876162E-3
8.622801000E0,2.115898533E-3,-1.271579415E-3,1.803260297E-3,3.057071884E-3
8.632758000E0,-1.639957540E-3,-3.081280738E-5,5.910389125E-3,6.133767992E-3
8.642715000E0,-2.901889849E-3,1.336216927E-3,5.482560024E-3,6.345463323E-3
8.652672000E0,5.746005336E-4,8.192975074E-4,1.396207139E-3,1.717791767E-3
8.662629000E0,-1.558050048E-3,-1.533915289E-3,3.255104646E-3,3.921239896E-3
8.672586000E0,2.107258653E-3,9.382972494E-4,2.634318545E-3,3.501510383E-3
8.682543000E0,-9.948061779E-5,1.229642890E-3,3.356870264E-3,3.576380293E-3
8.692500000E0,-2.041428816E-4,1.485838555E-3,2.492941916E-3,2.909321214E-3
8.702457000E0,5.778134800E-4,-1.603285782E-3,3.126256168E-3,3.560599857E-3
8.712414000E0,-1.178041566E-4,5.874307826E-4,5.886357278E-3,5.916768945E-3
8.722371000E0,-1.722596120E-3,4.173573107E-4,7.381830364E-3,7.591636454E-3
8.732327000E0,-2.923948225E-3,9.085331112E-5,5.348239094E-3,6.096014186E-3
8.742284000E0,-9.356690571E-4,2.015554346E-3,2.926038578E-3,3.674185307E-3
8.752241000E0,1.157841878E-3,-1.906091347E-4,3.256270662E-3,3.461246637E-3
8.762198000E0,1.265785890E-3,2.183448523E-3,2.153927460E-3,3.317991091E-3
8.772155000E0,2.604424953E-4,-1.814221963E-3,1.342462376E-3,2.271879587E-3
8.782112000E0,-1.425809925E-3,1.022628509E-3,3.150561824E-3,3.606208926E-3
8.792069000E0,-7.107511628E-4,8.668340743E-4,5.336219445E-3,5.452688006E-3
8.802026000E0,1.692349324E-4,3.284711391E-3,3.696126863E-3,4.947658352E-3
8.811983000E0,-1.850240165E-3,5.054362118E-4,6.518812850E-3,6.795128800E-3
8.821940000E0,-9.455389809E-4,-3.319568932E-4,5.805123597E-3,5.890984580E-3
8.831897000E0,-1.872851746E-3,-2.443389967E-4,6.182760000E-3,6.464812173E-3
8.841854000E0,-3.995094448E-5,4.408713430E-4,4.293078557E-3,4.315841414E-3
8.851811000E0,6.751078181E-4,-1.105359755E-3,3.509311005E-3,3.740702406E-3
8.861768000E0,1.530325972E-5,6.527155638E-4,2.272736281E-3,2.364656846E-3
8.871724000E0,-1.411884790E-3,-2.967007458E-4,1.773659140E-3,2.286332596E-3
8.881681000E0,6.584867369E-4,-9.738160297E-4,3.016708419E-3,3.237661521E-3
8.891638000E0,1.812168048E-3,1.914648339E-3,4.836978391E-3,5.508737718E-3
8.901595000E0,-2.668465022E-3,-2.499856055E-3,1.724874601E-3,4.042917048E-3
8.911552000E0,1.373148290E-3,4.541222006E-4,2.141391858E-3,2.584051527E-3
8.921509000E0,5.732756108E-6,1.282806508E-3,1.355240121E-3,1.866092492E-3
8.931466000E0,1.810557093E-3,5.493722856E-4,4.469009116E-3,4.853037129E-3
8.941423000E0,-1.211547526E-3,-1.483174972E-3,4.255007952E-3,4.666127739E-3
8.951380000E0,7.890191628E-4,1.014070585E-3,5.137048662E-3,5.295295964E-3
8.961337000E0,7.383027114E-4,-7.725926116E-4,3.420067951E-3,3.583134804E-3
8.971294000E0,-9.117918089E-4,-6.857728586E-4,5.320498720E-3,5.441447909E-3
8.981251000E0,-9.423564188E-5,3.009503707E-4,3.235712647E-3,3.251044112E-3
8.991208000E0,2.146548126E-3,4.335753620E-4,6.174776703E-3,6.551604672E-3
9.001165000E0,8.285435615E-4,2.048436552E-3,5.903119221E-3,6.303125676E-3
9.011121000E0,-1.954193460E-3,-3.207111731E-4,2.110248432E-3,2.893937832E-3
9.021078000E0,3.063200507E-3,4.459004849E-4,5.780052394E-3,6.556754553E-3
9.031035000E0,-5.067668390E-4,-9.586503729E-4,5.763810128E-3,5.864923730E-3
9.040992000E0,2.955491887E-3,1.900570467E-3,5.665920675E-3,6.667065133E-3
9.050949000E0,-2.656321041E-3,1.038772054E-3,2.875193954E-3,4.049917175E-3
9.060906000E0,-1.957157394E-3,1.405042596E-3,3.150247037E-3,3.965938244E-3
9.070863000E0,1.355548506E-3,-2.378616482E-4,3.999993205E-4,1.433209465E-3
9.080820000E0,1.175583107E-3,-2.386571839E-3,1.391747966E-3,3.002446201E-3
9.090777000E0,6.546687800E-4,8.688755333E-4,3.706300631E-3,3.862667507E-3
9.100734000E0,2.793345833E-3,-9.230887517E-4,3.667870536E-3,4.701930248E-3
9.110691000E0,2.770442516E-3,1.525155269E-3,6.544886157E-3,7.268905360E-3
9.120648000E0,2.340479987E-4,1.088544726E-3,4.851853475E-3,4.977970493E-3
9.130605000E0,1.753913937E-3,-2.619447187E-4,4.395121709E-3,4.739401225E-3
9.140562000E0,3.762664273E-4,1.147828065E-3,4.126535729E-3,4.299695665E-3
9.150518000E0,1.959515736E-3,2.823490649E-5,3.912417218E-3,4.375786514E-3
9.160475000E0,-6.171546411E-4,2.294297330E-3,-1.803357154E-4,2.382687781E-3
9.170432000E0,1.059837872E-3,-7.387762889E-4,3.706814721E-3,3.925496414E-3
9.180389000E0,8.195129922E-4,-2.346066758E-4,3.725081682E-3,3.821370876E-3
9.190346000E0,1.887174207E-3,-1.224503852E-3,2.612143755E-3,3.447336823E-3
9.200303000E0,-1.607855549E-3,-3.657494672E-3,4.865735769E-3,6.295859855E-3
9.210260000E0,-1.753264107E-3,4.059560597E-4,1.697640866E-3,2.474008864E-3
9.220217000E0,-1.467289403E-4,1.554496586E-3,5.781862885E-3,5.988983840E-3
9.230174000E0,-7.033296861E-4,7.824460045E-4,4.471320659E-3,4.593430399E-3
9.240131000E0,1.030037412E-3,-8.647181094E-4,5.810774863E-3,5.964379179E-3
9.250088000E0,-7.066098042E-4,1.645577140E-3,5.083199590E-3,5.389447060E-3
9.260045000E0,-2.907234477E-3,-1.205949113E-3,1.026302204E-2,1.073480074E-2
9.270002000E0,5.997484550E-6,-3.055352718E-4,7.549792528E-3,7.555974788E-3
9.279959000E0,4.930373980E-4,3.733914346E-4,8.285662159E-3,8.308712563E-3
9.289916000E0,1.155099366E-3,3.222174942E-3,4.756705835E-3,5.860282955E-3
9.299872000E0,1.227740664E-3,4.658652470E-4,1.935977489E-3,2.339313233E-3
9.309829000E0,8.977204561E-5,3.949366510E-5,-5.221217871E-4,5.312531697E-4
9.319786000E0,-2.804638352E-4,2.795495093E-4,5.983058363E-4,7.174801494E-4
9.329743000E0,7.363309851E-4,1.645004377E-4,2.895815298E-3,2.992488923E-3
9.339699667E0,1.587652368E-3,-1.208567992E-4,4.873272032E-3,5.126794974E-3
9.349656667E0,2.910444513E-3,1.473044977E-3,4.518005997E-3,5.572515317E-3
9.359613667E0,-1.309170155E-3,-4.981225356E-4,4.186080769E-3,4.414218476E-3
9.369570667E0,1.399264671E-3,-1.796414144E-3,2.923475578E-3,3.705638252E-3
9.379527667E0,7.818930317E-4,1.490123570E-3,3.764890134E-3,4.123860169E-3
9.389484667E0,1.093482831E-3,-1.450272277E-3,3.818757832E-4,1.856023570E-3
9.399441667E0,2.232516883E-3,1.499567181E-3,6.513670087E-4,2.767148775E-3
9.409398667E0,-1.627735095E-3,-5.100537091E-4,2.424232662E-3,2.964216646E-3
9.419355667E0,9.869623464E-4,-9.373808280E-4,2.584643662E-4,1.385489559E-3
9.429312667E0,-3.524965374E-3,-7.411055267E-4,1.199804246E-4,3.604027413E-3
9.439268667E0,-1.501667779E-3,-2.470863983E-3,-3.701169044E-4,2.914989102E-3
9.449225667E0,2.866449067E-3,1.952266321E-4,5.823863670E-3,6.493999672E-3
9.459182667E0,2.815366024E-4,1.300939359E-3,4.235483706E-3,4.439710384E-3
9.469139667E0,-4.074329510E-3,2.012004144E-3,4.111114889E-3,6.127771803E-3
9.479096667E0,-1.916112378E-4,-2.459779382E-3,2.797611058E-3,3.730128296E-3
9.489053667E0,-2.339450410E-3,1.852943562E-3,7.771864533E-3,8.325161043E-3
9.499010667E0,1.139365602E-3,-1.240068115E-3,6.184885278E-3,6.410049049E-3
9.508967667E0,2.024655696E-4,2.584763803E-3,6.394477561E-3,6.900097065E-3
9.518924667E0,1.001308206E-3,1.446401700E-3,4.148170352E-3,4.505775546E-3
9.528881667E0,-2.055468038E-3,4.261443391E-4,7.800962776E-3,8.078463225E-3
9.538838667E0,-6.713417824E-4,-3.739260137E-4,2.852421254E-3,2.954120421E-3
9.548795667E0,-7.443123031E-4,-2.365970984E-3,4.269488156E-3,4.937646060E-3
9.558752667E0,2.501814160E-4,3.111464903E-4,2.677593380E-3,2.707195817E-3
9.568709667E0,-4.470341373E-4,3.984980285E-4,6.261412054E-3,6.289985780E-3
9.578665667E0,-1.596377697E-4,-8.057467639E-4,5.932372063E-3,5.988969057E-3
9.588622667E0,-1.528502442E-3,-2.150109969E-3,4.161637276E-3,4.927323555E-3
9.598579667E0,-2.580477856E-3,1.298855990E-3,4.228707403E-3,5.121314201E-3
9.608536667E0,-2.927221358E-3,2.132957801E-3,2.305906266E-3,4.293639199E-3
9.618493667E0,1.595789799E-4,-4.323329777E-4,1.146793365E-3,1.235925676E-3
9.628450667E0,-8.811843581E-4,5.714120343E-4,1.509781927E-3,1.839140846E-3
9.638407667E0,-1.058126101E-3,-1.626358368E-3,2.519551665E-3,3.180064933E-3
9.648364667E0,1.022068900E-3,-2.326503396E-3,3.596000373E-3,4.403233082E-3
9.658321667E0,1.236328855E-3,-6.209630519E-4,4.183787853E-3,4.406606965E-3
9.668278667E0,-1.704866067E-3,2.519969828E-3,5.738805979E-3,6.495437654E-3
9.678235667E0,3.705073614E-4,-1.225220039E-3,4.895735532E-3,5.060302980E-3
9.688192667E0,-2.803693060E-4,2.943425439E-3,6.757285446E-3,7.375857026E-3
9.698149667E0,-2.446090104E-3,5.874512717E-4,1.985587180E-3,3.204842000E-3
9.708106667E0,5.267966771E-4,-8.016536012E-4,2.813830972E-3,2.972845097E-3
9.718062667E0,-1.851102803E-3,-2.929270267E-4,1.688636839E-3,2.522673622E-3
9.728019667E0,-1.581058372E-3,-1.838892698E-3,-1.384383067E-3,2.792452042E-3
9.737976667E0,1.134858700E-3,1.285920851E-3,1.570921391E-3,2.325788193E-3
9.747933667E0,-2.401312813E-4,-2.313608304E-3,3.844995052E-3,4.493821688E-3
9.757890667E0,-1.662161201E-3,2.810433507E-4,6.479091942E-3,6.694803778E-3
9.767847667E0,-4.535610788E-5,-6.832871586E-4,6.136875600E-3,6.174964020E-3
9.777804667E0,-6.362833083E-4,8.812854066E-4,5.571540445E-3,5.676582013E-3
9.787761667E0,1.690786798E-3,-1.540593803E-3,3.484155983E-3,4.167917006E-3
9.797718667E0,7.273022784E-4,1.007833518E-3,3.949094564E-3,4.140053729E-3
9.807675667E0,3.653786844E-4,3.881165758E-4,1.630548388E-3,1.715466148E-3
9.817632667E0,-4.875799641E-5,3.007790074E-4,3.975223750E-3,3.986884650E-3
9.827589667E0,-1.177139347E-3,5.852049217E-4,5.680445582E-3,5.830573201E-3
9.837546667E0,-7.183745038E-4,1.101581380E-3,4.128955305E-3,4.333337671E-3
9.847503667E0,-8.145147003E-4,5.231434479E-4,7.668562233E-3,7.729421711E-3
9.857459667E0,-1.073514810E-3,-1.299703494E-3,6.696771830E-3,6.905679993E-3
9.867416667E0,6.605172530E-5,-2.461569384E-4,4.436813295E-3,4.444127393E-3
9.877373667E0,-1.283129212E-3,-1.003806479E-3,3.359951079E-3,3.734075424E-3
9.887330667E0,1.986966236E-3,-9.593460709E-5,4.937499762E-5,1.989893505E-3
9.897287667E0,-2.949420130E-3,1.588044688E-4,2.125918865E-3,3.639207192E-3
9.907244667E0,-7.571058813E-4,3.819772974E-4,2.588775009E-3,2.724127754E-3
9.917201667E0,5.074077053E-4,-6.853025407E-4,2.606704831E-3,2.742628708E-3
9.927158667E0,-8.834153414E-5,8.050026372E-4,5.512747914E-3,5.571913767E-3
9.937115667E0,2.011727775E-4,5.709538236E-4,9.009413421E-3,9.029728066E-3
9.947072667E0,7.029123371E-4,-1.504447311E-3,5.771275610E-3,6.005420021E-3
9.957029667E0,-1.957840985E-3,-1.325967722E-3,4.273418337E-3,4.883997953E-3
9.966986667E0,1.155926846E-3,-2.594697289E-3,2.042755485E-3,3.498781340E-3
9.976943667E0,-2.801667200E-3,-1.594605856E-3,-6.321314722E-4,3.285071861E-3
9.986900667E0,-2.664248226E-3,-4.052380100E-4,9.384751320E-5,2.696524395E-3
9.996857667E0,-6.344956346E-4,6.702654064E-4,3.060914576E-3,3.197035888E-3
1.000681367E1,-2.072336152E-3,-3.081802279E-4,4.330445081E-3,4.810645152E-3
1.001677067E1,9.618102340E-4,-1.525762491E-3,1.870311797E-3,2.598287190E-3
1.002672767E1,-5.737685133E-4,-2.001132816E-5,6.228305399E-3,6.254710138E-3
1.003668467E1,4.606941948E-4,9.812787175E-5,5.355872214E-3,5.376544931E-3
1.004664167E1,-1.359310001E-3,-8.997581899E-4,5.274910480E-3,5.521047822E-3
1.005659867E1,-2.019573469E-3,3.561320715E-3,2.944838256E-3,5.043188930E-3
1.006655567E1,-1.102380687E-3,2.434803173E-3,2.455618232E-3,3.629541372E-3
1.007651267E1,-1.204371452E-3,1.630963758E-3,1.684024930E-3,2.635620105E-3
1.008646967E1,-3.045414574E-3,6.719594821E-4,6.173849106E-3,6.916826748E-3
1.009642667E1,-3.749618772E-4,5.919337273E-4,5.659673363E-3,5.702883878E-3
1.010638367E1,-1.407735748E-3,-7.463051006E-4,5.591496825E-3,5.814080150E-3
1.011634067E1,1.053378917E-3,-8.456883952E-4,5.280714482E-3,5.450756044E-3
1.012629767E1,-2.542953705E-3,-3.209244460E-5,6.768357009E-3,7.230373439E-3
1.013625467E1,-3.532976843E-4,-4.796190187E-4,1.810081303E-3,1.905583370E-3
1.014621067E1,2.251007594E-3,1.336390153E-3,-1.222459599E-3,2.889183501E-3
1.015616767E1,2.750427229E-4,-1.355157234E-3,1.742143184E-3,2.224221774E-3
1.016612467E1,-7.558669895E-4,-4.544761032E-4,3.815945238E-3,3.916544586E-3
1.017608167E1,-1.835966948E-3,1.616170630E-3,3.663949668E-3,4.405372778E-3
1.018603867E1,-1.482032938E-3,-3.543021157E-4,7.350828499E-3,7.507105383E-3
1.019599567E1,8.689996321E-4,-1.118329354E-3,4.082605243E-3,4.321282966E-3
1.020595267E1,8.133396041E-4,-1.570533961E-3,3.666352481E-3,4.070655813E-3
1.021590967E1,1.180511899E-3,-1.126016490E-3,3.431681544E-3,3.799731530E-3
1.022586667E1,7.426883094E-4,1.570167020E-3,2.981606871E-3,3.450650653E-3
1.023582367E1,9.080865420E-4,-4.475070164E-4,4.611197859E-3,4.721019953E-3
1.024578067E1,7.395084249E-4,-2.140086144E-5,1.420464367E-3,1.601577261E-3
1.025573767E1,-7.690554485E-4,5.104821175E-4,2.794686705E-3,2.943180602E-3
1.026569467E1,1.196357422E-3,4.576053470E-5,5.052782595E-3,5.192684957E-3
1.027565167E1,-6.958786398E-4,-1.181280240E-4,6.160274148E-3,6.200578916E-3
1.028560767E1,-2.824543277E-3,1.548744738E-3,7.871888578E-3,8.505485569E-3
1.029556467E1,-1.758628991E-3,2.096127719E-4,3.014251590E-3,3.496058650E-3
1.030552167E1,-1.590317115E-3,-1.051660627E-3,1.868292689E-3,2.669384981E-3
1.031547867E1,6.446097977E-4,-8.229790255E-4,-5.869548768E-4,1.198887941E-3
1.032543567E1,-1.213154756E-4,-1.430978999E-3,1.725468785E-3,2.244918900E-3
1.033539267E1,1.850028639E-3,-1.300483011E-3,3.184314817E-3,3.905601475E-3
1.034534963E1,1.041759271E-3,-2.224866301E-3,5.527898669E-3,6.049211199E-3
1.035530663E1,-3.758487292E-4,1.006847247E-3,4.913210869E-3,5.029378161E-3
1.036526363E1,-3.609349951E-4,-1.483474858E-3,5.268745124E-3,5.485494227E-3
1.037522062E1,6.806190358E-4,-1.426812261E-3,5.274891853E-3,5.506679541E-3
1.038517763E1,6.212304579E-4,1.595609821E-3,3.497231752E-3,3.893909078E-3
1.039513462E1,-1.539450604E-3,5.853725597E-4,2.767413855E-3,3.220426779E-3
1.040509163E1,6.004376337E-5,2.548741177E-4,2.356752753E-3,2.371254860E-3
1.041504863E1,6.776106311E-4,4.409821704E-4,1.822873950E-3,1.994114059E-3
1.042500563E1,-5.873907357E-4,-4.399912432E-4,4.089489579E-3,4.154821920E-3
1.043496163E1,2.063288121E-3,-1.004068181E-3,2.107854933E-3,3.115824642E-3
1.044491863E1,8.914971258E-4,7.983762771E-5,3.893241286E-3,3.994805237E-3
1.045487563E1,-1.130318735E-3,-1.793293282E-3,3.743696958E-3,4.302184114E-3
1.046483262E1,2.191442065E-3,-4.366785288E-4,5.335468799E-3,5.784490796E-3
1.047478963E1,6.842887960E-4,-5.771387368E-4,2.032995224E-3,2.221353159E-3
1.048474662E1,8.017341606E-4,-4.237405956E-4,2.344582230E-3,2.513841600E-3
1.049470363E1,-1.777131110E-4,5.408488214E-4,3.608070314E-3,3.652707323E-3
1.050466062E1,-6.291188765E-4,-3.979159519E-4,1.983541995E-3,2.118623731E-3
1.051461763E1,1.812836621E-3,-1.137670130E-3,1.969855279E-3,2.908779771E-3
1.052457463E1,1.245050691E-3,1.734308898E-5,3.698248416E-3,3.902242093E-3
1.053453163E1,-2.273588208E-3,-1.507736742E-4,5.440041423E-5,2.279231328E-3
1.054448863E1,4.545538686E-4,-7.585072890E-4,3.511451185E-3,3.621082980E-3
1.055444562E1,-1.264561433E-4,2.683382481E-4,1.225456595E-3,1.260849094E-3
1.056440263E1,1.920715673E-3,-2.525850199E-3,3.823634237E-3,4.968827498E-3
1.057435862E1,-1.802607439E-3,-1.720183529E-3,4.778999835E-3,5.389551408E-3
1.058431563E1,-2.851626603E-3,-4.682317376E-4,3.253273666E-3,4.351414114E-3
1.059427262E1,-1.958208624E-3,1.140278764E-3,3.937456757E-3,4.542948645E-3
1.060422963E1,-7.470031269E-4,1.072101295E-3,3.196563572E-3,3.453322100E-3
1.061418663E1,-1.907819882E-3,-1.386711374E-4,2.849198878E-3,3.431754745E-3
1.062414363E1,8.293768624E-4,1.069338061E-3,3.224704415E-3,3.497151474E-3
1.063410063E1,-1.504823333E-3,-2.507410012E-3,2.170771360E-3,3.641956415E-3
1.064405762E1,-2.707145177E-4,8.670808747E-4,1.249048859E-3,1.544421783E-3
1.065401463E1,-4.598302767E-4,1.553134993E-3,2.446290106E-3,2.933940604E-3
1.066397162E1,-1.534415642E-3,-3.579491749E-4,7.622942328E-3,7.784074044E-3
1.067392863E1,-4.662382416E-4,-1.083198003E-3,6.823502481E-3,6.924657545E-3
1.068388562E1,3.723913105E-4,3.026891500E-5,2.133678645E-3,2.166143129E-3
1.069384263E1,1.123417169E-3,2.251676284E-3,1.145578921E-3,2.764862254E-3
1.070379963E1,-9.170968551E-4,-7.595596835E-4,2.822037786E-3,3.062987891E-3
1.071375663E1,-2.913073869E-3,-2.292882651E-3,3.440864384E-4,3.723131168E-3
1.072371263E1,-9.101105388E-4,-1.117531210E-4,3.254923970E-3,3.381614999E-3
1.073366963E1,1.005582511E-3,-1.375622116E-3,3.686103970E-3,4.060898284E-3
1.074362663E1,1.780562336E-3,2.225404605E-4,3.343354911E-3,3.794462880E-3
1.075358362E1,-6.124610081E-6,-9.532188997E-4,3.821324557E-3,3.938424197E-3
1.076354063E1,2.022405155E-3,4.635825753E-4,1.140054315E-3,2.367436431E-3
1.077349762E1,-4.486616235E-4,9.204279631E-4,1.237504184E-4,1.031406348E-3
1.078345463E1,-2.514475491E-3,2.722589299E-3,2.419661731E-3,4.426041389E-3
1.079341162E1,-2.716159448E-3,-1.741960645E-3,3.522645682E-3,4.777131109E-3
1.080336863E1,-6.000113208E-4,1.335854642E-3,3.914661705E-3,4.179604943E-3
1.081332563E1,-1.307455823E-4,-1.002080739E-3,6.077948958E-3,6.161389758E-3
1.082328263E1,-9.089212399E-4,-1.122721471E-3,3.516256809E-3,3.801408064E-3
1.083323963E1,-3.617617767E-4,-2.523173578E-3,4.619099200E-3,5.275732547E-3
1.084319662E1,4.323929315E-4,-1.176146790E-3,7.479265332E-4,1.459341981E-3
1.085315363E1,-4.300265573E-5,-3.609443083E-4,5.452968180E-4,6.553462000E-4
1.086310962E1,-9.982786141E-4,1.089946367E-3,3.380496055E-3,3.689484632E-3
1.087306663E1,-2.667028457E-4,2.663182095E-4,6.317891181E-3,6.329123538E-3
1.088302362E1,7.418362657E-4,-7.845656946E-4,4.304539412E-3,4.437896340E-3
1.089298063E1,-1.279295888E-3,3.737444058E-4,4.840508103E-3,5.020637564E-3
1.090293763E1,3.916797694E-3,-2.076364122E-3,4.282042384E-3,6.163479466E-3
1.091289463E1,1.475760364E-3,1.511689276E-3,2.941217273E-3,3.621302551E-3
1.092285163E1,-3.924472257E-4,-1.244949177E-3,1.298848540E-3,1.841445304E-3
1.093280862E1,1.202389132E-3,-8.900463581E-5,1.205086708E-3,1.704668714E-3
1.094276563E1,-1.180062536E-4,-6.474694237E-4,5.373198539E-3,5.413354290E-3
1.095272262E1,-6.898422725E-5,1.902710646E-4,5.294755101E-3,5.298621848E-3
1.096267963E1,-2.380949445E-4,1.846775413E-4,5.308073014E-3,5.316618673E-3
1.097263662E1,1.440105261E-3,1.512406394E-3,4.544928670E-4,2.137250577E-3
1.098259363E1,-1.585511956E-3,5.363579839E-4,1.113623381E-3,2.010394261E-3
1.099255063E1,-8.221224416E-4,1.586852595E-3,1.004729420E-3,2.050236005E-3
1.100250763E1,2.006953582E-3,-8.334284648E-4,3.457497805E-3,4.083718497E-3
1.101246463E1,-6.621263456E-4,-7.918477058E-4,5.843587220E-3,5.934049686E-3
1.102242063E1,1.644970151E-3,-4.222011194E-4,2.066690475E-3,2.674956093E-3
1.103237763E1,-5.162530579E-4,1.511285082E-4,6.535299122E-3,6.557399764E-3
1.104233462E1,5.037377123E-4,9.127920493E-4,3.131512552E-3,3.300501761E-3
1.105229163E1,-5.981361028E-4,-2.950113267E-4,3.785409033E-3,3.843711752E-3
1.106224862E1,4.327736096E-4,-5.240431055E-4,1.747556031E-3,1.875064333E-3
1.107220563E1,-1.329170307E-3,-1.442435198E-3,2.274639904E-3,3.003547852E-3
1.108216262E1,-9.506149217E-5,-4.506744444E-4,3.601960838E-3,3.631289856E-3
1.109211963E1,9.276578203E-4,6.193872541E-4,5.082543939E-3,5.203502906E-3
1.110207663E1,3.279761644E-3,-2.308225259E-3,6.506267935E-3,7.643053234E-3
1.111203363E1,3.009302309E-4,-6.672330201E-4,4.118315876E-3,4.182856029E-3
1.112199063E1,-1.422401285E-3,-3.726873547E-4,2.591259778E-3,2.979387272E-3
1.113194762E1,-5.629931111E-4,-3.770785406E-4,1.240257174E-3,1.413289541E-3
1.114190463E1,-1.614409033E-3,-1.358720474E-3,9.425170720E-4,2.311011961E-3
1.115186162E1,4.999747034E-4,-1.255989075E-3,4.477728158E-3,4.677342485E-3
1.116181763E1,-4.117959179E-5,1.233799383E-3,5.380008370E-3,5.519823071E-3
1.117177462E1,3.419183195E-4,1.521442086E-3,8.202448487E-3,8.349362571E-3
1.118173163E1,1.783487387E-3,1.041078940E-4,8.143328130E-3,8.336993388E-3
1.119168863E1,-8.134283125E-4,-2.116831020E-4,2.178497612E-3,2.335021885E-3
1.120164563E1,1.530685928E-3,-3.357864916E-4,1.151315868E-3,1.944551415E-3
1.121160263E1,4.498008639E-5,1.461486332E-3,-3.179311752E-4,1.496344125E-3
1.122155962E1,2.391170710E-7,6.151339039E-4,-7.919743657E-4,1.002802659E-3
1.123151663E1,-4.249238409E-4,-1.395201311E-3,2.835031599E-3,3.188189319E-3
1.124147362E1,9.884156752E-4,-7.927948609E-4,3.657948226E-3,3.871185149E-3
1.125143063E1,-1.745424001E-3,3.404375166E-4,4.498127848E-3,4.836895366E-3
1.126138762E1,-1.578710042E-3,-6.417362019E-4,4.888013005E-3,5.176564680E-3
1.127134463E1,2.822192386E-3,-5.411431193E-4,3.864668310E-3,4.815938837E-3
1.128130163E1,1.164907240E-3,-1.001337543E-3,3.942962736E-3,4.231623907E-3
1.129125863E1,-7.784990594E-4,-1.185759902E-5,4.188027233E-3,4.259785616E-3
1.130121563E1,7.743900642E-4,1.532509923E-3,6.291393191E-3,6.521494837E-3
1.131117163E1,-1.905756071E-4,1.945504919E-4,3.033250570E-3,3.045452015E-3
1.132112863E1,-7.844604552E-4,8.012186736E-4,4.474285990E-3,4.612652674E-3
1.133108562E1,-1.215142896E-3,2.283370122E-4,4.534933716E-3,4.700461026E-3
1.134104229E1,-8.673339617E-4,4.022419453E-4,3.332644701E-4,1.012488020E-3
1.135099929E1,5.041360855E-4,-2.465927973E-4,7.930733263E-4,9.715587998E-4
1.136095629E1,-1.149953343E-3,-2.384577878E-3,3.221075982E-3,4.169404613E-3
1.137091329E1,4.506397527E-3,-1.904312521E-4,3.937013447E-3,5.986982346E-3
1.138087029E1,-4.425547086E-4,-9.433068335E-4,5.885384977E-3,5.976908798E-3
1.139082729E1,7.411222905E-4,-3.320006654E-4,3.180839121E-3,3.282868290E-3
1.140078429E1,-2.979846438E-3,-1.369567588E-3,3.784313798E-3,5.007617307E-3
1.141074129E1,2.101076534E-4,2.189073712E-5,2.709589899E-3,2.717811960E-3
1.142069829E1,-7.286565378E-4,-1.174135134E-3,4.032924771E-4,1.439506334E-3
1.143065529E1,1.074987813E-3,-3.786562011E-4,2.400327474E-3,2.657169791E-3
1.144061229E1,-3.801633138E-4,3.726221621E-4,2.204850316E-3,2.268201124E-3
1.145056929E1,2.074821619E-3,-1.492913812E-3,5.859464407E-3,6.392730210E-3
1.146052529E1,6.194040179E-4,-8.636089042E-4,5.998216569E-3,6.091640476E-3
1.147048229E1,-3.928192891E-4,-2.888294868E-3,2.936724573E-3,4.137741589E-3
1.148043929E1,-1.015999122E-3,-2.629505470E-4,9.279027581E-4,1.400857143E-3
1.149039629E1,1.884650206E-3,-3.502657637E-4,-4.258487374E-3,4.670043599E-3
1.150035329E1,-1.788115129E-3,-6.717164069E-5,2.135496587E-3,2.786074912E-3
1.151031029E1,2.188918414E-3,-1.124913804E-3,3.488317132E-3,4.269092562E-3
1.152026729E1,-1.289702486E-3,-2.526268363E-3,4.290461540E-3,5.143289276E-3
1.153022429E1,2.016259125E-3,1.142593101E-4,3.257974982E-3,3.833113230E-3
1.154018129E1,3.258623881E-3,-5.352860317E-4,9.279772639E-4,3.430204445E-3
1.155013829E1,5.455838982E-4,-6.000138819E-5,2.063617110E-3,2.135363560E-3
1.156009529E1,6.920577725E-4,-9.018266574E-4,-7.356330752E-4,1.354027807E-3
1.157005229E1,-1.856245333E-3,-1.422648318E-3,2.712447196E-3,3.581472430E-3
1.158000929E1,1.148066716E-3,4.942947999E-4,2.331614494E-3,2.645526542E-3
1.158996629E1,-1.188144553E-3,-2.384221181E-3,5.504649132E-3,6.115338109E-3
1.159992329E1,2.353060758E-3,3.625629470E-4,3.865882754E-4,2.412011052E-3
1.160987929E1,-7.619070821E-4,1.112434082E-3,2.771973610E-3,3.082507045E-3
1.161983629E1,-1.288414001E-3,5.433168262E-4,3.693159670E-3,3.949003945E-3
1.162979329E1,-1.420373330E-3,7.882546633E-4,3.465924412E-3,3.827719666E-3
1.163975029E1,1.085927594E-3,8.029015735E-4,4.225991666E-3,4.436540909E-3
1.164970729E1,-1.516303746E-3,-2.536039799E-3,4.307121038E-3,5.223214198E-3
1.165966429E1,1.479752362E-3,-2.949899063E-4,2.644773573E-3,3.044915984E-3
1.166962129E1,9.155443404E-4,1.745196059E-4,2.390287817E-3,2.565570965E-3
1.167957829E1,-1.524177613E-3,1.032323577E-3,3.680590540E-3,4.115283233E-3
1.168953529E1,5.255970173E-4,-2.509880811E-3,3.555048257E-3,4.383391612E-3
1.169949229E1,3.993632272E-4,-1.240085810E-3,3.916174173E-3,4.127193230E-3
1.170944929E1,1.341715921E-3,1.959263347E-3,3.308247775E-3,4.072274280E-3
1.171940629E1,5.986939650E-4,-1.008030027E-3,2.099435776E-3,2.404618385E-3
1.172936329E1,-8.079055697E-4,1.105861738E-3,1.176349819E-3,1.805392060E-3
1.173932029E1,-6.449201610E-4,1.651010476E-3,3.629922867E-3,4.039566515E-3
1.174927629E1,-5.873430055E-4,1.676278189E-4,5.367565900E-3,5.402206455E-3
1.175923329E1,8.627482457E-4,9.002638981E-4,2.729173750E-3,3.000533116E-3
1.176919029E1,2.233972773E-3,-2.717310563E-4,3.354128450E-3,4.039139732E-3
1.177914729E1,-4.888884723E-5,7.748911157E-4,-8.025355637E-4,1.116651106E-3
1.178910429E1,1.452267170E-4,9.468533099E-4,-3.107339144E-4,1.007063829E-3
1.179906129E1,-2.592236269E-3,-2.337256446E-4,1.860007644E-3,3.199053764E-3
1.180901829E1,-1.076662447E-3,-4.337737337E-4,6.138034165E-3,6.246825201E-3
1.181897529E1,1.192883356E-3,2.751592547E-4,8.440338075E-3,8.528656995E-3
1.182893229E1,-2.566218842E-3,1.475702971E-3,7.220908999E-3,7.804146666E-3
1.183888929E1,-9.960189927E-4,-2.923691645E-4,2.210170031E-3,2.441799567E-3
1.184884629E1,-3.020067466E-3,-3.497060388E-4,-3.792569041E-4,3.063810963E-3
1.185880329E1,5.520303966E-4,-2.412590198E-3,2.729520202E-4,2.489946150E-3
1.186876029E1,1.712072757E-3,-2.396883443E-3,2.365276217E-3,3.777667925E-3
1.187871729E1,8.169843350E-4,-4.905927926E-4,2.886455506E-3,3.039699011E-3
1.188867429E1,-7.907329127E-4,-3.258902580E-3,1.976549625E-3,3.892615186E-3
1.189863129E1,1.759945881E-4,-1.246618107E-3,2.823699266E-3,3.091651394E-3
1.190858729E1,1.047954778E-3,-6.143683568E-4,1.896068454E-3,2.251828874E-3
1.191854429E1,3.267708234E-4,1.243719831E-3,-7.039755583E-4,1.466014930E-3
1.192850129E1,1.262653270E-3,-7.957452908E-4,1.688420773E-3,2.253501398E-3
1.193845829E1,-2.095422242E-4,2.737799659E-4,4.362016916E-4,5.559993968E-4
1.194841529E1,4.716864787E-4,2.622921020E-4,4.131391644E-3,4.166495194E-3
1.195837229E1,1.507656183E-3,1.126220450E-4,4.454698414E-3,4.704258586E-3
1.196832929E1,8.541240823E-4,-7.720142603E-4,3.180146217E-3,3.382138958E-3
1.197828629E1,-1.160823740E-3,4.660887644E-4,1.840312034E-3,2.225196367E-3
1.198824329E1,1.196013065E-3,-3.213686869E-3,-2.228397876E-3,4.089497235E-3
1.199820029E1,-4.804467317E-4,8.862493560E-4,1.529321074E-3,1.831690457E-3
1.200815729E1,8.824653924E-5,-7.592467591E-4,3.934383392E-3,4.007944083E-3
1.201811429E1,-1.404189039E-3,-5.856091157E-4,3.515202552E-3,3.830317725E-3
1.202807129E1,7.958686911E-5,3.581820056E-4,4.937864840E-3,4.951478324E-3
1.203802829E1,7.933139568E-4,-5.584778264E-4,4.284854978E-3,4.393316140E-3
1.204798529E1,9.302125545E-4,3.903266042E-5,3.819189966E-3,3.931034335E-3
1.205794129E1,-1.276482595E-3,2.369061112E-4,3.137953579E-3,3.395921817E-3
1.206789829E1,2.271187492E-3,5.847876891E-4,1.612812281E-3,2.846301586E-3
1.207785529E1,-2.777241170E-4,-3.446554765E-4,5.920231342E-4,7.391951529E-4
1.208781229E1,-3.099075984E-4,-1.756757498E-3,3.126326948E-3,3.599466601E-3
1.209776929E1,-8.345504757E-4,-7.949862629E-5,2.601951361E-3,2.733668856E-3
1.210772629E1,-9.561369661E-4,-9.689638391E-4,4.461038858E-3,4.664113690E-3
1.211768329E1,6.065773778E-5,9.426530451E-4,2.297487110E-3,2.484093626E-3
1.212764029E1,-8.120590355E-4,-2.091160975E-3,4.034679383E-3,4.616387313E-3
1.213759729E1,-8.557348046E-4,6.348509341E-4,3.210697323E-3,3.382882656E-3
1.214755429E1,-1.246104948E-4,1.476051286E-3,3.169748932E-3,3.498794573E-3
1.215751129E1,-6.665638648E-4,6.350250915E-4,-6.026178598E-4,1.100323833E-3
1.216746829E1,4.229488550E-4,1.550952904E-3,-2.547204494E-4,1.627643435E-3
1.217742529E1,3.427877091E-4,-1.574652269E-4,2.072349191E-3,2.106402117E-3
1.218738229E1,4.872094141E-4,3.144098446E-4,1.664470881E-3,1.762580460E-3
1.219733929E1,6.794895744E-4,-7.407348603E-4,5.009137094E-3,5.108996833E-3
1.220729529E1,-2.609597985E-3,2.785248682E-3,3.658991307E-3,5.287327231E-3
1.221725229E1,6.506436039E-4,-1.127733849E-3,2.145517617E-3,2.509654674E-3
1.222720929E1,-1.513900701E-3,-2.149017528E-4,-1.526586711E-3,2.160681625E-3
1.223716629E1,-1.226811903E-3,-1.492153853E-3,1.745104790E-3,2.603263585E-3
1.224712329E1,1.840341953E-3,-1.045426354E-3,1.593302935E-3,2.649224228E-3
1.225708029E1,-1.720570726E-3,2.898825333E-4,3.990147263E-3,4.354959321E-3
1.226703729E1,-1.219796250E-3,-4.940619692E-4,4.581674933E-3,4.766942974E-3
1.227699429E1,8.558714762E-4,-2.841904759E-3,4.652515054E-3,5.518589944E-3
1.228695129E1,-1.178425737E-3,4.229350016E-4,3.244739026E-3,3.477914976E-3
1.229690829E1,4.759299336E-4,-2.255449072E-4,-2.495944500E-4,5.828183219E-4
1.230686529E1,1.726394054E-3,-1.157467254E-3,2.887170762E-3,3.557516251E-3
1.231682229E1,-4.765726626E-4,-8.059302345E-4,3.336180001E-3,3.465074609E-3
1.232677929E1,-1.202245709E-3,-1.789154485E-3,2.334512770E-3,3.177486174E-3
1.233673629E1,7.402640767E-4,-8.155023679E-4,2.422131598E-3,2.660781181E-3
1.234669375E1,4.222569987E-4,5.958871916E-4,3.798663616E-3,3.868233161E-3
1.235664975E1,-1.106131123E-3,1.886455342E-3,3.365539014E-4,2.212579569E-3
1.236660675E1,1.551335445E-3,-1.197908074E-3,-4.834681749E-5,1.960602670E-3
1.237656375E1,-2.243136521E-3,1.551805995E-3,1.017715782E-3,2.911272697E-3
1.238652075E1,-5.998162087E-4,-6.850929931E-4,2.369206399E-3,2.538162889E-3
1.239647775E1,1.895033056E-3,3.663226962E-4,4.032883793E-3,4.470961227E-3
1.240643475E1,-6.389128976E-4,-7.166611031E-4,3.723934293E-3,3.845711825E-3
1.241639175E1,6.018537097E-4,1.544629224E-3,5.207583308E-3,5.465073763E-3
1.242634875E1,1.393724233E-6,-1.683335751E-3,-3.905855119E-4,1.728056202E-3
1.243630575E1,-1.076920191E-3,8.037313819E-6,1.751396805E-3,2.056018595E-3
1.244626275E1,-1.527694985E-5,1.119638793E-3,4.702731967E-4,1.214488078E-3
1.245621975E1,-1.290398417E-3,2.013808116E-4,1.626618207E-3,2.086041489E-3
1.246617675E1,-4.440648481E-4,5.290098488E-5,3.663007170E-3,3.690205093E-3
1.247613375E1,4.251907812E-4,-3.578234464E-5,3.883250058E-3,3.906622401E-3
1.248609075E1,-2.343035303E-3,-1.308370382E-3,2.603139728E-3,3.738714208E-3
1.249604775E1,9.896445554E-4,-4.771975800E-4,8.185580373E-4,1.370091653E-3
1.250600375E1,1.838039607E-4,-5.737133324E-5,-1.267500222E-3,1.282042190E-3
1.251596075E1,3.925956553E-4,3.016227856E-4,-9.266138077E-4,1.050581173E-3
1.252591775E1,-8.921527769E-4,1.665502787E-3,3.910899162E-3,4.343382135E-3
1.253587475E1,1.528394409E-3,4.496984184E-5,4.559647292E-3,4.809199017E-3
1.254583175E1,2.333266661E-3,-6.604837254E-4,3.289915621E-3,4.087042556E-3
1.255578875E1,2.083462197E-3,1.965211704E-4,4.765305668E-3,5.204572356E-3
1.256574575E1,-4.141021054E-4,6.313174963E-4,2.268157899E-3,2.390519314E-3
1.257570275E1,1.248509390E-3,1.858768985E-3,8.612088859E-4,2.399057853E-3
1.258565975E1,-4.025329370E-3,-6.309524179E-4,-9.735934436E-4,4.189183892E-3
1.259561675E1,-5.752041470E-4,-4.474604502E-4,-2.158435062E-3,2.278140158E-3
1.260557375E1,4.467936233E-3,2.721384168E-3,1.184653491E-3,5.363934178E-3
1.261553075E1,-3.855506890E-3,1.528820954E-3,1.200899482E-3,4.317914595E-3
1.262548775E1,4.911568249E-4,3.785826266E-6,1.461140811E-3,1.541486889E-3
1.263544475E1,5.566705950E-4,8.021853864E-5,3.404982388E-3,3.451118982E-3
1.264540175E1,2.246955410E-4,-1.015813090E-3,1.678515226E-3,1.974785478E-3
1.265535875E1,4.289600765E-4,1.957340166E-3,1.629244536E-3,2.582561719E-3
1.266531475E1,-1.776081743E-3,-1.797068864E-3,2.016000450E-3,3.232364564E-3
1.267527175E1,-7.275955286E-4,1.881555654E-3,1.471117139E-3,2.496764420E-3
1.268522875E1,-1.457237406E-3,3.555726260E-3,1.877397299E-3,4.276838869E-3
1.269518575E1,6.804820150E-4,-1.073113643E-3,1.032106578E-3,1.637031659E-3
1.270514275E1,4.442712525E-4,1.778668724E-3,-6.587281823E-4,1.948066270E-3
1.271509975E1,-1.039908500E-3,1.001558267E-3,5.785748363E-4,1.555402678E-3
1.272505675E1,1.286122249E-3,2.105869353E-3,1.657705754E-3,2.972672962E-3
1.273501375E1,3.556137672E-4,-1.652743667E-4,1.743193716E-3,1.786757146E-3
1.274497075E1,-6.660781801E-4,-8.238516748E-4,1.085754484E-3,1.516988637E-3
1.275492775E1,2.842636546E-3,-3.905557096E-4,2.116132528E-3,3.565267615E-3
1.276488475E1,2.245680895E-3,-9.878240526E-4,2.501431853E-3,3.503718076E-3
1.277484175E1,3.445168491E-3,4.777135327E-4,1.982647926E-3,4.003534557E-3
1.278479875E1,1.044564880E-3,2.340770327E-3,2.792581916E-3,3.790624654E-3
1.279475575E1,6.586728850E-4,2.522131428E-3,5.114056170E-3,5.740084269E-3
1.280471275E1,7.532304153E-6,2.670733258E-3,8.264482021E-4,2.795691239E-3
1.281466975E1,7.963605458E-4,1.791889779E-3,1.235242933E-3,2.317516818E-3
1.282462575E1,6.755627692E-5,3.103104420E-3,2.171169966E-3,3.787848983E-3
1.283458275E1,1.273968257E-3,-9.105456993E-4,-8.856058121E-4,1.798995899E-3
1.284453975E1,-2.458393574E-4,5.677537993E-4,1.147761941E-5,6.187997269E-4
1.285449675E1,-1.715372782E-4,-7.680878043E-4,1.231469214E-3,1.461471976E-3
1.286445375E1,-6.633016746E-4,8.289879188E-4,9.468309581E-4,1.422560700E-3
1.287441075E1,7.889199769E-4,1.770415343E-3,3.178294748E-3,3.722676822E-3
1.288436775E1,-7.488874253E-4,4.141069949E-4,2.913501114E-3,3.036577962E-3
1.289432475E1,-1.125724753E-3,-1.082057133E-3,2.261292189E-3,2.748007683E-3
1.290428175E1,3.126830328E-3,-1.352272928E-3,2.610199153E-3,4.291718723E-3
1.291423875E1,2.237867331E-3,1.580932178E-3,9.353347123E-4,2.895211178E-3
1.292419575E1,1.131264726E-3,-1.490898430E-4,-2.774186432E-4,1.174286492E-3
1.293415275E1,4.731976660E-4,-8.835894987E-4,3.371912986E-3,3.517732738E-3
1.294410975E1,8.392264135E-5,1.838812605E-4,-5.919933319E-4,6.255489051E-4
1.295406675E1,3.356148722E-3,-4.882998765E-4,2.714585513E-3,4.344093176E-3
1.296402375E1,1.135090250E-3,-6.357291713E-4,-1.274552196E-3,1.821281075E-3
1.297397975E1,8.453383343E-4,-1.912714913E-3,8.069761097E-4,2.241491843E-3
1.298393675E1,-1.236675307E-4,8.959826082E-4,2.388563007E-3,2.554077472E-3
1.299389375E1,1.141067711E-3,2.735162154E-3,1.888420433E-3,3.514154131E-3
1.300385075E1,7.998133078E-4,-2.027635463E-3,2.200040966E-3,3.096964183E-3
1.301380775E1,-1.170925796E-3,-1.381286420E-3,-1.075379550E-3,2.106053316E-3
1.302376475E1,2.757486422E-3,-1.210225746E-4,1.016870141E-3,2.941496679E-3
1.303372175E1,2.543812152E-4,3.770180047E-5,6.372481585E-5,2.649378806E-4
1.304367875E1,-6.089897361E-4,-1.816889271E-4,-6.805546582E-4,9.311466091E-4
1.305363575E1,7.683972362E-4,4.622628912E-4,3.593817353E-3,3.704003842E-3
1.306359275E1,1.712645637E-3,6.377594545E-4,2.767674625E-3,3.316611980E-3
1.307354975E1,1.391468453E-3,1.525390893E-3,3.288324922E-3,3.882793148E-3
1.308350675E1,2.288655611E-3,1.405781135E-3,1.923780888E-3,3.303800540E-3
1.309346375E1,-9.753671475E-5,-3.071641549E-4,1.277964562E-3,1.317974450E-3
1.310342075E1,-1.285491046E-3,-8.828165010E-4,7.584542036E-4,1.734100626E-3
1.311337775E1,1.998186577E-3,2.247923985E-4,2.544905990E-3,3.243428390E-3
1.312333475E1,1.040057512E-3,1.343074255E-3,2.161823213E-4,1.712396823E-3
1.313329075E1,-1.531757182E-3,1.872628927E-4,2.484932542E-3,2.925104646E-3
1.314324775E1,1.469681272E-3,1.219970174E-3,4.866447300E-3,5.227867595E-3
1.315320475E1,1.559546217E-5,-1.067951322E-3,1.784637570E-3,2.079830402E-3
1.316316175E1,-7.104959805E-4,9.387116879E-4,1.584060490E-3,1.973634163E-3
1.317311875E1,1.766029745E-4,5.568144843E-4,2.752922475E-3,2.814216256E-3
1.318307575E1,-1.857387368E-3,-5.384404212E-4,2.257414162E-4,1.946988728E-3
1.319303275E1,-1.612200867E-4,1.310326159E-3,1.082569361E-5,1.320251398E-3
1.320298975E1,-1.600223593E-3,1.010646112E-3,3.742322326E-3,4.193697355E-3
1.321294675E1,-1.490670256E-4,1.504449174E-4,3.035783768E-3,3.043162456E-3
1.322290375E1,-1.123662340E-3,-9.125676006E-4,3.302402794E-3,3.605726126E-3
1.323286075E1,-8.794504683E-4,1.726699993E-4,1.759100705E-3,1.974255137E-3
1.324281775E1,-2.979419660E-4,-3.215679899E-4,3.853283823E-3,3.878140225E-3
1.325277475E1,-6.196517497E-4,-6.483374164E-4,1.692928374E-3,1.915806925E-3
1.326273175E1,-3.875165712E-4,3.192499280E-4,2.606250346E-3,2.654172277E-3
1.327268875E1,9.959957097E-4,3.890246153E-4,4.901029170E-4,1.176243374E-3
1.328264475E1,-9.272724856E-4,1.061507501E-3,1.160725951E-4,1.414250785E-3
1.329260175E1,1.155852107E-3,4.324689507E-4,2.822909504E-3,3.080883243E-3
1.330255875E1,1.503911219E-3,1.310334541E-3,8.545778692E-4,2.170029700E-3
1.331251575E1,-6.993219722E-4,-3.594681621E-4,6.078902632E-3,6.129545317E-3
1.332247275E1,5.763403606E-4,7.467819378E-4,3.045849502E-3,3.188581293E-3
1.333242975E1,-2.141681733E-3,2.413121983E-3,5.443230271E-3,6.327615201E-3
1.334238663E1,-3.716591746E-4,2.153156325E-3,1.251511276E-3,2.518033593E-3
1.335234362E1,7.766957860E-4,-8.647376671E-4,-3.549084067E-4,1.215313768E-3
1.336230063E1,1.952276798E-3,2.606988885E-3,1.855559647E-3,3.748449992E-3
1.337225763E1,1.070237951E-3,4.793899134E-4,3.052383661E-3,3.269903665E-3
1.338221463E1,-4.197419621E-4,1.512859948E-3,3.702517599E-3,4.021637118E-3
1.339217163E1,1.697737491E-3,1.661464572E-3,4.792921245E-4,2.423323761E-3
1.340212862E1,-9.503315669E-4,-1.254899427E-3,1.875750721E-3,2.448743234E-3
1.341208563E1,-2.374856500E-3,2.032773569E-3,2.464842051E-3,3.980899159E-3
1.342204262E1,-7.056258619E-5,1.026205719E-3,-3.403052688E-4,1.083459704E-3
1.343199963E1,-4.050554708E-4,-1.159983687E-3,-4.958324134E-4,1.324945988E-3
1.344195562E1,5.964217708E-4,7.429663092E-4,7.158182561E-4,1.191685211E-3
1.345191263E1,8.496884257E-4,-3.071479499E-3,1.792531461E-3,3.656381514E-3
1.346186962E1,2.142671729E-3,1.249714755E-3,3.646105528E-3,4.409865602E-3
1.347182663E1,4.411780974E-4,-4.240823910E-4,-1.411501318E-3,1.538447256E-3
1.348178363E1,5.269640824E-4,1.229933463E-3,1.545865089E-3,2.044535727E-3
1.349174063E1,-4.854495637E-5,1.396114007E-3,2.416186035E-3,2.790957880E-3
1.350169763E1,4.841199145E-3,1.196435653E-3,1.587539911E-3,5.233445366E-3
1.351165462E1,-2.757864771E-3,3.547208384E-3,5.513302982E-3,7.112314334E-3
1.352161163E1,2.133798320E-3,2.284403890E-3,2.745155245E-3,4.160225201E-3
1.353156862E1,-1.206338406E-3,1.070033759E-4,3.825336695E-3,4.012468430E-3
1.354152563E1,-2.790554427E-4,-2.248985693E-3,-2.427075058E-3,3.320617702E-3
1.355148263E1,1.271436922E-3,-9.554885328E-4,8.269026875E-5,1.592591556E-3
1.356143963E1,-2.716576215E-3,6.806859747E-4,1.153349876E-4,2.802930946E-3
1.357139663E1,-1.574612921E-3,1.194143668E-3,3.038685769E-3,3.624775324E-3
1.358135362E1,2.223479329E-3,-9.203236550E-4,2.163738012E-3,3.236142478E-3
1.359131063E1,2.754247282E-3,-7.461532950E-4,2.216469496E-3,3.613220151E-3
1.360126662E1,-1.542957965E-3,2.458209172E-3,3.476660699E-3,4.528871960E-3
1.361122363E1,4.501884803E-3,6.503425539E-6,3.662284464E-3,5.803390093E-3
1.362118062E1,1.916042762E-3,-2.227577381E-3,1.722227782E-3,3.405787631E-3
1.363113763E1,-1.741809072E-3,1.610570587E-3,-5.577057600E-4,2.436980134E-3
1.364109462E1,-3.764147405E-4,1.629600301E-3,-2.711117268E-4,1.694339626E-3
1.365105163E1,-1.632894157E-3,2.546105534E-4,2.417348325E-3,2.928266174E-3
1.366100863E1,-1.657493412E-3,7.395204157E-4,1.995775849E-3,2.697646399E-3
1.367096563E1,1.664533745E-3,8.284701034E-4,2.181399614E-3,2.866276256E-3
1.368092263E1,-3.326898441E-4,1.674448140E-3,1.536827534E-3,2.297019368E-3
1.369087962E1,-1.690102741E-3,1.402272843E-3,3.306496888E-3,3.969349830E-3
1.370083663E1,2.537991153E-3,6.877630949E-4,2.004727721E-3,3.306561719E-3
1.371079362E1,5.113255465E-4,-3.093238920E-4,-1.465715468E-4,6.153196755E-4
1.372075063E1,-2.220713068E-3,6.371689960E-4,-9.570643306E-4,2.500704499E-3
1.373070762E1,1.380945789E-3,1.080319285E-3,-2.404078841E-4,1.769716638E-3
1.374066463E1,2.308690222E-3,3.747439943E-3,1.347370446E-3,4.603125437E-3
1.375062163E1,-9.683296084E-4,1.260046847E-3,3.239177167E-4,1.621820882E-3
1.376057763E1,3.574466100E-4,1.204037108E-3,4.796162248E-4,1.344434884E-3
1.377053463E1,-7.166061550E-4,-1.059714705E-4,2.406679094E-3,2.513336148E-3
1.378049162E1,8.427924477E-4,1.618126407E-4,2.362765372E-4,8.901174319E-4
1.379044863E1,2.591424156E-3,5.815271288E-4,4.266574979E-5,2.656214096E-3
1.380040562E1,8.556685643E-4,3.416147083E-4,-5.954839289E-4,1.097027990E-3
1.381036263E1,-2.678079763E-3,3.402829170E-4,2.217613161E-3,3.493667387E-3
1.382031962E1,3.967309603E-4,-1.118340530E-3,1.119595021E-3,1.631433114E-3
1.383027663E1,1.624714467E-3,-1.647510566E-3,-2.705752850E-4,2.329634982E-3
1.384023363E1,2.360465471E-3,2.400912344E-4,-5.390755832E-4,2.433113956E-3
1.385019063E1,-1.189373434E-4,-1.096549444E-3,3.694016486E-3,3.855168554E-3
1.386014763E1,2.477406990E-3,1.238936558E-3,-7.335841656E-5,2.770900692E-3
1.387010462E1,1.317866612E-3,5.819341168E-4,1.709092408E-3,2.235266558E-3
1.388006163E1,-1.213178504E-3,1.160765998E-3,-1.341782510E-3,2.149316191E-3
1.389001862E1,-2.239560941E-3,-3.095660359E-4,1.170113683E-3,2.545708226E-3
1.389997563E1,1.101305592E-3,8.813329041E-4,3.468543291E-4,1.452559679E-3
1.390993262E1,2.266172320E-3,2.062218264E-4,-1.295249909E-3,2.618346186E-3
1.391988863E1,-3.878143616E-4,1.211099327E-3,7.669366896E-4,1.485043246E-3
1.392984562E1,5.533468211E-4,9.983126074E-4,3.488421440E-3,3.670409366E-3
1.393980263E1,-1.799123827E-3,1.416062005E-3,8.571185172E-4,2.444735221E-3
1.394975963E1,1.185214496E-3,-3.541409969E-4,3.186319023E-3,3.418007924E-3
1.395971663E1,-1.515795477E-3,-3.578914329E-4,5.647353828E-3,5.858184656E-3
1.396967363E1,-7.259019185E-4,-1.640133560E-4,1.534100622E-3,1.705080260E-3
1.397963062E1,-7.166289724E-4,1.324032433E-3,2.350851893E-3,2.791616663E-3
1.398958763E1,2.104174346E-4,-2.179378644E-4,3.446742892E-3,3.460030199E-3
1.399954462E1,9.379974799E-4,-2.461029217E-3,1.220636070E-3,2.902835940E-3
1.400950163E1,-4.670862108E-4,-1.475410536E-4,7.143728435E-4,8.661792253E-4
1.401945862E1,8.288212121E-5,5.882959813E-4,2.879191190E-3,2.939847533E-3
1.402941563E1,8.735746378E-4,1.016000286E-3,3.482397646E-3,3.731284309E-3
1.403937263E1,-1.585986698E-3,2.628834918E-4,-1.979172230E-4,1.619763181E-3
1.404932963E1,4.689084599E-4,8.280063048E-4,-7.771551609E-4,1.228592580E-3
1.405928663E1,2.326698741E-3,-3.676442429E-4,1.117847860E-3,2.607349834E-3
1.406924362E1,-1.741279848E-3,-1.282254234E-4,1.525845379E-3,2.318771526E-3
1.407919963E1,1.855664304E-3,1.054501161E-3,2.294614911E-3,3.133802849E-3
1.408915662E1,-5.928459577E-4,4.148101434E-4,2.881575376E-3,2.971028514E-3
1.409911363E1,-5.683656782E-4,7.464308292E-4,2.640601248E-3,2.802315734E-3
1.410907062E1,1.057760441E-3,-1.368651167E-3,2.661906183E-3,3.174556298E-3
1.411902763E1,-5.752379075E-4,-2.438642085E-3,8.725821972E-4,2.653162935E-3
1.412898463E1,-5.054986104E-6,-4.705656320E-4,-1.768473536E-3,1.830015359E-3
1.413894163E1,9.911946254E-4,1.616431400E-3,-1.643002033E-3,2.508938608E-3
1.414889863E1,-1.614442095E-3,2.739327028E-4,-1.557782292E-3,2.260121252E-3
1.415885562E1,-2.325797221E-3,1.158597879E-3,-2.227574587E-4,2.607930720E-3
1.416881263E1,-1.153207384E-3,1.138392836E-4,6.574206054E-4,1.332309463E-3
1.417876962E1,-8.524314035E-4,-4.556607455E-4,7.389411330E-4,1.216675803E-3
1.418872663E1,9.534582496E-4,-8.492758498E-4,2.225518227E-3,2.565791005E-3
1.419868362E1,4.252695944E-4,-2.014961094E-3,5.485005677E-4,2.131144132E-3
1.420864063E1,-1.771375537E-4,1.331566833E-3,4.062809050E-3,4.279119690E-3
1.421859763E1,1.633273321E-3,1.175871119E-3,2.220004797E-3,2.996443880E-3
1.422855463E1,6.718721706E-4,1.491455361E-3,6.450116634E-4,1.758377478E-3
1.423851163E1,1.802693587E-4,-1.566711813E-3,1.227311790E-3,1.998343608E-3
1.424846763E1,-1.339835580E-4,1.499119215E-3,4.199136049E-3,4.460723436E-3
1.425842463E1,1.391790807E-3,3.649480641E-5,1.335740089E-3,1.929407968E-3
1.426838162E1,-1.890821382E-3,-9.936159477E-4,-8.762851357E-4,2.308755897E-3
1.427833863E1,-7.157844957E-4,1.515818760E-3,1.558810472E-3,2.289092407E-3
1.428829562E1,1.614747802E-3,1.871617511E-3,-4.476159811E-4,2.512115172E-3
1.429825263E1,6.598487962E-4,1.192818396E-3,-7.764771581E-4,1.568799839E-3
1.430820963E1,-6.605463568E-4,3.326172009E-4,9.409971535E-4,1.196842235E-3
1.431816663E1,1.498608035E-3,-1.131668687E-4,1.961503178E-3,2.471057972E-3
1.432812363E1,2.116195159E-3,1.574211754E-3,4.341788590E-4,2.673001287E-3
1.433808062E1,1.585129648E-4,4.695523530E-4,-2.700978890E-3,2.746068597E-3
1.434803688E1,-6.364407018E-4,1.516707242E-3,-2.230133861E-3,2.771092684E-3
1.435799388E1,1.171194483E-3,9.429417551E-4,8.281469345E-4,1.716584695E-3
1.436795087E1,-9.780190885E-5,1.767722890E-3,5.708858371E-4,1.860193556E-3
1.437790788E1,7.844418287E-4,2.583696507E-3,1.299060881E-3,2.996397136E-3
1.438786487E1,5.948247854E-4,-1.137805171E-3,5.130551755E-3,5.288759632E-3
1.439782188E1,1.124215079E-3,4.003243521E-4,1.735121012E-3,2.105887950E-3
1.440777787E1,-2.569002099E-4,1.485030167E-3,2.203304321E-3,2.669431071E-3
1.441773488E1,9.485620540E-4,-9.755147621E-4,9.985156357E-4,1.687729983E-3
1.442769188E1,-1.554809278E-3,1.520932652E-3,2.180960029E-3,3.080138742E-3
1.443764888E1,-2.695684088E-3,1.233547926E-3,3.322586417E-4,2.983077102E-3
1.444760588E1,8.143621963E-4,3.792056814E-4,-1.170564443E-3,1.475535106E-3
1.445756287E1,-2.379859798E-3,-2.119913697E-4,-7.724687457E-4,2.511051764E-3
1.446751988E1,9.368410101E-4,-1.037837937E-3,1.433901489E-4,1.405467679E-3
1.447747687E1,-1.170315081E-3,-2.683922648E-4,6.201267242E-4,1.351380387E-3
1.448743388E1,2.917251550E-5,-7.608104497E-4,6.113387644E-4,9.764315956E-4
1.449739087E1,-5.751245189E-4,-1.006286591E-3,2.168111503E-3,2.458472779E-3
1.450734788E1,2.776195761E-4,-1.362617128E-3,2.373177558E-3,2.750594443E-3
1.451730488E1,-4.133172333E-4,5.339793861E-4,1.411065459E-4,6.898377907E-4
1.452726188E1,-2.840256086E-3,-1.477240585E-3,7.163509727E-4,3.280617791E-3
1.453721888E1,-1.799854450E-3,4.395833239E-4,3.480426967E-4,1.885163987E-3
1.454717587E1,4.561095266E-4,-1.120762900E-3,2.980574965E-3,3.216826464E-3
1.455713288E1,1.882065320E-3,1.721924171E-3,-1.853417605E-3,3.153149146E-3
1.456708987E1,2.584074624E-3,-4.488183185E-4,2.382323146E-4,2.633559223E-3
1.457704588E1,6.130092079E-4,2.998001873E-4,3.605373204E-4,7.717820940E-4
1.458700287E1,-1.290352084E-3,-1.530590467E-3,4.196554422E-3,4.649600488E-3
1.459695988E1,-6.403126754E-4,1.081319526E-3,2.753436565E-3,3.026659075E-3
1.460691688E1,-2.086139284E-5,-1.001805067E-3,1.091808081E-4,1.007952895E-3
1.461687388E1,1.409200486E-3,-3.936011344E-4,3.427676857E-4,1.502749995E-3
1.462683088E1,2.042500069E-3,-1.619986258E-3,-2.359375358E-4,2.617599765E-3
1.463678787E1,1.284162281E-3,-4.835398868E-4,1.258686185E-3,1.862035042E-3
1.464674488E1,1.975785242E-3,-7.173651829E-4,3.085080534E-3,3.733103539E-3
1.465670187E1,1.737853163E-3,1.630284823E-3,2.928115427E-3,3.775158563E-3
1.466665888E1,-2.669678302E-3,1.537340693E-3,9.592436254E-4,3.226568917E-3
1.467661587E1,1.683074515E-4,1.402013004E-4,-5.266070366E-4,5.703496944E-4
1.468657288E1,-6.058735307E-4,-5.399696529E-4,5.208142102E-4,9.643118805E-4
1.469652988E1,-2.210082021E-3,1.528328285E-4,3.599822521E-4,2.244416992E-3
1.470648688E1,-6.438768469E-4,1.757359132E-4,1.736301929E-3,1.860162599E-3
1.471644388E1,1.483834232E-3,-6.017992273E-4,1.669362187E-3,2.313157247E-3
1.472640087E1,8.129839553E-4,4.642643034E-4,3.549821675E-3,3.671201190E-3
1.473635688E1,1.045683050E-3,-4.273094237E-5,1.218091697E-3,1.605934729E-3
1.474631387E1,-2.935210243E-3,3.199912608E-4,3.579251468E-3,4.639923992E-3
1.475627088E1,-3.593687434E-4,-1.528913155E-3,3.944434226E-3,4.245619235E-3
1.476622787E1,6.608883850E-4,-1.022379845E-3,2.322532237E-4,1.239344813E-3
1.477618488E1,-1.877761912E-3,1.185016707E-3,-3.529520705E-3,4.169864602E-3
1.478614187E1,-1.247924054E-3,-1.276542433E-3,-1.538008451E-3,2.356341449E-3
1.479609888E1,4.185286816E-4,-1.441916451E-3,-1.318603754E-4,1.507208170E-3
1.480605588E1,9.463672759E-4,-1.609353349E-4,-8.474513888E-4,1.280501878E-3
1.481601288E1,-2.337894868E-3,1.225546934E-3,3.838006407E-3,4.658112373E-3
1.482596988E1,-1.280040015E-4,-1.837354153E-3,1.528512686E-3,2.393450719E-3
1.483592687E1,-1.549396897E-3,2.968343906E-3,9.246245027E-4,3.473705048E-3
1.484588388E1,-2.298277803E-3,4.099681973E-5,1.842640340E-4,2.306017093E-3
1.485584087E1,2.201386960E-3,1.034513116E-4,-9.010620415E-4,2.380907290E-3
1.486579788E1,-1.469780691E-3,-2.140793949E-3,-1.267779619E-3,2.889726488E-3
1.487575487E1,1.240711892E-3,9.506922215E-4,-1.912191510E-5,1.563185001E-3
1.488571188E1,-1.816064352E-3,6.172899157E-5,1.140687615E-3,2.145476272E-3
1.489566888E1,8.540285053E-4,-2.153824084E-3,-1.675710082E-3,2.859427766E-3
1.490562488E1,2.713713795E-3,-6.057880819E-5,4.048220813E-3,4.874013142E-3
1.491558188E1,-6.950381212E-4,4.157423973E-5,3.820020705E-3,3.882958228E-3
1.492553887E1,-1.146177528E-3,-1.123825088E-3,4.327446222E-4,1.662520275E-3
1.493549588E1,-3.150428878E-3,1.474499702E-3,1.074858010E-4,3.480072512E-3
1.494545287E1,-5.849869922E-5,-5.686776713E-4,-5.838721991E-4,8.171432778E-4
1.495540988E1,1.302520977E-3,2.775546163E-4,1.398678869E-3,1.931294913E-3
1.496536687E1,7.837371668E-4,-1.018339768E-3,-4.314444959E-4,1.355508828E-3
1.497532388E1,-2.619522624E-3,-6.955768913E-5,6.937980652E-4,2.710736580E-3
1.498528088E1,-4.061695654E-4,-1.779487357E-4,2.064794302E-3,2.111874754E-3
1.499523788E1,-1.678145723E-3,-1.448579133E-5,4.072062671E-3,4.404324841E-3
1.500519488E1,7.189655444E-4,9.583672509E-4,1.860838383E-3,2.213164868E-3
1.501515187E1,1.571351895E-3,1.629702747E-4,2.753809094E-4,1.603602424E-3
1.502510888E1,-1.721380511E-3,-1.365950331E-3,-3.275573254E-4,2.221770684E-3
1.503506587E1,1.736850943E-3,-1.174460165E-3,1.338407397E-3,2.487436882E-3
1.504502288E1,1.509949565E-3,2.516629174E-4,-1.076813787E-3,1.871579505E-3
1.505497987E1,1.106595155E-3,-4.354799166E-4,1.587737352E-3,1.983710032E-3
1.506493588E1,1.700213761E-3,-2.465075813E-3,6.636232138E-4,3.067200901E-3
1.507489287E1,1.993977465E-3,-2.267243341E-3,7.336735725E-4,3.107187701E-3
1.508484988E1,-1.128046075E-3,-5.108881742E-4,4.443459213E-3,4.612789227E-3
1.509480688E1,-1.616285648E-3,-1.100583002E-3,-1.048371196E-4,1.958227020E-3
1.510476388E1,1.904679579E-3,-3.674793988E-3,-5.210898817E-4,4.171744218E-3
1.511472088E1,-1.690327888E-3,1.433948055E-4,2.978369594E-5,1.696660694E-3
1.512467787E1,4.420652986E-4,-1.277150586E-4,4.040505737E-3,4.066622613E-3
1.513463488E1,1.375903492E-3,9.083189070E-6,1.819457859E-3,2.281144411E-3
1.514459187E1,-1.554638846E-3,3.920458257E-4,1.901481301E-3,2.487213905E-3
1.515454888E1,7.884370862E-4,1.388926990E-3,1.066900790E-3,1.920684388E-3
1.516450588E1,-7.474077865E-4,-9.687691927E-4,1.014169306E-3,1.589236146E-3
1.517446288E1,-5.621714517E-4,-7.992405444E-4,-9.560771286E-4,1.367079246E-3
1.518441988E1,1.416290994E-3,-1.355841756E-3,-1.819204539E-3,2.674638705E-3
1.519437687E1,1.275963150E-4,-1.760237850E-3,1.869842410E-3,2.571192087E-3
1.520433388E1,-4.828001838E-4,6.722379476E-5,6.049126387E-5,4.911967519E-4