"Time (s)","Gyroscope x (rad/s)","Gyroscope y (rad/s)","Gyroscope z (rad/s)","Absolute (rad/s)"
5.667791669E-3,-1.829025336E-3,2.812594175E-4,-2.574102022E-3,3.170243170E-3
1.562479167E-2,1.292314613E-3,-1.436440274E-3,-1.690112054E-3,2.567083263E-3
2.558179167E-2,1.971420832E-3,-1.199951395E-3,5.251048133E-4,2.366879488E-3
3.553879167E-2,-4.005498253E-3,-1.193187200E-3,3.174479119E-3,5.248335891E-3
4.549579167E-2,-1.905198442E-4,-1.062159427E-3,2.654629759E-3,2.865578409E-3
5.545279167E-2,-1.531479065E-3,-2.010220662E-3,7.510269061E-4,2.636371872E-3
6.540879167E-2,1.464044442E-3,-9.774463251E-4,-7.970687002E-4,1.932393842E-3
7.536579167E-2,-9.523315821E-4,-2.149857581E-3,-1.385277137E-3,2.729068670E-3
8.532279167E-2,2.514170483E-4,-1.131464727E-3,1.554585993E-3,1.939113347E-3
9.527979167E-2,-7.678922266E-4,-6.878711283E-4,2.737748437E-3,2.925421621E-3
1.052367917E-1,8.417222416E-4,-2.015457489E-3,1.610699110E-3,2.713838028E-3
1.151937917E-1,5.896516377E-4,1.782901585E-3,3.062996082E-3,3.592822305E-3
1.251507917E-1,-1.095330459E-3,-1.247775741E-3,2.728020772E-4,1.682591480E-3
1.351067917E-1,-2.986450214E-3,5.277236924E-4,-3.404235467E-4,3.051764304E-3
1.450637917E-1,5.720655899E-4,4.339804873E-4,-2.498757094E-4,7.602867700E-4
1.550207917E-1,-1.807800843E-3,4.811491817E-4,5.399938673E-4,1.947111142E-3
1.649777917E-1,1.719023334E-3,1.203664578E-3,3.503765911E-4,2.127583934E-3
1.749347917E-1,5.672788247E-4,3.532432020E-4,1.995088533E-4,6.974165235E-4
1.848917917E-1,6.935127312E-4,-4.845866933E-4,1.332418062E-3,1.578328883E-3
1.948487917E-1,-2.764047822E-3,1.489928924E-3,4.889247939E-4,3.177876022E-3
2.048047917E-1,-1.605039928E-3,-6.326101720E-4,-2.807285637E-4,1.747900834E-3
2.147617917E-1,6.011280930E-4,2.581700683E-4,-4.271734506E-4,7.813347075E-4
2.247187917E-1,1.974786632E-3,-7.792096585E-5,6.873589009E-4,2.092442634E-3
2.346757917E-1,9.015408577E-4,7.749442011E-5,1.341762021E-3,1.618365418E-3
2.446327917E-1,2.039243234E-3,-1.898837276E-3,1.952957362E-3,3.402666370E-3
2.545897917E-1,-2.339478349E-3,2.722181380E-3,2.685742453E-3,4.482927942E-3
2.645457917E-1,-1.629479695E-3,2.528987825E-4,-2.383584157E-3,2.898384947E-3
2.745027917E-1,2.320987405E-4,-4.932647571E-4,-2.439484932E-3,2.499653311E-3
2.844597917E-1,-2.466748469E-3,5.725324154E-4,-2.127361484E-3,3.307311334E-3
2.944167917E-1,-5.844922271E-5,7.804101333E-4,1.592411660E-3,1.774325557E-3
3.043737917E-1,-8.539354894E-4,7.154289633E-4,1.401196234E-3,1.790082486E-3
3.143307917E-1,-8.820311632E-4,-3.352388740E-5,2.653834410E-3,2.796773123E-3
3.242877917E-1,3.566050436E-4,5.153538659E-4,6.032008678E-4,8.698321971E-4
3.342437917E-1,6.520210300E-4,-2.202857286E-4,7.964288816E-4,1.052594979E-3
3.442007917E-1,4.096734338E-4,-1.542391255E-4,-8.134525269E-4,9.237570264E-4
3.541577917E-1,1.780542778E-3,-1.780409366E-4,-3.906106576E-4,1.831558856E-3
3.641147917E-1,3.600126365E-4,1.308852807E-4,-1.965871081E-3,2.002845266E-3
3.740717917E-1,1.006142236E-3,-9.475275874E-6,-1.978725195E-4,1.025458685E-3
3.840287917E-1,-1.243163599E-3,-1.900373027E-4,8.655246347E-5,1.260579723E-3
3.939857917E-1,-9.031111840E-4,-1.524396241E-3,1.174410805E-3,2.125707988E-3
4.039417917E-1,7.397927693E-4,-1.840779558E-3,3.022911027E-3,3.615764622E-3
4.138987917E-1,-1.170067582E-3,-1.283697784E-3,2.491800115E-4,1.754716167E-3
4.238557917E-1,1.876119059E-4,-1.097759232E-4,6.875367835E-4,7.210796136E-4
4.338127917E-1,-2.874090336E-3,-9.218025953E-4,4.507871345E-4,3.051773964E-3
4.437697917E-1,1.018918585E-3,-1.251501963E-3,6.345454603E-4,1.734099244E-3
4.537267917E-1,-8.175671101E-4,-6.997557357E-4,2.737129107E-4,1.110402101E-3
4.636837917E-1,-5.214235280E-4,-2.028094605E-4,4.872987047E-4,7.419394856E-4
4.736397917E-1,-1.750827068E-4,-2.311701886E-3,2.570364624E-3,3.461415009E-3
4.835967917E-1,-7.707846817E-5,-5.857069045E-4,3.840959631E-3,3.886124619E-3
4.935537917E-1,-4.807783989E-4,8.941749111E-4,-1.747085713E-3,2.020644731E-3
5.035107917E-1,1.102470793E-3,1.795921475E-3,1.725143753E-3,2.723398017E-3
5.134677917E-1,7.304991595E-5,-1.745306887E-3,-2.106661908E-3,2.736687197E-3
5.234247917E-1,3.622692311E-4,-2.677850425E-4,-4.305369221E-3,4.328874213E-3
5.333817917E-1,1.731212251E-4,1.770387404E-3,-8.621597663E-4,1.976755417E-3
5.433377917E-1,1.010152744E-3,1.357330941E-3,-2.682749182E-4,1.713104574E-3
5.532947917E-1,-7.334621623E-4,-1.087803394E-3,1.746089198E-3,2.184058253E-3
5.632517917E-1,-1.765952911E-4,-1.072091050E-3,3.528542817E-3,3.692042731E-3
5.732087917E-1,-1.134301303E-3,-3.972826526E-4,9.001437575E-4,1.501576417E-3
5.831657917E-1,-1.621393487E-3,-3.505458124E-3,-1.140103675E-3,4.027032392E-3
5.931227917E-1,3.833683440E-4,-1.036124304E-3,-8.050724864E-5,1.107703154E-3
6.030797917E-1,9.458279237E-4,-8.228057995E-4,1.027183607E-4,1.257835803E-3
6.130357917E-1,-6.790803745E-4,-6.025237963E-4,1.667066477E-3,1.898234896E-3
6.229927917E-1,8.658192819E-4,-1.286956482E-3,1.248950139E-3,1.991425736E-3
6.329497917E-1,-1.729329117E-3,-5.185706541E-4,1.317186281E-3,2.234832078E-3
6.429067917E-1,4.723060410E-4,-1.123640686E-3,-2.555049956E-3,2.830887081E-3
6.528637917E-1,-5.324371159E-6,6.284192204E-5,-2.812733874E-4,2.882571327E-4
6.628207917E-1,-8.186537307E-4,-1.356356777E-3,-1.382756978E-3,2.102834872E-3
6.727767917E-1,4.222646821E-4,2.931188792E-4,2.437443472E-3,2.491055363E-3
6.827337917E-1,-1.521791564E-4,2.742102370E-4,3.076336347E-3,3.092279914E-3
6.926907917E-1,-1.442279201E-3,-1.056606881E-3,3.860616125E-3,4.254520450E-3
7.026472917E-1,1.092784805E-4,-2.219723538E-4,1.973234117E-3,1.988684589E-3
7.126042917E-1,9.784584399E-4,2.956297249E-4,-1.449941657E-3,1.774009206E-3
7.225612917E-1,1.034118468E-3,7.979022339E-4,-2.627046779E-4,1.332314801E-3
7.325182917E-1,-1.567678293E-3,-9.535504505E-4,-1.748804003E-3,2.534795679E-3
7.424742917E-1,-7.567456923E-4,1.457409002E-3,1.476550475E-3,2.208371877E-3
7.524312917E-1,1.810442656E-3,-2.596480772E-4,1.973942854E-3,2.691016560E-3
7.623882917E-1,-1.924907090E-3,-3.187702969E-4,2.912707627E-3,3.505816243E-3
7.723452917E-1,2.631745301E-4,4.361718893E-4,-8.058128878E-4,9.533316110E-4
7.823022917E-1,-2.843669383E-3,7.791863754E-4,-5.956888199E-4,3.008061192E-3
7.922592917E-1,5.772861186E-5,-1.456756145E-3,-5.190018564E-4,1.547525116E-3
8.022162917E-1,-2.857367275E-3,-2.252508886E-3,-1.734469086E-3,4.030722893E-3
8.121722917E-1,-2.196539193E-3,-6.980923936E-4,-2.779336646E-4,2.321500493E-3
8.221292917E-1,-1.826626249E-3,1.242915168E-4,-2.919416875E-5,1.831082776E-3
8.320862917E-1,1.476761885E-3,-1.358586363E-3,-7.055504248E-4,2.127059937E-3
8.420432917E-1,-2.828237833E-3,-1.465112902E-3,3.067616373E-3,4.422188968E-3
8.520002917E-1,4.166762810E-4,-1.269014552E-3,3.640232608E-4,1.384387948E-3
8.619572917E-1,9.192147991E-4,1.271907240E-3,4.814686254E-4,1.641498069E-3
8.719142917E-1,-8.136241231E-4,-3.106705844E-5,-5.418127403E-4,9.780135078E-4
8.818702917E-1,5.634964909E-4,-1.092603430E-3,-1.474185847E-3,1.919514121E-3
8.918272917E-1,1.529072179E-4,-3.389231861E-4,-1.231264323E-3,1.286180927E-3
9.017842917E-1,1.988357864E-3,6.262063980E-4,9.192386642E-4,2.278311035E-3
9.117412917E-1,1.032398548E-3,5.525834858E-4,7.170597091E-4,1.373087724E-3
9.216982917E-1,-5.283951759E-5,4.572421312E-4,2.390056849E-3,2.433974963E-3
9.316552917E-1,1.187113230E-3,-1.093112864E-3,-3.213034943E-4,1.645408609E-3
9.416122917E-1,1.180455321E-3,3.761537373E-4,-4.517985508E-4,1.318744983E-3
9.515682917E-1,1.474671531E-3,-1.755516045E-3,-2.164163627E-3,3.152791923E-3
9.615252917E-1,-9.884862229E-4,-9.480454028E-4,-1.186517067E-3,1.812103156E-3
9.714822917E-1,-5.724179791E-4,1.571469940E-3,5.274508148E-4,1.753677416E-3
9.814392917E-1,-1.420102199E-3,1.181050204E-3,1.561289653E-3,2.418510951E-3
9.913962917E-1,-6.066292990E-4,-1.119754277E-3,1.886451617E-3,2.276081820E-3
1.001353292E0,-9.469811339E-4,4.405919462E-4,7.125297561E-4,1.264354849E-3
1.011309292E0,1.289359061E-4,-1.910463907E-3,-7.452396676E-4,2.054721141E-3
1.021266292E0,1.388730016E-5,9.676134214E-4,-3.210261464E-3,3.352946057E-3
1.031223292E0,1.178943668E-3,1.247284934E-3,-1.412149519E-3,2.222564767E-3
1.041180292E0,6.207451224E-4,-2.097310498E-4,-1.779932529E-3,1.896700142E-3
1.051137292E0,2.772776643E-4,-9.629121050E-4,3.137628548E-3,3.293750982E-3
1.061094292E0,1.435752725E-3,-1.388484612E-3,1.970897429E-3,2.806013557E-3
1.071051292E0,-1.203240827E-3,-8.625993505E-4,-1.190420240E-3,1.899728000E-3
1.081007292E0,-7.582264952E-4,-5.832407624E-5,7.925694808E-4,1.098396785E-3
1.090964292E0,-1.645646989E-6,8.003534749E-4,-1.740088686E-3,1.915326873E-3
1.100921292E0,-2.876528073E-3,-4.960736260E-4,-2.547826618E-3,3.874522328E-3
1.110878292E0,2.301350003E-3,3.980454057E-4,-1.841882244E-3,2.974421319E-3
1.120835292E0,-1.068613958E-3,-3.665480763E-4,9.317137301E-5,1.133567019E-3
1.130792292E0,1.178246923E-3,-3.652758896E-4,1.822404563E-3,2.200647786E-3
1.140749292E0,1.758283470E-3,-4.782713950E-5,2.846922725E-3,3.346463387E-3
1.150705292E0,-9.093995905E-4,5.669696257E-4,-1.633761451E-3,1.953877849E-3
1.160662292E0,-1.268127584E-3,-4.109432921E-4,-1.946683973E-3,2.359364416E-3
1.170619292E0,3.858612617E-4,-1.703449525E-3,1.423461363E-4,1.752395965E-3
1.180576292E0,-6.466461346E-4,-4.176748917E-4,-2.374202013E-4,8.055879160E-4
1.190533292E0,-9.218530031E-4,-1.598354429E-3,4.109358415E-4,1.890348673E-3
1.200490292E0,8.238491719E-4,-3.854092211E-5,1.715085469E-3,1.903084609E-3
1.210447292E0,5.454653874E-4,-5.623232573E-5,-4.515890032E-5,5.502125858E-4
1.220403292E0,-4.580137320E-4,3.416435793E-4,-5.050869659E-4,7.626334356E-4
1.230360292E0,-1.513733063E-3,-6.870878860E-4,2.457971685E-3,2.967339271E-3
1.240317292E0,2.366492525E-3,1.429592259E-3,-1.713071950E-3,3.252481576E-3
1.250274292E0,1.018255251E-3,4.218993708E-4,1.939699054E-3,2.230980783E-3
1.260231292E0,2.277930267E-3,1.059194095E-3,-1.010284759E-3,2.707680507E-3
1.270188292E0,7.350944215E-4,-1.717749983E-4,8.299853653E-5,7.594466510E-4
1.280145292E0,2.143373946E-3,-2.564092167E-3,-2.388680354E-3,4.107847897E-3
1.290101292E0,-1.425374998E-3,-1.047777012E-3,1.860670745E-4,1.778806203E-3
1.300058292E0,3.514861455E-4,-1.395319588E-3,-8.027646691E-4,1.647692440E-3
1.310015292E0,-9.645407554E-4,-1.984984614E-3,-3.779346123E-3,4.376523724E-3
1.319972292E0,-1.927567646E-4,1.688580029E-3,4.095863551E-5,1.700039792E-3
1.329929292E0,3.475301201E-4,1.464485191E-3,5.367454141E-4,1.597995525E-3
1.339886292E0,3.054100554E-3,-7.997341454E-4,-3.508860245E-4,3.176511593E-3
1.349842292E0,-1.670254162E-3,8.395649493E-4,1.502699219E-3,2.398483523E-3
1.359799292E0,-1.687298296E-3,-2.459390089E-4,5.863057449E-4,1.803112853E-3
1.369756292E0,-2.511121565E-4,1.641176641E-4,-1.769756898E-3,1.795001783E-3
1.379713292E0,6.192090223E-4,3.468105569E-4,-7.441733032E-4,1.028343951E-3
1.389670292E0,-2.263039816E-3,8.099060506E-5,3.420114517E-4,2.290170413E-3
1.399627292E0,-2.538943198E-3,-2.147276886E-3,-1.004216261E-3,3.473540108E-3
1.409584292E0,-1.320984447E-3,6.423965096E-4,-9.486330673E-4,1.748593115E-3
1.419540292E0,-1.310615335E-5,-2.689217217E-3,1.896155998E-3,3.290511903E-3
1.429497292E0,1.169317868E-3,-9.639998898E-4,-1.285932958E-4,1.520899832E-3
1.439454292E0,-4.608030431E-4,7.540052757E-4,2.525779419E-3,2.675897059E-3
1.449411292E0,7.702440489E-4,1.075305045E-3,-5.405023694E-4,1.428880557E-3
1.459368292E0,-6.010176148E-4,2.282392234E-5,-4.009520635E-4,7.228455312E-4
1.469325292E0,-1.592318527E-3,1.869260333E-3,3.705956042E-4,2.483335174E-3
1.479282292E0,-7.893752772E-4,-1.371651888E-4,-1.170043834E-3,1.418072703E-3
1.489238292E0,1.314210007E-3,-1.377966255E-3,1.108147204E-3,2.203163446E-3
1.499195292E0,-1.971598016E-3,-1.522043720E-3,3.058114089E-3,3.944094016E-3
1.509152292E0,-2.289638389E-3,-1.431263983E-3,1.945100725E-3,3.327818711E-3
1.519109292E0,9.117477457E-4,-1.208623871E-3,6.331130862E-5,1.515276851E-3
1.529066292E0,9.217890329E-4,1.438310370E-3,7.036337629E-4,1.847574684E-3
1.539023292E0,1.081312308E-3,-1.033935696E-4,-1.446069218E-3,1.808602422E-3
1.548980292E0,-1.692716498E-3,1.948153600E-3,-8.178595454E-5,2.582107770E-3
1.558936292E0,-1.400833949E-3,-9.413762018E-4,2.950755879E-3,3.399335989E-3
1.568893292E0,-2.980828984E-3,-3.004624508E-3,2.710683271E-3,5.026023643E-3
1.578850292E0,9.491976234E-4,-2.003542148E-3,1.271245070E-3,2.555625421E-3
1.588807292E0,-4.371700343E-4,6.522862241E-4,-1.566140912E-3,1.751968126E-3
1.598764292E0,4.914742894E-4,3.023473546E-4,-1.206614077E-3,1.337489600E-3
1.608721292E0,2.165039536E-3,-2.274604514E-3,-1.154405065E-3,3.345724576E-3
1.618678292E0,-1.661922899E-3,-2.300969325E-3,6.227223203E-4,2.905895842E-3
1.628634292E0,-1.135491766E-3,1.852680929E-3,-2.593463287E-4,2.188384951E-3
1.638591292E0,4.341010936E-6,-1.270674169E-3,1.062647440E-3,1.656457446E-3
1.648548292E0,-2.379262354E-3,-3.274865448E-4,7.126461715E-4,2.505194873E-3
1.658505292E0,1.462133368E-4,-1.552807167E-3,1.774981618E-3,2.362868634E-3
1.668462292E0,2.566447714E-3,1.661489718E-3,-2.313277684E-3,3.833856491E-3
1.678419292E0,-6.810107734E-4,1.234319061E-3,2.098362893E-5,1.409879261E-3
1.688375292E0,2.125361003E-3,1.648501493E-3,2.596294507E-4,2.702244256E-3
1.698332417E0,1.800455269E-3,-1.651953906E-3,-1.450385898E-3,2.841515465E-3
1.708289417E0,9.920148877E-4,-1.614603214E-3,1.623930410E-3,2.495633597E-3
1.718246417E0,3.315622918E-3,7.526800036E-4,-2.420346253E-3,4.173482779E-3
1.728203417E0,2.061075065E-4,1.160002314E-3,9.240563959E-4,1.497319570E-3
1.738160417E0,7.184997667E-4,-3.230750561E-3,1.600232907E-3,3.676239445E-3
1.748117417E0,7.974657929E-4,9.872615337E-4,2.005845308E-4,1.284862320E-3
1.758073417E0,3.170608543E-3,1.052217558E-4,-1.237886027E-4,3.174768301E-3
1.768030417E0,3.316114657E-3,1.802966930E-3,-7.405998185E-4,3.846530158E-3
1.777987417E0,-2.721790224E-5,9.747873992E-5,-3.416584805E-4,3.563333218E-4
1.787944417E0,6.309653400E-4,2.126265317E-4,-1.067517325E-3,1.258141702E-3
1.797901417E0,-5.490813637E-4,2.512419596E-4,-1.138402149E-4,6.144692513E-4
1.807858417E0,1.963889459E-3,-1.105621457E-3,-7.262052968E-4,2.367833344E-3
1.817815417E0,-6.859558634E-4,-4.214551300E-4,1.346532255E-3,1.568855949E-3
1.827771417E0,-7.789232768E-4,1.596542075E-3,-1.391766593E-3,2.256697215E-3
1.837728417E0,1.659661066E-4,-1.529476605E-3,-2.632001415E-3,3.048651322E-3
1.847685417E0,-6.716581993E-4,1.204774715E-3,-4.158234224E-4,1.440665113E-3
1.857642417E0,-9.406374302E-4,1.277923584E-4,1.472357661E-3,1.751846666E-3
1.867599417E0,-1.225715037E-3,4.906449467E-4,1.682712696E-3,2.138838899E-3
1.877556417E0,-8.987693582E-5,-2.467846498E-4,3.182338551E-3,3.193158182E-3
1.887512417E0,4.806959769E-4,-1.721510664E-3,8.889222518E-4,1.996208996E-3
1.897469417E0,-1.849037362E-3,9.384546429E-4,-3.382619470E-4,2.100965832E-3
1.907426417E0,2.291607205E-3,8.011190221E-4,-5.954271182E-4,2.499557705E-3
1.917383417E0,-1.130022225E-3,-1.229275018E-3,-1.809295267E-3,2.462035065E-3
1.927340417E0,1.890091226E-4,7.088687271E-4,2.266586758E-3,2.382359094E-3
1.937297417E0,3.328198800E-4,2.960786223E-4,1.786686480E-4,4.799521944E-4
1.947254417E0,9.183304501E-4,-2.084259875E-3,2.223337069E-4,2.288427914E-3
1.957210417E0,-6.643861998E-4,2.695315517E-3,4.159454256E-4,2.806981539E-3
1.967167417E0,5.102755968E-4,2.804070711E-3,-1.425937749E-3,3.186925196E-3
1.977124417E0,4.250544589E-4,-1.878831536E-3,-4.717269912E-4,1.983231098E-3
1.987081417E0,1.085244818E-3,-8.732648566E-4,-2.812054940E-3,3.138152451E-3
1.997038417E0,-7.384880446E-4,3.220979124E-5,2.214394510E-3,2.334511749E-3
2.006995417E0,1.324799377E-4,-1.017552800E-3,4.133646376E-3,4.259107536E-3
2.016952417E0,1.234496012E-3,-1.013025641E-3,1.810837537E-3,2.414401363E-3
2.026908417E0,1.337555703E-3,-3.196578473E-5,6.466032937E-4,1.485992224E-3
2.036865417E0,2.520511625E-4,9.086625651E-4,-2.362346277E-4,9.721132881E-4
2.046822417E0,-2.910452895E-4,-1.035816967E-4,-9.358618408E-4,9.855322996E-4
2.056779417E0,-6.750731263E-4,-9.704409167E-4,-5.584917963E-4,1.307437335E-3
2.066736417E0,-5.138769047E-4,4.174821079E-4,7.214900106E-4,9.792387957E-4
2.076693417E0,-1.382067450E-3,3.800495528E-3,1.789151691E-3,4.422096840E-3
2.086649417E0,8.337325417E-4,1.759041101E-3,1.596418209E-3,2.517515967E-3
2.096606417E0,-1.602793578E-3,1.819171011E-4,6.832210347E-4,1.751808228E-3
2.106563417E0,5.566531327E-4,-7.291063666E-4,-2.408588305E-3,2.577354541E-3
2.116520417E0,-5.078124814E-4,-1.095557585E-3,-1.358464360E-4,1.215143692E-3
2.126477417E0,2.360380720E-3,1.645553857E-4,-1.552741975E-3,2.830103048E-3
2.136434417E0,-1.671911450E-3,3.682877868E-4,2.840408124E-3,3.316450226E-3
2.146391417E0,-1.593452180E-3,3.354987130E-4,7.619718090E-4,1.797846009E-3
2.156347417E0,-1.214750810E-3,1.567743719E-3,1.110956073E-4,1.986399288E-3
2.166304417E0,-1.509804628E-3,-2.277465537E-4,1.376482658E-3,2.055743908E-3
2.176261417E0,-4.687750479E-4,-9.039230645E-4,-3.967681900E-3,4.096257635E-3
2.186218417E0,1.503493870E-3,1.275871880E-3,-3.737898543E-3,4.226136343E-3
2.196175417E0,1.211345196E-3,-9.747650474E-4,-3.958977759E-4,1.604449790E-3
2.206132417E0,3.346147947E-3,-2.102462575E-3,-2.074465156E-4,3.957283035E-3
2.216089417E0,7.658110699E-4,1.175487414E-4,3.045338206E-3,3.142350886E-3
2.226045417E0,-6.575157167E-4,2.528075129E-4,3.063760698E-3,3.143702939E-3
2.236002417E0,3.123906674E-3,-1.479578204E-3,8.498756215E-4,3.559527095E-3
2.245959417E0,1.018226496E-3,-2.595069818E-3,-1.157497987E-3,3.018439025E-3
2.255916417E0,4.088951973E-4,3.418643028E-4,-3.396950662E-3,3.438508439E-3
2.265873417E0,1.816654927E-3,-1.739482395E-3,-1.553286798E-3,2.956134978E-3
2.275830417E0,2.318660729E-3,1.253644936E-3,1.356899738E-4,2.639360712E-3
2.285787417E0,-3.536989680E-4,-3.935508430E-4,4.147626460E-4,6.723193277E-4
2.295743417E0,1.536080148E-3,-1.948304474E-3,1.360184513E-3,2.829405318E-3
2.305700417E0,-6.312006153E-4,2.780938521E-4,8.490849286E-4,1.093935841E-3
2.315657417E0,-1.240265556E-3,2.683993429E-3,-2.410356887E-3,3.814695230E-3
2.325614417E0,-4.282559967E-4,6.101652980E-4,-1.437214203E-3,1.619039702E-3
2.335571417E0,9.374130750E-4,6.679557264E-4,-4.134951159E-4,1.223064322E-3
2.345528417E0,-1.635493827E-3,-9.577302262E-4,-3.842255101E-4,1.933834659E-3
2.355484417E0,6.577541353E-4,2.305707894E-3,2.686665393E-3,3.600986022E-3
2.365441417E0,4.790120292E-4,-1.743604429E-3,-6.473623216E-6,1.808217586E-3
2.375398417E0,-1.244053245E-3,1.395167783E-4,-2.151383087E-3,2.489092725E-3
2.385355417E0,-1.405887771E-3,2.414840274E-3,-5.032755435E-4,2.839235856E-3
2.395312417E0,2.104424872E-3,-1.274436712E-3,5.782349035E-4,2.527280866E-3
2.405269417E0,-8.270445978E-4,-1.599321142E-3,-4.278030246E-5,1.801016667E-3
2.415226417E0,-2.717756433E-4,-1.505613327E-4,3.782317974E-3,3.795057308E-3
2.425182417E0,-1.221456798E-3,-1.160667278E-3,-6.865905598E-4,1.819481200E-3
2.435139417E0,-2.438521478E-3,-5.364222452E-4,-1.465032808E-3,2.894901890E-3
2.445096417E0,2.286270028E-4,-5.629602820E-4,-1.097936183E-4,6.174538235E-4
2.455053417E0,-1.154533820E-4,-3.512110561E-5,-3.219033591E-3,3.221294808E-3
2.465010417E0,-1.146411523E-4,1.806989312E-3,1.146395691E-3,2.143029642E-3
2.474967417E0,-4.113791510E-5,-1.279880293E-3,2.002867870E-3,2.377239070E-3
2.484924417E0,8.894754574E-4,-7.157651708E-4,4.291087389E-4,1.219680564E-3
2.494880417E0,-3.038870636E-4,-3.700871021E-4,1.383053139E-3,1.463607801E-3
2.504837417E0,1.291001565E-3,4.989979789E-4,5.166167393E-4,1.477354690E-3
2.514794417E0,-2.461924916E-3,-6.532669067E-5,2.535559237E-3,3.534742213E-3
2.524751417E0,6.885140901E-4,2.601649612E-4,6.805080920E-4,1.002411454E-3
2.534708417E0,-1.806068933E-3,-1.371286809E-3,-1.692103222E-3,2.829403792E-3
2.544665417E0,-7.751507219E-4,-2.073615789E-3,-3.073584288E-3,3.787830707E-3
2.554621417E0,-1.904064789E-3,3.474643454E-4,6.005121395E-4,2.026526344E-3
2.564578417E0,-1.973806880E-3,-2.135736868E-4,8.949423209E-4,2.177716483E-3
2.574535417E0,8.002307732E-5,3.970889375E-4,1.521050930E-3,1.574064563E-3
2.584492417E0,-2.250335179E-3,7.464829832E-5,-2.277120948E-3,3.202321127E-3
2.594449417E0,1.923161326E-4,1.334589906E-3,-2.429978922E-4,1.370096233E-3
2.604406417E0,1.783692394E-3,3.682868555E-4,-1.541299745E-3,2.385958648E-3
2.614363417E0,9.807492606E-4,-6.897868589E-4,-1.670995727E-3,2.056672493E-3
2.624319417E0,1.104625640E-3,-1.841992140E-3,1.983148977E-4,2.156956571E-3
2.634276417E0,1.983520342E-4,-1.763429493E-3,7.341336459E-5,1.776067743E-3
2.644233417E0,-2.040153369E-3,3.718370572E-4,-2.251576632E-3,3.061059604E-3
2.654190417E0,-1.197795500E-3,6.895521656E-4,-1.039040275E-3,1.729104086E-3
2.664147417E0,-1.609967323E-3,1.829738729E-3,-9.735524654E-4,2.624450990E-3
2.674104417E0,-1.635533758E-3,9.271930903E-4,2.436359413E-3,3.077418543E-3
2.684060417E0,3.413101658E-4,6.866650656E-4,1.368070953E-3,1.568317466E-3
2.694017417E0,9.591635317E-4,-3.501027822E-4,1.453557983E-3,1.776343843E-3
2.703975208E0,1.466711401E-3,-5.572875962E-4,1.282298937E-3,2.026351984E-3
2.713932208E0,1.471150899E-4,9.679049253E-4,-7.496932521E-4,1.233094792E-3
2.723889208E0,-3.822916187E-5,1.090510748E-3,-1.118052751E-5,1.091237905E-3
2.733846208E0,9.205088718E-4,-1.600346528E-3,5.142604932E-4,1.916483615E-3
2.743803208E0,-4.440796329E-4,1.086114906E-3,1.071464270E-3,1.588989613E-3
2.753759208E0,-5.173165118E-4,1.988659613E-3,2.448052168E-3,3.196144998E-3
2.763716208E0,5.675220164E-4,-6.567146629E-4,1.486469060E-3,1.721320904E-3
2.773673208E0,-6.274384214E-4,1.711634919E-3,-1.252759248E-4,1.827311447E-3
2.783630208E0,-1.626683981E-3,-4.197936505E-4,-2.208868973E-3,2.775144973E-3
2.793587208E0,9.643054800E-4,-3.050729632E-3,-1.940422691E-3,3.741934870E-3
2.803544208E0,-4.483036464E-4,-8.703097701E-4,-3.201391548E-3,3.347734024E-3
2.813501208E0,5.732849240E-4,1.451168209E-3,-8.969577029E-4,1.799743842E-3
2.823457208E0,2.823400078E-3,-1.409556717E-3,2.192014828E-3,3.842312734E-3
2.833414208E0,1.922718948E-3,1.390706748E-4,3.352620639E-3,3.867331632E-3
2.843371208E0,-8.626101771E-4,-9.265337139E-4,1.110548154E-3,1.684006604E-3
2.853328208E0,1.400698675E-4,-1.502223313E-4,-5.387477577E-4,5.765721663E-4
2.863285208E0,-2.215581480E-5,-9.195422754E-4,-2.033120021E-3,2.231507539E-3
2.873242208E0,7.174039492E-4,-8.111521602E-4,-3.163099289E-3,3.343326691E-3
2.883198208E0,-4.718030104E-4,1.118075103E-3,1.443661749E-4,1.222101308E-3
2.893155208E0,1.918916823E-3,3.460254520E-4,-1.888957806E-3,2.714799621E-3
2.903112208E0,-1.085983473E-3,-3.414601088E-4,3.585275263E-4,1.193522977E-3
2.913069208E0,2.780875657E-4,-5.558449775E-4,-1.796968281E-4,6.469832171E-4
2.923026208E0,3.393154126E-3,3.489758819E-5,8.572377264E-4,3.499938468E-3
2.932983208E0,-1.560591976E-3,7.804110646E-5,-1.186206006E-3,1.961790615E-3
2.942940208E0,2.085014712E-4,-1.568457112E-3,-2.534319647E-3,2.987692529E-3
2.952896208E0,-1.269020373E-3,-1.960207708E-3,-2.410481684E-3,3.356076417E-3
2.962853208E0,5.040768301E-4,-7.400661707E-5,-2.045938745E-4,5.490255764E-4
2.972810208E0,-1.218721969E-3,-2.882575616E-3,1.452957280E-3,3.450450736E-3
2.982767208E0,-1.092435792E-3,-6.120717153E-4,1.944204792E-3,2.312570003E-3
2.992724208E0,8.444811683E-4,-9.646741673E-4,1.069888473E-3,1.669852100E-3
3.002681208E0,7.253059885E-4,1.249601133E-3,-9.383540601E-4,1.722811688E-3
3.012638208E0,-1.525864005E-3,-8.668126538E-4,1.020400785E-3,2.029985936E-3
3.022594208E0,-1.441300148E-3,-4.517855123E-4,-2.700058743E-3,3.093828289E-3
3.032551208E0,-2.356870100E-4,6.531598046E-4,1.373778097E-3,1.539296059E-3
3.042508208E0,2.080518752E-3,-6.119534373E-5,-5.937423557E-4,2.164447535E-3
3.052465208E0,-4.268473713E-4,2.059191465E-4,-7.442664355E-5,4.797298183E-4
3.062422208E0,-1.704754308E-3,3.594895825E-4,1.812857576E-3,2.514333431E-3
3.072379208E0,2.261225134E-3,-3.119397908E-3,1.301530749E-3,4.066665060E-3
3.082335208E0,-1.032060711E-3,-7.384242490E-4,2.012263052E-3,2.378996064E-3
3.092292208E0,-1.244048355E-3,-2.166943625E-3,1.790688373E-3,3.074063407E-3
3.102249208E0,-4.551925231E-4,-9.044911712E-5,-9.843558073E-4,1.088272774E-3
3.112206208E0,-5.987370387E-4,6.706826389E-4,-5.915397778E-4,1.076206557E-3
3.122163208E0,-1.167389331E-3,1.494848169E-3,-2.671867609E-3,3.276621037E-3
3.132120208E0,1.159879612E-4,6.271898746E-4,-1.632435247E-3,1.752616667E-3
3.142077208E0,-1.118073473E-3,2.895091660E-3,1.462734304E-3,3.430923441E-3
3.152033208E0,-1.163347159E-3,-7.326714694E-5,-4.914924502E-4,1.265033405E-3
3.161990208E0,-1.494942117E-3,-1.087048091E-3,5.684699863E-4,1.933826158E-3
3.171947208E0,-9.639078053E-4,-8.122101426E-4,-9.500645101E-4,1.578425211E-3
3.181904208E0,2.375187585E-3,-2.225675620E-3,5.897479132E-4,3.308013094E-3
3.191861208E0,-5.252610426E-4,1.950694248E-3,5.047935992E-4,2.082288114E-3
3.201818208E0,-1.126457471E-3,4.184786230E-4,3.212764859E-4,1.243884791E-3
3.211774208E0,3.609178821E-4,1.694931649E-3,-5.684858188E-4,1.823795805E-3
3.221731208E0,3.915724810E-4,1.490444876E-3,5.237655714E-4,1.627601091E-3
3.231688208E0,-3.176273312E-4,-6.552645937E-4,3.547252156E-3,3.621223090E-3
3.241645208E0,-2.071126364E-3,8.705267683E-4,-5.090609193E-6,2.246643538E-3
3.251602208E0,4.154674243E-4,8.175298572E-4,6.487155333E-4,1.123298754E-3
3.261559208E0,1.132330624E-3,-2.013189718E-3,-3.067776561E-4,2.330068242E-3
3.271516208E0,1.096378081E-3,1.932391897E-4,-5.528535694E-4,1.242993704E-3
3.281472208E0,1.059335191E-3,-4.715910181E-4,-3.214627504E-3,3.417370206E-3
3.291429208E0,-1.397164655E-3,-1.650305465E-3,-9.035365656E-4,2.343492165E-3
3.301386208E0,6.841624854E-4,-2.107714303E-3,2.306226641E-3,3.198315058E-3
3.311343208E0,-4.711167421E-4,-4.253955558E-4,1.713672653E-3,1.827453508E-3
3.321300208E0,-1.665884629E-3,-6.782747805E-4,1.604967751E-3,2.410632646E-3
3.331257208E0,-2.441929886E-3,-1.245793886E-3,-1.438759267E-3,3.095973547E-3
3.341214208E0,5.190343363E-4,1.753862016E-3,-4.506401718E-3,4.863443744E-3
3.351170208E0,-1.520821825E-4,1.467306167E-3,-4.933839664E-3,5.149649523E-3
3.361127208E0,-2.754244488E-3,1.093501225E-3,-1.110179350E-3,3.164507200E-3
3.371084208E0,-1.303088153E-3,-1.742765307E-3,5.122553557E-5,2.176670326E-3
3.381041208E0,3.016181290E-5,1.214131713E-3,2.029019408E-3,2.364729437E-3
3.390998208E0,-1.690426143E-4,1.412536949E-3,1.443657093E-3,2.026815689E-3
3.400955208E0,1.900195261E-3,2.801427618E-4,3.152042627E-4,1.946426398E-3
3.410911208E0,-3.323327983E-4,-2.983028069E-3,-3.766845912E-4,3.025027741E-3
3.420868208E0,1.672802144E-3,-5.235970020E-4,-1.730179414E-3,2.462913242E-3
3.430825208E0,2.353506163E-3,1.947550103E-3,-2.254823223E-3,3.796863235E-3
3.440782208E0,3.646593541E-5,-1.059010625E-3,-8.160211146E-4,1.337431766E-3
3.450739208E0,-1.570485416E-3,-1.174857840E-3,1.616776921E-3,2.541787363E-3
3.460696208E0,-3.536232980E-4,1.371311024E-3,1.579688862E-3,2.121546667E-3
3.470653208E0,1.476234756E-3,2.167862840E-3,-1.850196160E-3,3.209692225E-3
3.480609208E0,-1.292973291E-3,1.723251306E-3,-2.235719934E-3,3.104805729E-3
3.490566208E0,-1.575268339E-3,3.213640302E-4,-3.985151649E-3,4.297229205E-3
3.500523208E0,1.160246786E-3,8.125668392E-4,-1.698702574E-3,2.211792917E-3
3.510480208E0,-6.035648985E-4,2.774517983E-3,9.215818718E-4,2.985222567E-3
3.520437208E0,-2.877864754E-4,-6.729327142E-4,3.797933459E-6,7.318974775E-4
3.530394208E0,1.701328438E-3,-2.693472430E-3,1.321263611E-3,3.448920080E-3
3.540350208E0,1.191541669E-3,8.435714990E-4,3.890238702E-3,4.155158431E-3
3.550307208E0,-1.010359963E-3,3.556814045E-5,-2.134097740E-3,2.361454110E-3
3.560264208E0,-1.792019582E-3,1.415610313E-7,-5.371531472E-3,5.662568724E-3
3.570221208E0,-5.680307513E-4,-8.456790820E-4,-3.829294816E-3,3.962490483E-3
3.580178208E0,8.973444346E-5,-1.327848993E-3,-1.360282302E-3,1.903051014E-3
3.590135208E0,2.167532686E-3,-1.717712730E-4,1.489566639E-3,2.635623662E-3
3.600092208E0,1.649122802E-3,-5.344850942E-4,2.122029662E-3,2.740125949E-3
3.610048208E0,1.447030809E-4,-2.167002298E-3,2.467975020E-3,3.287512531E-3
3.620005208E0,2.600857988E-4,3.783721477E-4,-2.071758732E-3,2.122026001E-3
3.629962208E0,1.825878862E-4,-7.649231702E-4,-2.523696050E-3,2.643385622E-3
3.639919208E0,-2.418593969E-3,-4.078103229E-4,-4.322389141E-3,4.969804215E-3
3.649876208E0,-5.796796177E-5,-4.416322336E-4,-7.992936298E-4,9.150243827E-4
3.659833208E0,-2.871309174E-3,1.699694432E-3,7.353192195E-4,3.416734097E-3
3.669790208E0,1.393943094E-4,-2.902514301E-3,3.060791641E-3,4.220481669E-3
3.679746208E0,-1.539865276E-3,-1.651483588E-3,2.920388244E-3,3.691510613E-3
3.689703208E0,-1.548120985E-3,-1.396071166E-4,5.919858813E-4,1.663314767E-3
3.699658958E0,-1.970947720E-3,-3.540245816E-4,4.473421723E-5,2.002990132E-3
3.709615958E0,1.903418917E-3,-1.864303835E-3,3.914162517E-5,2.664613373E-3
3.719572958E0,1.016729278E-3,1.556137577E-4,-1.970354468E-3,2.222667495E-3
3.729529958E0,-1.445629401E-3,1.584665850E-3,8.715046570E-4,2.315281967E-3
3.739485958E0,1.897898968E-3,5.055768415E-4,1.049588434E-3,2.226940574E-3
3.749442958E0,-2.094602678E-4,1.709326170E-3,3.357217647E-3,3.773139262E-3
3.759399958E0,2.007973380E-3,-9.559039026E-4,2.829385921E-4,2.241821495E-3
3.769356958E0,2.331813797E-3,-8.895909414E-4,-8.252020925E-4,2.628628183E-3
3.779313958E0,2.400984522E-4,7.885433733E-4,-3.814858384E-3,3.902895388E-3
3.789270958E0,-2.605759073E-4,-1.504437998E-3,-3.974894062E-4,1.577729800E-3
3.799227958E0,1.456481172E-3,1.963516697E-3,5.847960711E-5,2.445435562E-3
3.809183958E0,-8.388973074E-4,-6.559686735E-4,9.895954281E-5,1.069502961E-3
3.819140958E0,-4.253548104E-4,-9.007258341E-4,1.427299343E-3,1.740522093E-3
3.829097958E0,-3.523840569E-4,-1.118838787E-3,1.633960754E-3,2.011418032E-3
3.839054958E0,-5.719789770E-4,-2.207141370E-5,5.499152467E-4,7.937593312E-4
3.849011958E0,-8.505457081E-4,-5.065007135E-4,-6.506377831E-4,1.184609851E-3
3.858968958E0,4.045674577E-4,-2.240731381E-3,-3.495472483E-3,4.171675902E-3
3.868924958E0,-2.937134122E-4,7.787607610E-4,8.524041623E-4,1.191355844E-3
3.878881958E0,-4.078235943E-4,1.706978306E-3,2.089929767E-3,2.729084362E-3
3.888838958E0,-3.393802326E-4,1.904584467E-3,3.790091723E-3,4.255280979E-3
3.898795958E0,1.609336818E-3,1.908885315E-4,4.287501797E-4,1.676374105E-3
3.908752958E0,-9.030891815E-4,9.067468345E-4,-1.269547269E-3,1.802639775E-3
3.918709958E0,-2.804724732E-3,1.241851598E-3,8.640857413E-4,3.186741343E-3
3.928666958E0,1.310924534E-3,9.350562468E-4,7.213409990E-4,1.764422329E-3
3.938622958E0,-2.466359874E-4,-1.800699160E-3,-7.325168699E-4,1.959573356E-3
3.948579958E0,3.973164130E-4,1.293628477E-3,-1.785801724E-4,1.365000310E-3
3.958536958E0,4.363103071E-4,6.514005363E-4,2.220664173E-4,8.148636920E-4
3.968493958E0,-9.826218011E-4,5.033286288E-4,-2.564132214E-3,2.791712614E-3
3.978450958E0,5.353784654E-4,-1.087744720E-3,-1.697098836E-3,2.085656524E-3
3.988407958E0,4.930341383E-4,-1.838682219E-4,-4.802344367E-3,4.831087000E-3
3.998364958E0,1.882439596E-3,-4.655243829E-4,-1.471535303E-3,2.434277702E-3
4.008320958E0,-1.084321761E-3,-2.469552681E-3,3.809593618E-4,2.723889528E-3
4.018277958E0,-1.317174290E-3,3.296481445E-4,3.209801391E-3,3.485174455E-3
4.028234958E0,1.832546317E-3,-1.529166475E-4,2.490215003E-3,3.095606608E-3
4.038191958E0,-5.069869803E-4,-7.430035621E-4,-1.073981635E-3,1.400902082E-3
4.048148958E0,1.767352689E-3,3.725942224E-4,-4.962996580E-3,5.281448384E-3
4.058105958E0,1.113196835E-3,-1.751149073E-3,-4.485022277E-3,4.941776512E-3
4.068061958E0,-2.639237791E-4,-5.551232025E-4,9.118728340E-4,1.099695229E-3
4.078018958E0,3.405497409E-3,-7.492005825E-4,9.196009487E-4,3.606158624E-3
4.087975958E0,2.399621531E-3,1.977875829E-3,1.193373464E-3,3.330813191E-3
4.097932958E0,-4.039414926E-4,-3.141266294E-3,1.003989950E-3,3.322456693E-3
4.107889958E0,1.165193040E-3,-7.955543697E-4,3.583794460E-3,3.851514547E-3
4.117846958E0,-1.799241873E-4,7.012067363E-4,-5.143616349E-3,5.194309650E-3
4.127803958E0,9.119719616E-4,-8.519487455E-4,-4.166502506E-3,4.349396815E-3
4.137759958E0,1.758186845E-3,4.766928032E-4,-2.353292890E-3,2.975977896E-3
4.147716958E0,-1.650659367E-3,1.923588105E-3,2.537602559E-3,3.586682909E-3
4.157673958E0,1.672957791E-3,-1.592087559E-3,3.576560877E-3,4.257383971E-3
4.167630958E0,1.337133232E-3,-2.935295925E-4,-4.799664021E-4,1.450673171E-3
4.177587958E0,-1.077164547E-3,3.145532683E-4,-1.702901907E-3,2.039387684E-3
4.187544958E0,2.668838017E-3,-2.011185512E-3,-2.634742297E-3,4.255517653E-3
4.197500958E0,4.924712703E-4,6.600152701E-4,-7.641538978E-4,1.123423023E-3
4.207457958E0,1.096742461E-3,-1.485959627E-3,-1.091722399E-3,2.145408547E-3
4.217414958E0,-5.281275371E-4,-8.027544245E-4,2.499027178E-3,2.677399895E-3
4.227371958E0,1.850341563E-3,1.011923887E-3,2.904626541E-3,3.589513782E-3
4.237328958E0,1.128839795E-4,2.949667163E-3,8.395044133E-4,3.068883645E-3
4.247285958E0,6.623915397E-6,1.655104570E-3,3.020782024E-4,1.682458396E-3
4.257242958E0,-1.167727285E-3,-1.891339198E-4,-6.434721872E-4,1.346631021E-3
4.267198958E0,-3.788989270E-4,2.125686035E-3,9.801238775E-6,2.159213185E-3
4.277155958E0,-1.127191237E-3,9.750938043E-4,-2.183762379E-3,2.643896015E-3
4.287112958E0,-1.090647420E-4,-6.286622956E-4,-1.984824426E-3,2.084859565E-3
4.297069958E0,6.389104528E-4,-8.741049096E-4,-3.370679915E-4,1.133966838E-3
4.307026958E0,1.991796307E-3,-7.686438039E-4,9.859912097E-4,2.351647187E-3
4.316983958E0,1.184736611E-4,9.107654914E-4,-2.301856875E-3,2.478320977E-3
4.326940958E0,8.867956931E-4,3.128645942E-3,-4.392415285E-4,3.281427304E-3
4.336896958E0,-5.005822750E-4,-3.518015146E-4,1.457073726E-3,1.580319829E-3
4.346853958E0,6.941118045E-4,7.422249764E-4,1.459737308E-3,1.778629282E-3
4.356810958E0,1.505163498E-3,-1.437388361E-3,2.822773531E-4,2.100305444E-3
4.366767958E0,3.706569551E-4,-8.972994983E-4,5.983943120E-4,1.140442336E-3
4.376724958E0,-2.734919079E-3,-1.394344494E-3,8.394289762E-4,3.182549283E-3
4.386681958E0,3.271835158E-4,-1.133355312E-3,1.754491590E-3,2.114186381E-3
4.396637958E0,8.447000291E-4,-5.528526381E-4,3.285510466E-4,1.061654355E-3
4.406594958E0,8.103452856E-4,-1.696413383E-3,2.324856818E-3,2.989889140E-3
4.416551958E0,3.197256941E-3,-7.691765204E-4,5.177734420E-4,3.328989908E-3
4.426508958E0,-1.113069127E-3,-7.281638682E-4,-5.480647087E-5,1.331220962E-3
4.436465958E0,-4.465765087E-4,1.530852169E-4,1.873604953E-3,1.932164895E-3
4.446422958E0,2.933025826E-5,-7.310844958E-4,-3.071352839E-3,3.157301549E-3
4.456379958E0,-1.100562513E-4,-5.352450535E-4,5.672127008E-5,5.493786929E-4
4.466335958E0,-6.203178782E-4,-1.520881429E-3,1.027937979E-4,1.645734230E-3
4.476292958E0,-3.912486136E-5,1.917189918E-3,9.872782975E-4,2.156818577E-3
4.486249958E0,-5.797466729E-4,5.613751709E-4,4.578419030E-4,9.278294538E-4
4.496206958E0,9.105971549E-5,-4.558041692E-4,1.004184596E-3,1.106542370E-3
4.506163958E0,7.200982654E-4,5.179364234E-5,7.530478761E-4,1.043218672E-3
4.516120958E0,-1.809775480E-3,1.290922984E-3,1.772168092E-3,2.842947271E-3
4.526076958E0,-4.742002347E-4,-3.597037867E-4,-1.641737297E-3,1.746297234E-3
4.536033958E0,-3.587939776E-3,1.198352315E-3,-2.566443756E-3,4.571213588E-3
4.545990958E0,-8.438188815E-4,-1.055214554E-3,-5.182065070E-4,1.447081906E-3
4.555947958E0,-1.398443710E-4,-1.940031536E-3,-5.575800315E-4,2.023406608E-3
4.565904958E0,-3.726589726E-3,1.140646636E-4,2.850443125E-4,3.739215425E-3
4.575861958E0,4.135010531E-4,3.994880244E-4,2.126712352E-4,6.130276151E-4
4.585818958E0,-1.575347735E-3,-6.798906252E-4,-1.326102763E-3,2.168529522E-3
4.595774958E0,-1.320162322E-3,-1.491389237E-3,-4.652747884E-4,2.045373082E-3
4.605731958E0,-5.308012478E-4,-7.150778547E-4,-2.555590123E-3,2.706312469E-3
4.615688958E0,2.223257208E-3,-7.707057521E-4,7.034093142E-4,2.455940682E-3
4.625645958E0,8.133796509E-4,-6.303573027E-4,1.366883516E-4,1.038085012E-3
4.635602958E0,-1.220409758E-4,1.910375431E-4,-7.464922965E-4,7.801538895E-4
4.645559958E0,-8.133975789E-4,-1.763989218E-3,4.798937589E-4,2.000892701E-3
4.655516958E0,8.751213318E-4,1.888780855E-3,-4.164343700E-4,2.122910278E-3
4.665472958E0,-2.893251367E-3,2.757040784E-4,7.646782324E-4,3.005270206E-3
4.675429958E0,1.512784511E-4,1.548944041E-3,-9.529832751E-4,1.824908199E-3
4.685386958E0,-5.746992538E-4,1.042144373E-3,2.486488782E-3,2.756623041E-3
4.695343958E0,2.187810373E-3,-9.321700782E-5,-1.928325742E-3,2.917814903E-3
4.705300958E0,8.141519502E-4,5.627190694E-4,1.684762537E-5,9.898383664E-4
4.715257958E0,-2.030992880E-3,8.939718828E-4,2.395892516E-4,2.231932082E-3
4.725213958E0,-6.054027472E-4,1.077730209E-3,1.298673451E-4,1.242932185E-3
4.735170958E0,3.581572091E-4,-3.290802240E-3,1.046429388E-3,3.471695614E-3
4.745127958E0,7.672187639E-4,8.940892294E-4,7.481556386E-4,1.395620665E-3
4.755084958E0,1.192455413E-3,-1.958254725E-4,-5.811145529E-4,1.340892110E-3
4.765041958E0,2.171966014E-3,-1.731137745E-3,1.929980703E-3,3.382173824E-3
4.774998958E0,6.026030751E-4,-9.654508904E-4,6.790347397E-4,1.325259999E-3
4.784955958E0,-2.542057307E-3,-7.478706539E-4,-5.841022357E-4,2.713400319E-3
4.794911958E0,-2.179457340E-3,-1.103458926E-4,-5.867723376E-4,2.259759344E-3
4.804868958E0,-2.886792645E-3,-3.036912531E-4,-1.448304392E-3,3.243976844E-3
4.814825958E0,4.023422953E-4,-1.945527270E-3,-1.551052555E-3,2.520460218E-3
4.824782958E0,2.030066447E-3,-1.205701381E-3,-1.359570771E-3,2.724576716E-3
4.834739958E0,-7.176827639E-4,7.125269622E-4,2.403010614E-3,2.607148487E-3
4.844696958E0,-1.448367257E-4,-1.719738357E-3,1.748405397E-3,2.456704932E-3
4.854653958E0,-6.360677071E-5,-5.773082376E-5,3.327328712E-3,3.328437325E-3
4.864609958E0,1.947198762E-4,1.192091033E-3,8.394028991E-4,1.470916071E-3
4.874566958E0,-5.138119450E-4,-9.495671839E-5,5.864072591E-5,5.257929516E-4
4.884523958E0,-2.336475300E-4,2.110404894E-4,-1.852443442E-3,1.879009303E-3
4.894480958E0,-4.509352148E-4,2.354783937E-3,-2.223761752E-3,3.270086588E-3
4.904437958E0,-7.329892833E-5,1.781824976E-4,-7.217386737E-4,7.470130176E-4
4.914394958E0,-8.292392595E-4,1.602689736E-3,-1.719370484E-4,1.812681573E-3
4.924350958E0,3.904884215E-4,-7.680561393E-4,-1.434542239E-3,1.673410552E-3
4.934307958E0,-4.859487526E-4,6.320048124E-4,-4.913657904E-4,9.364916513E-4
4.944264958E0,4.083408276E-4,1.771375537E-4,-2.677287906E-3,2.714035828E-3
4.954221958E0,-2.525359159E-4,5.938140675E-4,-2.037043683E-3,2.136805209E-3
4.964178958E0,1.238035504E-3,2.064944245E-3,-7.888199762E-4,2.533567366E-3
4.974135958E0,-2.631487325E-3,-1.652119681E-3,-1.042603515E-3,3.277384181E-3
4.984092958E0,-5.931039341E-4,-1.761950552E-4,5.539609119E-4,8.304755662E-4
4.994048958E0,-1.796394354E-4,1.715305261E-3,-9.642960504E-4,1.975957828E-3
5.004005958E0,1.878451323E-3,1.359507442E-3,8.503822610E-4,2.469815752E-3
5.013962958E0,-1.410861034E-3,3.085560165E-3,6.509255618E-4,3.454694556E-3
5.023919958E0,5.263224011E-4,1.276741736E-3,-2.060704865E-3,2.480642914E-3
5.033876958E0,-5.466486327E-4,4.602912813E-4,1.832176000E-3,1.966611727E-3
5.043833958E0,-1.293665497E-3,-2.811327577E-4,-7.478948683E-4,1.520510697E-3
5.053790958E0,-8.064392023E-5,9.173750877E-4,-5.521439016E-4,1.073752011E-3
5.063746958E0,-2.782503143E-4,1.668120734E-3,-1.739747822E-4,1.700093305E-3
5.073703958E0,8.762390353E-4,-8.712466806E-4,7.052449510E-4,1.422756503E-3
5.083660958E0,-4.313731333E-4,2.166545019E-4,2.374220639E-5,4.833069891E-4
5.093617958E0,9.808044415E-4,-6.611878052E-4,1.586021855E-3,1.978537842E-3
5.103574958E0,-1.382218441E-3,8.315145969E-4,-2.491632476E-4,1.632184630E-3
5.113531958E0,-9.357650997E-4,-6.827758625E-4,1.713351347E-3,2.068190522E-3
5.123487958E0,6.568051176E-4,-1.540579833E-3,-1.631046645E-3,2.337753696E-3
5.133444958E0,7.852761773E-4,8.436925709E-4,-5.367854610E-3,5.490203907E-3
5.143401958E0,-1.039255410E-3,-1.843437552E-3,-4.310313612E-3,4.801782716E-3
5.153358958E0,-7.906570099E-4,1.954091713E-4,3.409106284E-4,8.829174979E-4
5.163315958E0,2.628894290E-4,-1.037634909E-3,1.493526623E-3,1.837503423E-3
5.173272958E0,4.701196449E-4,2.907738090E-4,-4.235003144E-5,5.543964409E-4
5.183229958E0,8.674632991E-4,3.484357148E-5,2.468694001E-4,9.025802737E-4
5.193185958E0,1.766708679E-3,1.811578870E-3,2.792887390E-3,3.768726248E-3
5.203142958E0,1.815952128E-4,2.041143365E-3,-7.483186200E-4,2.181564534E-3
5.213099958E0,9.741168469E-6,4.913378507E-5,7.847165689E-4,7.863136223E-4
5.223056958E0,2.297182800E-4,2.009337768E-4,3.636814654E-5,3.073556782E-4
5.233013958E0,2.519567497E-4,7.339529693E-4,3.157835454E-5,7.766378547E-4
5.242970958E0,3.582169302E-4,-1.242112368E-3,3.519570455E-4,1.339789635E-3
5.252927958E0,-1.223358675E-3,-5.903728306E-4,1.973286271E-5,1.358505029E-3
5.262883958E0,-2.851615660E-3,3.850181587E-3,1.375813968E-3,4.984824390E-3
5.272840958E0,2.043521265E-3,8.190367371E-4,-2.325084060E-3,3.202001909E-3
5.282797958E0,5.984900054E-4,-6.678067148E-4,-1.686990261E-3,1.910521457E-3
5.292754958E0,-2.151670866E-3,-2.375151962E-4,9.743459523E-4,2.373910491E-3
5.302711958E0,-8.648316143E-4,-1.888408326E-3,2.853739075E-3,3.529567457E-3
5.312668958E0,-4.104219843E-4,1.004288904E-3,1.792972907E-4,1.099631723E-3
5.322624958E0,1.878032228E-3,2.651454881E-3,-7.693208754E-4,3.339022708E-3
5.332581958E0,-2.212443389E-3,-3.757905215E-4,8.813673630E-4,2.411002425E-3
5.342538958E0,-5.543596344E-4,1.835964620E-3,1.049146987E-3,2.186044394E-3
5.352495958E0,1.385042211E-3,-2.542454749E-4,7.618479431E-4,1.601060579E-3
5.362452958E0,-4.134676419E-5,7.625492290E-4,1.482499763E-3,1.667631983E-3
5.372409958E0,-2.225022763E-5,2.025076188E-3,1.854625531E-3,2.746099871E-3
5.382366958E0,5.434051855E-4,-5.123838782E-4,2.024006099E-4,7.738168007E-4
5.392322958E0,1.163593493E-3,2.681538463E-4,2.714533359E-3,2.965560261E-3
5.402279958E0,-8.771868888E-4,2.991235815E-3,-2.094335854E-3,3.755421575E-3
5.412236958E0,-1.736941049E-3,-7.076812908E-4,-9.071575478E-4,2.083437504E-3
5.422193958E0,-4.540963564E-4,-1.039776951E-3,-1.500243321E-3,1.880975713E-3
5.432150958E0,-3.027576022E-4,1.794608310E-3,3.322716802E-4,1.850050167E-3
5.442107958E0,2.726854291E-3,-1.057371497E-3,-1.309034415E-3,3.204269013E-3
5.452064958E0,-1.268642605E-3,1.491513103E-5,-8.267909288E-5,1.271421391E-3
5.462020958E0,-7.834146963E-4,-3.270348534E-4,-2.105083317E-3,2.269816325E-3
5.471977958E0,4.118569195E-4,-1.337585971E-3,-1.243208535E-3,1.871985527E-3
5.481934958E0,9.527449729E-4,1.687764190E-3,1.020729542E-6,1.938110417E-3
5.491891958E0,-1.572913374E-3,1.274716109E-3,7.615890354E-4,2.163093964E-3
5.501848958E0,2.104113111E-3,1.848094165E-3,1.175444573E-3,3.037172036E-3
5.511805958E0,7.902047364E-4,-5.746884272E-4,-5.835499614E-4,1.138077709E-3
5.521762958E0,-1.100905938E-3,-9.856140241E-4,-2.104216255E-3,2.571216626E-3
5.531718958E0,1.217511483E-3,1.036851667E-3,3.572348505E-4,1.638600722E-3
5.541675958E0,3.099062014E-4,2.227284014E-3,-7.799342275E-4,2.380154057E-3
5.551632958E0,-1.597056282E-3,2.620209008E-3,-4.439726472E-4,3.100515397E-3
5.561589958E0,1.008580439E-3,-1.837123185E-3,-4.442390054E-4,2.142336200E-3
5.571546958E0,2.282066038E-3,9.431410581E-4,2.199114300E-3,3.306575897E-3
5.581503958E0,-1.296157367E-3,9.990669787E-4,3.492822871E-4,1.673366924E-3
5.591459958E0,2.505935263E-4,-5.485145375E-4,-2.009421587E-5,6.033813809E-4
5.601416958E0,-9.162258357E-5,-1.128213480E-4,-2.483251505E-3,2.487501033E-3
5.611373958E0,3.977287561E-4,4.741288722E-4,-2.180947922E-3,2.267050990E-3
5.621330958E0,8.051923942E-4,6.131455302E-4,-1.663229428E-3,1.946950016E-3
5.631287958E0,3.287093714E-4,6.202980876E-4,6.502978504E-4,9.569257351E-4
5.641244958E0,-6.529317470E-4,-1.007160172E-3,-6.296169013E-4,1.355399912E-3
5.651201958E0,2.220077906E-3,-1.011190005E-3,9.481515735E-5,2.441360491E-3
5.661157958E0,1.419531880E-3,3.136949614E-3,-8.948156610E-4,3.557557969E-3
5.671114958E0,-1.381818671E-3,1.779542305E-3,4.170928150E-4,2.291322777E-3
5.681071958E0,1.662707189E-3,-7.339492440E-4,-8.544605225E-5,1.819499304E-3
5.691028958E0,2.062133048E-3,8.888561279E-4,-6.277104840E-4,2.331625693E-3
5.700986667E0,-1.679980196E-4,-9.071798995E-4,1.959817484E-3,2.166121713E-3
5.710943667E0,1.260736375E-3,5.186339840E-4,1.599839889E-3,2.101886078E-3
5.720899667E0,3.499922343E-3,-2.153329551E-4,3.733830526E-3,5.122237313E-3
5.730856667E0,-6.648660637E-4,-1.559274271E-3,-1.378523186E-3,2.184881990E-3
5.740813667E0,8.805661928E-4,8.463589475E-4,6.100591272E-4,1.365244457E-3
5.750770667E0,2.332758857E-3,-2.150876448E-3,-1.304480247E-3,3.430699942E-3
5.760727667E0,-2.712599933E-3,-9.684329852E-4,-3.253647126E-3,4.345374606E-3
5.770684667E0,-2.575063379E-3,-1.163653098E-3,3.776419908E-4,2.850903964E-3
5.780641667E0,8.356468752E-4,3.061452881E-4,1.885790378E-3,2.085242429E-3
5.790597667E0,-2.317445353E-3,-8.439384401E-4,3.724340349E-4,2.494291916E-3
5.800554667E0,-1.460706349E-3,-1.574177295E-3,1.036359929E-3,2.384478789E-3
5.810511667E0,1.398693072E-3,-4.728958011E-4,-1.211361960E-3,1.909809034E-3
5.820468667E0,-1.706020092E-3,8.730655536E-4,-3.540828824E-3,4.026191349E-3
5.830425667E0,-4.122786922E-4,-6.900159642E-4,-2.779480070E-3,2.893372636E-3
5.840382667E0,-5.204029148E-4,2.436889336E-4,-3.251923248E-3,3.302303484E-3
5.850339667E0,-6.704935804E-4,-1.926206984E-3,5.443952978E-5,2.040293765E-3
5.860295667E0,3.255286720E-4,-6.686626002E-4,3.367145546E-3,3.448296350E-3
5.870252667E0,-1.257293508E-3,2.639805898E-4,3.567926586E-3,3.792172575E-3
5.880209667E0,2.257013926E-3,1.348952763E-3,2.415576950E-3,3.570545815E-3
5.890166667E0,5.940725096E-4,-1.418896951E-3,-1.661420800E-3,2.264179714E-3
5.900123667E0,-9.675137699E-5,4.948498681E-4,-2.924823202E-3,2.967966978E-3
5.910080667E0,1.769522554E-3,-6.251744926E-4,-1.398018561E-3,2.340194247E-3
5.920037667E0,-7.804541383E-4,7.391627878E-4,-3.756312653E-4,1.138669898E-3
5.929993667E0,3.689677687E-4,7.679266855E-4,-1.518241130E-3,1.740949378E-3
5.939950667E0,8.243683260E-4,-3.719059750E-4,1.904424280E-4,9.242107495E-4
5.949907667E0,-2.714714501E-4,-1.190200448E-3,3.230104223E-3,3.453092403E-3
5.959864667E0,-2.330094809E-3,-2.369980328E-3,-4.786141217E-4,3.357859445E-3
5.969821667E0,-3.625964746E-4,1.718035899E-3,-1.535257325E-3,2.332410471E-3
5.979778667E0,-1.202488784E-4,-1.799734309E-3,-2.992272377E-3,3.493879986E-3
5.989734667E0,-8.650926175E-4,-2.661682665E-4,-3.638081253E-3,3.748981993E-3
5.999691667E0,1.949069672E-3,-2.278985456E-3,-2.748319879E-3,4.067666340E-3
6.009648667E0,2.097384306E-3,-8.653765544E-4,3.032937646E-3,3.787691681E-3
6.019605667E0,6.100088358E-4,6.089489907E-4,3.864375874E-3,3.959334610E-3
6.029562667E0,-6.179182092E-4,-1.698131673E-3,-1.132322475E-3,2.132516889E-3
6.039519667E0,-1.037632464E-3,2.675045282E-3,-2.162700519E-3,3.593024064E-3
6.049476667E0,3.421487752E-3,2.702688798E-4,-4.558380693E-3,5.706001950E-3
6.059432667E0,-1.730397227E-3,1.651117578E-3,-1.188683324E-3,2.670848529E-3
6.069389667E0,-1.402500435E-3,1.000649296E-3,2.421969548E-3,2.972245443E-3
6.079346667E0,-2.564606257E-5,1.870533451E-4,3.769795410E-3,3.774520381E-3
6.089303667E0,-1.434910344E-3,-1.386065967E-3,2.979423851E-3,3.585681671E-3
6.099260667E0,-3.717765212E-4,-7.413150743E-4,1.633728854E-3,1.832166966E-3
6.109217667E0,1.193578821E-3,-5.502225831E-4,-1.708436757E-3,2.155488679E-3
6.119174667E0,-1.614374341E-4,2.571534365E-3,-1.857575029E-3,3.176387260E-3
6.129130667E0,-3.269351088E-3,-1.805879176E-3,3.191176802E-4,3.748558686E-3
6.139087667E0,2.702564234E-4,7.899040356E-4,2.220348455E-3,2.372115971E-3
6.149044667E0,-1.444619964E-3,-2.970654517E-3,1.629581675E-3,3.683375020E-3
6.159001667E0,-9.308961453E-4,-6.829993799E-4,1.490831375E-3,1.885638877E-3
6.168958667E0,1.923599979E-3,-8.576344699E-4,1.264208928E-3,2.456419747E-3
6.178915667E0,-2.919625025E-3,-6.680171937E-4,1.990719698E-3,3.596306741E-3
6.188872667E0,9.553327109E-4,-1.370551065E-3,-8.789552376E-4,1.887758755E-3
6.198828667E0,1.070381259E-3,-2.090403810E-3,1.003101468E-3,2.553765197E-3
6.208785667E0,1.583565492E-3,-1.168090850E-3,1.695099287E-3,2.597205709E-3
6.218742667E0,-1.339253853E-3,6.745504215E-4,2.023999579E-3,2.518966743E-3
6.228699667E0,-1.175767044E-3,-1.124631613E-3,3.883769736E-3,4.210806546E-3
6.238656667E0,-3.105059732E-4,-2.540433779E-4,8.347164840E-4,9.261228892E-4
6.248613667E0,-1.949682133E-3,1.459379680E-3,-7.720412686E-4,2.554818427E-3
6.258569667E0,-2.548627090E-3,-2.924483269E-4,-2.017068677E-3,3.263371280E-3
6.268526667E0,-9.605915984E-4,7.352447137E-4,-7.134787738E-4,1.404411965E-3
6.278483667E0,-3.864140017E-4,1.007420011E-3,-1.814695075E-3,2.111238754E-3
6.288440667E0,-2.157119103E-3,-8.829310536E-5,-1.042938791E-3,2.397640469E-3
6.298397667E0,6.557116285E-4,-1.500567421E-3,6.510978565E-4,1.762268068E-3
6.308354667E0,-2.024752786E-3,-3.700964153E-4,-1.938932575E-3,2.827729608E-3
6.318311667E0,9.358836105E-4,-1.808736473E-3,-1.981276087E-3,2.841278004E-3
6.328267667E0,1.038556453E-3,-1.387294382E-3,-2.828454599E-4,1.755900556E-3
6.338224667E0,-2.858180786E-3,-4.368126392E-4,2.359809354E-3,3.732117746E-3
6.348181667E0,-1.055903267E-4,2.569556236E-4,4.049241543E-4,4.910591414E-4
6.358138667E0,-1.798926387E-4,-8.562449366E-4,1.479775645E-3,1.719084847E-3
6.368095667E0,4.218390677E-4,2.155200578E-3,2.866681665E-3,3.611191147E-3
6.378052667E0,6.868236233E-4,2.379437909E-3,-1.794116572E-3,3.058153973E-3
6.388009667E0,1.306274091E-3,-1.357458532E-4,-3.118561581E-4,1.349827100E-3
6.397965667E0,-9.499560110E-4,-4.486665130E-4,-5.731126294E-4,1.196735622E-3
6.407922667E0,-5.597017007E-4,1.888300292E-3,2.644802444E-3,3.297563336E-3
6.417879667E0,2.397206146E-3,-2.267030068E-3,2.951865084E-3,4.427135656E-3
6.427836667E0,-9.615422459E-4,-2.074269578E-3,2.905431204E-3,3.697118912E-3
6.437793667E0,1.508006942E-3,6.051370874E-4,-1.559358090E-3,2.252082034E-3
6.447750667E0,7.469345583E-4,2.512652427E-4,-9.780721739E-4,1.256053595E-3
6.457707667E0,-1.566819847E-3,7.900223136E-4,-1.435603015E-3,2.267160273E-3
6.467663667E0,-2.661432605E-3,1.724028029E-3,-9.788824245E-4,3.318690548E-3
6.477620667E0,1.297089970E-3,-2.331295982E-4,-1.264372841E-3,1.826316095E-3
6.487577667E0,-2.163501456E-3,-5.403384566E-4,3.317492083E-4,2.254498112E-3
6.497534667E0,-5.975625245E-4,-8.764294907E-4,1.652677543E-3,1.963810756E-3
6.507491667E0,-5.128076300E-4,7.956000045E-4,1.766780391E-3,2.004361241E-3
6.517448667E0,-3.607412800E-4,-1.417486928E-3,1.688484102E-3,2.233916298E-3
6.527405667E0,-1.521968632E-3,9.274426848E-4,-1.983287744E-3,2.666452461E-3
6.537361667E0,-2.317455132E-3,-8.757840842E-4,-2.184622921E-3,3.303055155E-3
6.547318667E0,-2.420232631E-3,-1.578154974E-3,-8.085537702E-4,3.000309702E-3
6.557275667E0,4.959286889E-4,9.832736105E-4,1.815458760E-3,2.123361195E-3
6.567232667E0,1.418055966E-3,7.014870644E-4,-3.312989138E-3,3.671357222E-3
6.577189667E0,1.504342305E-3,-5.517965183E-4,-1.816025935E-3,2.421874349E-3
6.587146667E0,1.351690618E-3,7.868744433E-6,-9.036632255E-4,1.625957155E-3
6.597102667E0,3.660547081E-4,-2.517074347E-3,1.608230174E-3,3.009329428E-3
6.607059667E0,1.650269842E-4,-2.042808570E-3,-5.791308358E-4,2.129716715E-3
6.617016667E0,-9.841269348E-4,7.601687685E-4,1.040603966E-3,1.621486661E-3
6.626973667E0,4.710346693E-4,5.460241809E-4,-8.568810299E-4,1.119938019E-3
6.636930667E0,-1.579865580E-3,-7.003359497E-4,-1.567678526E-3,2.333251306E-3
6.646887667E0,-4.255563254E-4,2.485190518E-3,-3.404207528E-3,4.236260024E-3
6.656844667E0,-1.359526883E-3,-8.011506870E-4,-1.083795913E-3,1.914358730E-3
6.666800667E0,1.199418912E-3,4.573129117E-4,-8.323891088E-4,1.529906028E-3
6.676757667E0,8.888076991E-5,-7.403101772E-4,2.251518890E-4,7.788788884E-4
6.686714667E0,4.630363546E-4,-8.790176362E-4,1.074415632E-3,1.463367220E-3
6.696671667E0,2.168790903E-3,3.629979677E-3,-1.057178713E-3,4.358673339E-3
6.706628917E0,5.308541004E-4,1.213414595E-3,-8.831284940E-4,1.591884729E-3
6.716585917E0,-4.579776432E-4,1.738965511E-5,7.794834673E-4,9.042347028E-4
6.726542917E0,-1.606904669E-3,1.559874974E-3,1.224152744E-3,2.552234803E-3
6.736498917E0,3.891345114E-4,-1.694241539E-3,5.357256159E-4,1.819033258E-3
6.746455917E0,-1.532922615E-3,1.021161675E-3,2.079242840E-4,1.853606058E-3
6.756412917E0,-1.036509289E-3,5.340687931E-4,-1.068795100E-3,1.581740797E-3
6.766369917E0,9.528894443E-4,-9.953081608E-4,-1.680504531E-3,2.173184784E-3
6.776326917E0,1.266343519E-3,1.539221965E-3,-2.101283520E-3,2.896242842E-3
6.786283917E0,-1.016941038E-3,9.741261601E-4,-1.968313009E-4,1.421911886E-3
6.796240917E0,1.821722253E-3,-4.868842661E-4,7.744235918E-4,2.038494581E-3
6.806196917E0,-1.721641747E-4,9.819166735E-4,1.138821244E-3,1.513510715E-3
6.816153917E0,1.017469913E-3,5.528815091E-4,-6.473613903E-4,1.326649824E-3
6.826110917E0,-8.994247764E-5,1.997213811E-3,8.131610230E-4,2.158282536E-3
6.836067917E0,4.677234683E-4,1.300531439E-3,1.097586937E-3,1.764892165E-3
6.846024917E0,-6.461002631E-4,-1.876885071E-4,-1.335504465E-3,1.495407871E-3
6.855981917E0,2.234640997E-3,1.240031794E-3,1.602495089E-3,3.016502900E-3
6.865938917E0,4.849969409E-4,6.052106619E-5,-1.948512159E-3,2.008876419E-3
6.875894917E0,-6.590971025E-4,2.449110150E-3,3.233999945E-3,4.109903304E-3
6.885851917E0,-4.236062523E-4,-5.285097286E-4,7.821721956E-4,1.034677792E-3
6.895808917E0,7.495163009E-4,2.719215117E-3,8.516805246E-4,2.946398693E-3
6.905765917E0,7.730142679E-4,-1.699572429E-3,-2.706469968E-3,3.288020254E-3
6.915722917E0,2.503802534E-3,1.314060763E-3,-1.218295656E-3,3.078965268E-3
6.925679917E0,-1.747371629E-3,3.835568205E-4,-3.217346966E-4,1.817673419E-3
6.935635917E0,-1.321644522E-4,-2.071877010E-3,1.997345127E-3,2.880890374E-3
6.945592917E0,-5.551909562E-4,-1.765023917E-4,1.959576271E-3,2.044340788E-3
6.955549917E0,1.307956409E-3,-2.105915919E-4,-9.049195796E-4,1.604362251E-3
6.965506917E0,2.464251593E-3,-1.998716965E-3,-3.579717129E-3,4.783490373E-3
6.975463917E0,1.014160458E-3,2.633724362E-4,2.235425636E-4,1.071381236E-3
6.985420917E0,5.508132745E-5,-1.231944188E-3,8.152676746E-4,1.478303696E-3
6.995377917E0,-1.229893882E-3,-8.188886568E-4,2.404302359E-5,1.477767120E-3
7.005333917E0,2.357379766E-3,-8.885897696E-4,1.693898812E-3,3.035807030E-3
7.015290917E0,-2.834107727E-4,-7.082931697E-4,-1.362254843E-4,7.749569426E-4
7.025247917E0,1.294456306E-3,1.462152228E-3,-2.586629242E-3,3.241011740E-3
7.035204917E0,-8.595082909E-4,1.868284307E-3,-3.086503595E-3,3.708873845E-3
7.045161917E0,1.269022934E-3,-2.488410100E-4,-3.874264657E-4,1.349977897E-3
7.055118917E0,1.258902950E-3,-1.795990393E-4,1.466399990E-3,1.940984643E-3
7.065075917E0,-1.514934003E-3,1.700053923E-3,-9.708898142E-4,2.475446506E-3
7.075031917E0,-1.726389164E-3,2.183950506E-3,-3.450475633E-4,2.805194678E-3
7.084988917E0,1.468277769E-3,2.319744788E-3,-2.205085009E-3,3.521286042E-3
7.094945917E0,-8.345574606E-4,-8.598035201E-4,-4.173425958E-3,4.342030916E-3
7.104902917E0,1.080847112E-3,5.282973871E-4,7.592104375E-4,1.422578328E-3
7.114859917E0,2.038519830E-3,-1.906897873E-3,3.829225898E-5,2.791646269E-3
7.124816917E0,-1.122213667E-3,9.766770527E-4,1.131637953E-3,1.869188604E-3
7.134773917E0,-9.663030505E-5,-1.512579620E-3,2.237115987E-3,2.702206961E-3
7.144729917E0,-1.660906710E-4,1.741647720E-3,-4.267655313E-3,4.612353495E-3
7.154686917E0,-1.309918473E-3,2.485735342E-3,-2.600515261E-3,3.828504436E-3
7.164643917E0,-7.357723080E-4,8.418150246E-4,-3.994479775E-3,4.147997360E-3
7.174600917E0,-8.196569979E-6,-2.916269004E-4,-2.119913697E-4,3.606296905E-4
7.184557917E0,9.463444585E-4,1.144140959E-3,2.943968400E-3,3.297207350E-3
7.194514917E0,-2.489133505E-3,-4.332493991E-4,4.244123586E-3,4.939238368E-3
7.204471917E0,9.044562466E-4,5.276277661E-4,-2.318248153E-5,1.047363160E-3
7.214427917E0,-9.347228333E-4,-4.564104602E-4,-5.355738103E-4,1.169981448E-3
7.224384917E0,-3.756078891E-3,-1.569504850E-3,-4.322368652E-3,5.937536937E-3
7.234341917E0,-5.296592135E-4,-1.794808544E-3,-2.469608560E-3,3.098522718E-3
7.244298917E0,-4.861429334E-4,1.792882569E-3,1.985477284E-4,1.868203431E-3
7.254255917E0,2.643337706E-3,-5.626827478E-4,2.954387106E-3,4.004029130E-3
7.264212917E0,-2.567479620E-3,3.077657893E-4,3.335762769E-3,4.220661634E-3
7.274169917E0,-1.309668645E-3,2.532836981E-3,3.289157525E-3,4.353050925E-3
7.284125917E0,-2.270573750E-3,1.906317659E-3,-5.872147158E-4,3.022312574E-3
7.294082917E0,1.238742843E-4,1.408305950E-3,-1.593623310E-3,2.130329961E-3
7.304039917E0,-3.484817222E-3,1.198891550E-3,-7.896171883E-4,3.768923894E-3
7.313996917E0,7.109929575E-4,5.085999146E-4,-4.311557859E-4,9.747205602E-4
7.323953917E0,2.524065785E-3,-5.203019828E-5,-1.562451944E-4,2.529432306E-3
7.333910917E0,6.117438897E-5,-2.335424535E-3,4.160683602E-4,2.372986082E-3
7.343867917E0,3.846008331E-4,-1.749825664E-3,5.615020171E-3,5.893917133E-3
7.353823917E0,-1.104807016E-4,-1.313067041E-3,5.930969492E-4,1.445031152E-3
7.363780917E0,2.184806624E-3,1.538023353E-3,-2.046922222E-3,3.365826258E-3
7.373737917E0,6.217974005E-4,5.233585835E-4,-4.159873351E-3,4.238523624E-3
7.383694917E0,-3.165565431E-5,8.388292044E-4,-3.275128081E-3,3.380991048E-3
7.393651917E0,1.062104478E-3,2.639658749E-3,-1.143000089E-3,3.066319200E-3
7.403608917E0,2.083316213E-3,-8.648373187E-4,1.064708456E-3,2.494344428E-3
7.413564917E0,-1.773473574E-3,3.607496619E-4,3.021066077E-3,3.521674187E-3
7.423521917E0,-3.256655764E-4,1.808883622E-3,6.995331496E-4,1.966587057E-3
7.433478917E0,2.423249418E-3,-1.903511584E-4,-1.756167039E-3,2.998748735E-3
7.443435917E0,-1.594952075E-3,8.333884180E-4,-3.246387467E-3,3.711797403E-3
7.453392917E0,-6.015931722E-4,1.367619261E-3,-1.926790923E-3,2.438200166E-3
7.463349917E0,-1.086849952E-3,9.632641450E-4,-1.912884414E-3,2.401717597E-3
7.473306917E0,6.583194481E-4,1.878592186E-3,2.198769711E-3,2.965987414E-3
7.483262917E0,5.343402736E-4,-1.053487882E-3,-1.607955433E-3,1.995213503E-3
7.493219917E0,3.093031701E-4,7.486725226E-4,9.175203741E-4,1.223937349E-3
7.503176917E0,1.763901208E-3,1.976266503E-4,4.617311060E-4,1.834011826E-3
7.513133917E0,5.729356781E-4,-1.329430379E-3,1.115004532E-3,1.827259021E-3
7.523090917E0,5.934067303E-4,-2.614939585E-4,-1.426873729E-3,1.567315946E-3
7.533047917E0,-2.531013917E-3,-3.991788253E-4,7.103132084E-4,2.658932124E-3
7.543004917E0,4.504041281E-4,1.163567416E-3,-2.971010283E-3,3.222367935E-3
7.552960917E0,-3.663874231E-4,-2.580042928E-5,1.305760816E-3,1.356435297E-3
7.562917917E0,3.486727364E-4,-6.999038160E-4,6.777886301E-5,7.848770624E-4
7.572874917E0,1.070389408E-3,-1.108166762E-3,5.239788443E-4,1.627366242E-3
7.582831917E0,-1.106712036E-3,-2.877740189E-4,5.418714136E-4,1.265405091E-3
7.592788917E0,-9.570424445E-4,1.500500366E-4,-2.090130001E-3,2.303711934E-3
7.602745917E0,1.095143030E-3,1.626867801E-3,-7.276302204E-4,2.091765483E-3
7.612702917E0,5.491229240E-5,1.138177700E-3,-7.686428726E-4,1.374509259E-3
7.622658917E0,2.034229925E-3,5.712108687E-4,1.840271056E-3,2.801958387E-3
7.632615917E0,-1.309199724E-4,1.033536159E-3,2.572107129E-3,2.775080560E-3
7.642572917E0,1.756674843E-3,-3.401841968E-4,-2.396795899E-4,1.805291693E-3
7.652529917E0,-5.507376045E-5,-3.873221576E-4,1.970478334E-3,2.008939132E-3
7.662486917E0,7.764758775E-4,-9.756153449E-4,-1.040513627E-3,1.624010067E-3
7.672443917E0,-1.545268111E-3,-6.136912853E-4,-1.733889803E-4,1.671686055E-3
7.682400917E0,5.676725414E-4,4.808334634E-4,9.655458853E-4,1.218905981E-3
7.692356917E0,7.077548653E-4,-5.583325401E-4,1.002830453E-3,1.348451368E-3
7.702313542E0,-7.734915707E-4,9.757196531E-4,3.366481513E-3,3.589361479E-3
7.712270542E0,-1.664318843E-3,2.444153652E-4,1.357658766E-3,2.161696881E-3
7.722227542E0,2.522563329E-3,-1.187846996E-3,2.509868704E-3,3.751499320E-3
7.732184542E0,1.771818264E-3,2.076495439E-4,2.091486007E-3,2.748958350E-3
7.742141542E0,4.211151972E-4,2.919407561E-4,1.217401586E-3,1.320845955E-3
7.752098542E0,-1.589038875E-3,-9.251236916E-4,1.983059570E-3,2.704334234E-3
7.762054542E0,-9.413706139E-4,-1.942155883E-3,9.309295565E-4,2.350484619E-3
7.772011542E0,1.054135850E-3,1.025937498E-3,1.083262265E-3,1.826802472E-3
7.781968542E0,-9.938492440E-5,-9.717307985E-4,1.688272692E-3,1.950487834E-3
7.791925542E0,-4.863422364E-4,2.617144957E-3,5.948357284E-5,2.662614278E-3
7.801882542E0,1.795607852E-3,8.668657392E-4,-1.037800685E-3,2.247819839E-3
7.811839542E0,-6.347929593E-4,-9.075980633E-4,2.903183922E-4,1.144980836E-3
7.821796542E0,1.237342600E-3,5.314610898E-4,7.334854454E-4,1.533449868E-3
7.831752542E0,7.750178920E-4,-6.648311391E-4,-1.894256100E-3,2.151943157E-3
7.841709542E0,1.472237753E-3,1.759324223E-3,2.469393425E-3,3.370550342E-3
7.851666542E0,-1.085728407E-3,-4.300605506E-4,2.923727967E-3,3.148323915E-3
7.861623542E0,-3.072670661E-4,-5.727382377E-4,4.795240238E-4,8.077037998E-4
7.871580542E0,-1.484650420E-3,-6.515681744E-4,-1.097866334E-3,1.958070081E-3
7.881537542E0,8.868823061E-4,8.039511740E-4,-1.145404764E-3,1.656758820E-3
7.891494542E0,-5.898405798E-4,8.657369763E-4,-2.903889865E-3,3.087067989E-3
7.901450542E0,1.952385996E-3,-7.236022502E-4,-2.307666466E-3,3.108172423E-3
7.911407542E0,1.375545282E-3,-1.920692623E-3,1.580815762E-3,2.842562831E-3
7.921364542E0,1.017082948E-3,9.426781908E-4,2.025244758E-3,2.454529736E-3
7.931321542E0,-1.699873945E-3,-2.093059011E-3,2.751755528E-3,3.852612871E-3
7.941278542E0,-2.516224049E-4,-1.364400610E-3,2.416968346E-5,1.387619196E-3
7.951235542E0,3.593066940E-4,2.026868053E-3,-2.148170024E-3,2.975219296E-3
7.961192542E0,6.825990276E-4,-1.694337465E-3,-3.141424619E-3,3.633905545E-3
7.971148542E0,1.485542161E-3,1.350188628E-3,-1.244987361E-3,2.362168151E-3
7.981105542E0,-4.670233466E-4,8.173855022E-4,-1.452561468E-3,1.730943293E-3
7.991062542E0,-1.108046155E-3,3.995355219E-4,2.844182774E-3,3.078436384E-3
8.001019542E0,4.260381684E-4,-8.958047256E-4,1.422965899E-3,1.734591184E-3
8.010976542E0,-1.036037225E-3,-1.261723228E-3,1.418971457E-3,2.163053081E-3
8.020933542E0,1.319185831E-3,-7.985802367E-4,1.808058470E-3,2.376353737E-3
8.030890542E0,1.828914857E-3,-1.676624641E-3,-1.889741048E-3,3.118833271E-3
8.040846542E0,1.071836683E-3,1.191762276E-3,-1.612685621E-3,2.273738355E-3
8.050803542E0,-1.763897249E-3,-1.781675965E-4,6.880192086E-4,1.901695988E-3
8.060760542E0,5.999596324E-4,-3.881109878E-4,1.001975499E-3,1.230665105E-3
8.070717542E0,-3.784857690E-4,1.268641092E-3,4.906486720E-4,1.411891574E-3
8.080674542E0,1.742504537E-5,-1.384440809E-3,7.080594078E-4,1.555097461E-3
8.090631542E0,3.295475617E-4,-5.339272320E-5,-5.201902241E-4,6.181021336E-4
8.100588542E0,1.433049678E-3,2.946881577E-4,-1.191307791E-3,1.886713211E-3
8.110544542E0,-1.299619908E-3,-2.211658284E-4,-3.167251125E-4,1.355817475E-3
8.120501542E0,1.708027907E-3,-1.753335819E-3,-2.780402079E-3,3.704346305E-3
8.130458542E0,5.072086351E-4,-1.598605886E-3,-1.400618814E-3,2.185070809E-3
8.140415542E0,-4.968068097E-4,-2.709962428E-4,-2.668481320E-4,6.256707563E-4
8.150372542E0,1.251558540E-3,1.045092940E-4,1.821602695E-3,2.212590642E-3
8.160329542E0,-1.390750054E-3,1.080317423E-3,-4.286179319E-4,1.812452697E-3
8.170286542E0,-1.141744433E-3,8.552800864E-4,9.735366330E-4,1.727095235E-3
8.180242542E0,1.091984683E-3,-1.620645635E-3,-2.631590702E-3,3.277833498E-3
8.190199542E0,1.375611406E-3,1.820484176E-4,7.444983348E-4,1.574714621E-3
8.200156542E0,2.923661377E-4,5.767680705E-6,-1.695482060E-4,3.380204414E-4
8.210113542E0,7.064876845E-4,-2.129821107E-3,2.525837161E-3,3.378626371E-3
8.220070542E0,2.074755030E-4,7.070871070E-4,1.935564913E-3,2.071093864E-3
8.230027542E0,3.768525785E-4,-2.700267360E-4,2.307875082E-3,2.353979545E-3
8.239984542E0,1.045715762E-3,2.216203138E-4,-9.318049997E-4,1.418061203E-3
8.249940542E0,1.282204408E-3,4.850076512E-4,-4.178155214E-4,1.433126085E-3
8.259897542E0,2.528436016E-5,5.751932040E-4,-2.318596467E-3,2.389011532E-3
8.269854542E0,-3.652275074E-3,-1.742555760E-3,1.078798436E-3,4.188009057E-3
8.279811542E0,1.221590093E-3,-5.098693073E-4,1.977151260E-4,1.338409630E-3
8.289768542E0,-1.123873517E-4,-1.191372052E-3,2.926656976E-3,3.161853782E-3
8.299725542E0,4.122481216E-3,-5.506770685E-4,1.847567037E-3,4.550999952E-3
8.309682542E0,-1.764170011E-3,-1.085972413E-3,-4.200471565E-3,4.683544948E-3
8.319638542E0,-1.950814622E-4,-4.086177796E-5,-2.990685403E-3,2.997319743E-3
8.329595542E0,1.522390987E-3,-1.546081156E-3,3.110617399E-7,2.169802146E-3
8.339552542E0,-3.496980062E-4,-3.787036985E-4,7.991474122E-4,9.509688603E-4
8.349509542E0,-1.311898115E-3,1.852492802E-3,4.545150325E-3,5.080472195E-3
8.359466542E0,3.541823477E-3,-1.783308573E-3,2.366298810E-3,4.617799591E-3
8.369423542E0,-7.687998004E-5,8.921027184E-4,1.579601318E-3,1.815736246E-3
8.379379542E0,-2.214771230E-3,8.613523096E-4,-7.919454947E-4,2.504858692E-3
8.389336542E0,-2.805175027E-4,-1.989295706E-3,-2.836721018E-3,3.476057193E-3
8.399293542E0,-2.012556186E-3,2.045434900E-3,-4.054233432E-4,2.898025952E-3
8.409250542E0,1.371476101E-4,1.867801882E-3,2.444425598E-3,3.079400890E-3
8.419207542E0,1.691943849E-3,1.655761153E-3,3.582247533E-3,4.293799759E-3
8.429164542E0,-1.901120413E-4,-5.386834964E-4,3.785713576E-3,3.828570200E-3
8.439121542E0,5.388065474E-4,-3.633294255E-4,-1.196949743E-3,1.361987318E-3
8.449078542E0,-1.443916932E-3,2.854568884E-3,-3.121883608E-3,4.469856472E-3
8.459034542E0,-1.242060331E-3,1.706490293E-3,-2.805746160E-3,3.510987682E-3
8.468991542E0,4.877371248E-5,1.822603866E-3,-4.374614917E-3,4.739358543E-3
8.478948542E0,3.190177493E-3,3.132298589E-4,9.883707389E-4,3.354433201E-3
8.488905542E0,1.128946897E-4,1.646141522E-3,4.981247708E-3,5.247414206E-3
8.498862542E0,7.367895450E-4,-5.726236850E-5,1.161793247E-3,1.376917340E-3
8.508819542E0,1.345055527E-3,-9.025493637E-4,2.083513886E-3,2.639090722E-3
8.518776542E0,2.252958482E-3,-1.026430167E-3,-5.113296211E-4,2.528010837E-3
8.528732542E0,-1.430725912E-3,4.090135917E-4,-1.634385437E-3,2.210313215E-3
8.538689542E0,1.304090489E-3,-1.366676763E-3,-4.954477772E-4,1.952927514E-3
8.548646542E0,5.610685330E-4,-5.189925432E-4,1.526158303E-3,1.706842208E-3
8.558603542E0,2.672169125E-3,-4.888642579E-4,2.213181928E-3,3.503947822E-3
8.568560542E0,-3.515840508E-4,7.412498817E-4,-6.505148485E-4,1.047011127E-3
8.578517542E0,1.378065906E-3,1.124374568E-3,-2.685055137E-3,3.220683918E-3
8.588474542E0,2.382077742E-3,-4.125358537E-4,-3.940735012E-3,4.623188579E-3
8.598430542E0,9.338074597E-4,-3.898832947E-4,-1.097934321E-3,1.493139353E-3
8.608387542E0,2.092016162E-3,2.277538180E-3,-1.023098826E-3,3.257367495E-3
8.618344542E0,7.821683539E-4,-2.782903612E-4,5.129068159E-3,5.195822652E-3
8.628301542E0,-1.127850730E-3,1.183784567E-3,1.207829453E-3,2.032792453E-3
8.638258542E0,-3.463615431E-4,-8.133929223E-4,-9.596468881E-4,1.304797499E-3
8.648215542E0,-5.231954856E-4,-5.334941670E-4,3.200015053E-4,8.128656136E-4
8.658172542E0,-2.208858496E-4,3.103872761E-3,-1.729765907E-3,3.560183530E-3
8.668128542E0,1.325155608E-4,-1.497803256E-3,-1.459720545E-3,2.095652413E-3
8.678085542E0,1.606493490E-3,-2.082753927E-4,-1.909576356E-3,2.504132950E-3
8.688042542E0,-2.562419046E-3,-1.891393214E-3,4.238863476E-3,5.302011243E-3
8.697999542E0,3.231521696E-3,1.277917065E-3,3.114169464E-3,4.666246451E-3
8.707956542E0,-1.935809618E-3,-1.665675081E-3,4.510087892E-4,2.593307016E-3
8.717913542E0,1.004700782E-3,-6.539057940E-4,-4.209959880E-4,1.270532987E-3
8.727870542E0,-1.457125298E-3,-1.405183226E-3,-1.062551513E-3,2.286212971E-3
8.737826542E0,8.943921421E-5,2.134805545E-4,-2.114215866E-3,2.126847913E-3
8.747783542E0,2.097729128E-3,-1.025955193E-3,-5.304347724E-4,2.394663358E-3
8.757740542E0,1.305866055E-3,7.501207292E-4,8.688224480E-4,1.738625810E-3
8.767697542E0,-4.179981770E-4,-1.613435335E-3,-2.848589793E-4,1.690869804E-3
8.777654542E0,1.578907366E-3,-3.845130093E-3,-4.180825315E-3,5.895530021E-3
8.787611542E0,-9.135450236E-4,-3.571090288E-3,-3.133816645E-4,3.699386223E-3
8.797568542E0,2.744397847E-3,-2.090207301E-3,-1.969340257E-3,3.972277326E-3
8.807524542E0,-1.255403738E-3,-6.430456415E-4,1.523128711E-3,2.075925652E-3
8.817481542E0,3.477857681E-4,-1.215646043E-4,1.644474454E-3,1.685238596E-3
8.827438542E0,6.540493341E-4,2.635288984E-4,1.778723672E-4,7.272321436E-4
8.837395542E0,-8.518379182E-4,2.530545928E-3,2.674161457E-3,3.778945624E-3
8.847352542E0,-9.679517243E-4,-7.006675005E-4,-2.087038010E-3,2.404910215E-3
8.857309542E0,-7.238562685E-4,4.209855571E-3,1.942561939E-4,4.276048094E-3
8.867266542E0,1.255671261E-3,-1.345593482E-4,8.169030771E-4,1.504043607E-3
8.877222542E0,-1.171714743E-3,-2.895174548E-4,1.232130453E-3,1.724784406E-3
8.887179542E0,5.308440886E-4,1.199189574E-3,-1.700809225E-3,2.147697162E-3
8.897136542E0,-1.114981598E-3,5.012275651E-4,-6.121564656E-4,1.367168086E-3
8.907093542E0,-1.672913902E-3,-9.999964386E-4,-3.200080246E-4,1.975104792E-3
8.917050542E0,-5.008538719E-4,2.009961754E-4,-2.729885280E-3,2.782719480E-3
8.927007542E0,1.638710964E-4,1.810877584E-3,8.267909288E-5,1.820155815E-3
8.936964542E0,-6.614489248E-4,2.188276500E-3,5.885958672E-5,2.286817258E-3
8.946920542E0,1.004891004E-3,1.007962972E-3,-6.761727855E-4,1.575755349E-3
8.956877542E0,3.177547362E-3,1.820727251E-3,-1.565655693E-4,3.665565132E-3
8.966834542E0,9.467208292E-5,3.084929660E-3,2.389140427E-4,3.095615243E-3
8.976791542E0,3.832406364E-4,-1.158362255E-3,1.039509661E-3,1.602890150E-3
8.986748542E0,1.745181275E-3,-5.373125896E-4,-8.984729648E-4,2.035096108E-3
8.996705542E0,3.175171558E-3,-2.339854836E-4,1.208119094E-3,3.405292260E-3
9.006662542E0,-1.692021498E-3,6.443252787E-4,2.187362872E-3,2.839480261E-3
9.016618542E0,4.313307581E-4,2.880264074E-4,2.838232554E-3,2.885233001E-3
9.026575542E0,-5.809369031E-4,-8.163861930E-4,1.442203298E-3,1.756110604E-3
9.036532542E0,2.853435930E-3,2.668611705E-4,-3.052713349E-3,4.187167334E-3
9.046489542E0,-2.089657122E-3,4.538157955E-4,3.057997674E-4,2.160122488E-3
9.056446542E0,-4.327134229E-5,-1.861312427E-3,1.501729712E-4,1.867861954E-3
9.066403542E0,2.277407330E-3,-8.437186480E-4,2.124641091E-3,3.226847543E-3
9.076360542E0,1.019579708E-3,7.211659104E-4,1.381887123E-4,1.256470919E-3
9.086316542E0,-1.055821660E-3,-7.405411452E-5,-9.957859293E-4,1.453214715E-3
9.096273542E0,-1.405913732E-3,5.354452878E-4,8.834786713E-4,1.744657457E-3
9.106230542E0,1.293732785E-3,1.731204800E-3,-6.502354518E-4,2.256905120E-3
9.116187542E0,2.352279145E-3,6.117243320E-4,-4.883417860E-4,2.479092886E-3
9.126144542E0,-9.337952361E-4,5.326280370E-4,-1.364788041E-3,1.737329147E-3
9.136101542E0,-6.628026022E-4,-2.552633174E-3,5.377335474E-4,2.691542453E-3
9.146058542E0,3.611828433E-4,-5.518002436E-4,1.842948608E-3,1.957395240E-3
9.156015542E0,5.919765681E-4,-1.599714160E-3,1.374464482E-3,2.190587652E-3
9.165971542E0,-5.055122310E-4,-3.275219351E-4,-1.890570857E-3,1.984205483E-3
9.175928542E0,1.933262683E-3,4.448816180E-4,-2.027717419E-3,2.836734423E-3
9.185885542E0,1.810224610E-3,5.543371662E-4,-1.579122618E-4,1.899773438E-3
9.195842542E0,-1.925306860E-4,1.717830077E-3,-9.658997878E-4,1.980144095E-3
9.205799542E0,-8.679083548E-4,1.166555099E-3,1.054899767E-4,1.457821610E-3
9.215756542E0,9.137009620E-4,-1.588351093E-3,2.076787874E-3,2.769613063E-3
9.225713542E0,4.998457152E-4,1.685473137E-3,-9.363126010E-4,1.991819952E-3
9.235669542E0,-1.926350174E-3,1.927773468E-3,-9.629530832E-4,2.890400349E-3
9.245626542E0,2.378649544E-3,9.623775259E-4,-1.805311069E-3,3.137402144E-3
9.255583542E0,-1.047041966E-3,8.675800636E-4,-1.794605516E-3,2.251577448E-3
9.265540542E0,-7.152121980E-4,-1.168939285E-3,9.916909039E-5,1.373965811E-3
9.275497542E0,7.458082400E-4,1.045175828E-3,-5.053076893E-4,1.379839956E-3
9.285454542E0,2.008679323E-3,-5.705645308E-4,-9.007873014E-4,2.274149131E-3
9.295411542E0,-2.668258967E-4,-2.206927165E-4,-5.275309086E-4,6.310231325E-4
9.305367542E0,2.130757784E-4,1.817112789E-4,-1.484937966E-3,1.511112517E-3
9.315324542E0,-7.492096629E-4,-1.353641041E-3,-1.508618705E-3,2.160923317E-3
9.325281542E0,-6.477732677E-5,2.880580723E-5,5.145855248E-4,5.194459923E-4
9.335238542E0,1.327692997E-3,7.768068463E-5,1.451950520E-4,1.337865683E-3
9.345195542E0,-8.134883828E-4,1.503853127E-4,2.638447098E-3,2.765100755E-3
9.355152542E0,8.271087427E-4,-3.564292565E-4,9.095380083E-4,1.280003936E-3
9.365109542E0,-1.720737317E-3,-1.445395872E-3,6.345193833E-5,2.248139739E-3
9.375065542E0,1.114296843E-3,-1.000410877E-3,6.749443710E-4,1.642567893E-3
9.385022542E0,-1.488403650E-4,-3.340877593E-4,1.058439724E-3,1.119849425E-3
9.394979542E0,-9.869973874E-4,-9.358022362E-5,2.974767238E-3,3.135627724E-3
9.404936542E0,7.845374057E-4,-2.663264051E-3,4.761889577E-4,2.816954077E-3
9.414893542E0,-2.311209682E-4,2.674367279E-4,-9.422628209E-4,1.006378919E-3
9.424850542E0,3.880639561E-4,1.380904578E-3,-6.754137576E-4,1.585457294E-3
9.434807542E0,-1.143373316E-3,-9.383205324E-4,1.922734082E-4,1.491548533E-3
9.444763542E0,1.081431517E-3,1.253460534E-3,1.300946809E-3,2.105497575E-3
9.454720542E0,-9.413843509E-4,1.679138280E-3,-1.827022992E-3,2.654001295E-3
9.464677542E0,5.193594843E-4,-2.053137869E-4,-3.809480928E-3,3.850199081E-3
9.474634542E0,4.234153312E-5,6.487406790E-5,-2.708537504E-4,2.817147568E-4
9.484591542E0,1.591502340E-3,1.057966612E-3,-2.037417144E-4,1.921895870E-3
9.494548542E0,1.073687105E-3,6.822617725E-4,2.150351182E-3,2.498458591E-3
9.504505542E0,-4.301998997E-4,-1.927103847E-3,1.423574053E-3,2.434207114E-3
9.514461542E0,-1.249333378E-3,3.397613764E-4,1.747179776E-3,2.174605448E-3
9.524418542E0,1.453775214E-3,-2.058415674E-3,-8.302275091E-4,2.653265003E-3
9.534375542E0,1.194228651E-3,-8.550826460E-4,-1.630473882E-3,2.194491623E-3
9.544332542E0,-7.991472958E-4,-1.606626436E-3,-7.487013936E-4,1.944335023E-3
9.554289542E0,-2.032417106E-4,2.336592413E-3,3.481534310E-3,4.197862843E-3
9.564246542E0,2.971661743E-4,8.142739534E-5,2.292823046E-4,3.840683937E-4
9.574203542E0,-1.381764421E-3,-4.309210926E-4,2.089493908E-3,2.541840022E-3
9.584159542E0,1.712828758E-3,-1.323809847E-4,-1.348646358E-3,2.184068240E-3
9.594116542E0,7.713636151E-4,8.594412357E-4,-1.887246966E-3,2.212542017E-3
9.604073542E0,-6.230674917E-4,4.096338525E-4,-4.194077104E-3,4.259846916E-3
9.614030542E0,5.099442787E-4,-3.813309595E-4,-6.387308240E-4,9.019055015E-4
9.623987542E0,2.055449877E-4,1.245860942E-3,3.479709849E-4,1.309771749E-3
9.633944542E0,-1.732350211E-3,2.329349518E-4,6.492240354E-4,1.864614650E-3
9.643901542E0,-5.592276575E-4,2.860142849E-3,-1.739097759E-3,3.393760997E-3
9.653858542E0,-2.793700434E-3,-9.479252622E-4,-9.615402669E-4,3.102883192E-3
9.663814542E0,-2.157605486E-4,-9.774863720E-4,-1.802033745E-3,2.061397060E-3
9.673771542E0,2.022370230E-3,9.691203013E-4,-1.186746173E-3,2.537231165E-3
9.683728542E0,-5.225465866E-4,-2.359598875E-4,1.314228401E-3,1.433850861E-3
9.693685542E0,-1.241080929E-3,-3.467512317E-3,1.576141454E-3,4.006013657E-3
9.703642417E0,-1.809399575E-3,-6.783828139E-4,-4.838127643E-4,1.992035355E-3
9.713599417E0,-8.239039453E-4,-1.081293449E-4,7.754126564E-4,1.136562560E-3
9.723556417E0,2.164964098E-5,-4.034740850E-4,1.951102167E-4,4.486959337E-4
9.733512417E0,1.052669948E-3,-8.053798229E-4,-1.208011061E-3,1.793332485E-3
9.743469417E0,-2.234203508E-3,-6.848387420E-5,-3.980094567E-3,4.564811948E-3
9.753426417E0,8.629402146E-4,1.882230863E-4,-1.283864491E-3,1.558333011E-3
9.763383417E0,3.376165405E-3,2.061757259E-3,-4.412401468E-4,3.980455841E-3
9.773340417E0,6.012407830E-4,-8.158795536E-4,1.911396161E-3,2.163466017E-3
9.783297417E0,-1.569768065E-3,-3.170697019E-4,2.569196746E-3,3.027453863E-3
9.793254417E0,2.424651757E-4,-3.791451454E-4,-4.381900653E-4,6.281328968E-4
9.803210417E0,9.980038740E-4,-5.724905059E-4,-2.471247688E-3,2.725953456E-3
9.813167417E0,-8.582219016E-4,-2.222219482E-4,-2.557540312E-3,2.706832074E-3
9.823124417E0,-1.712830272E-3,-1.071237028E-3,-2.427311614E-3,3.158033879E-3
9.833081417E0,1.088449499E-4,-7.030172274E-4,-2.332404256E-4,7.486531515E-4
9.843038417E0,-4.695935640E-4,-8.156690747E-4,1.811800525E-3,2.041679528E-3
9.852995417E0,-2.855101600E-3,2.179299481E-3,1.119224355E-3,3.762128989E-3
9.862952417E0,-9.259077488E-4,-7.395250723E-4,2.565586939E-3,2.826028810E-3
9.872908417E0,-3.091583494E-5,-6.944462657E-4,2.614171244E-3,2.705014362E-3
9.882865417E0,-2.900413238E-4,-2.523614094E-4,5.496889353E-4,6.707966726E-4
9.892822417E0,-1.273754751E-4,-2.048626542E-3,-2.412442118E-3,3.167486731E-3
9.902779417E0,-1.444575028E-3,4.286458716E-4,-1.644678414E-4,1.515778336E-3
9.912736417E0,7.736294065E-4,-1.301792450E-3,1.045335084E-4,1.517924009E-3
9.922693417E0,-1.698849373E-3,-7.833633572E-5,2.203807235E-4,1.714874176E-3
9.932650417E0,9.279231890E-4,-4.882644862E-4,5.741361529E-4,1.195439658E-3
9.942606417E0,9.891758673E-4,-1.158050261E-3,-1.669577323E-3,2.259875603E-3
9.952563417E0,-1.698592794E-3,-4.157107323E-4,-1.314312220E-3,2.187567028E-3
9.962520417E0,-2.117498079E-4,-7.451437414E-4,-1.531736925E-4,7.896450826E-4
9.972477417E0,-2.511902712E-4,1.650773920E-3,2.658425830E-3,3.139327792E-3
9.982434417E0,1.649507903E-3,1.000430435E-3,2.481325530E-3,3.143042119E-3
9.992391417E0,-1.967457589E-3,-2.493973821E-3,-1.306253485E-3,3.434689644E-3
1.000234842E1,5.020918325E-4,-2.499939874E-4,-7.573757321E-4,9.424495750E-4
1.001230542E1,-6.216497859E-4,-1.592891291E-3,3.484264016E-4,1.745036412E-3
1.002226142E1,2.787649864E-4,3.562765196E-4,1.598248258E-3,1.661035933E-3
1.003221842E1,-4.722932354E-4,1.320316456E-3,1.100919209E-3,1.782784213E-3
1.004217542E1,-3.979576286E-5,-9.140763432E-4,-4.482418299E-4,1.018842481E-3
1.005213242E1,-1.566172577E-4,3.724275157E-4,-3.105038777E-4,5.095526253E-4
1.006208942E1,1.889223000E-3,1.170576550E-3,-4.876041785E-4,2.275339719E-3
1.007204642E1,9.240481304E-4,2.160137519E-3,-7.731588557E-4,2.473425492E-3
1.008200342E1,4.031338030E-4,-5.774293095E-5,-1.332156360E-3,1.393015318E-3
1.009195942E1,-7.240604609E-4,-6.509339437E-4,2.544843592E-3,2.724739888E-3
1.010191642E1,6.213685265E-4,1.075327396E-3,3.937942907E-3,4.129143034E-3
1.011187342E1,-1.767204027E-3,1.275532879E-3,-1.157491468E-3,2.467748102E-3
1.012183042E1,-2.059352584E-3,-7.338216528E-4,5.291495472E-5,2.186830418E-3
1.013178742E1,1.394583378E-4,6.233314052E-4,-2.199836075E-3,2.290691910E-3
1.014174442E1,-3.108798992E-3,1.914165914E-3,-1.111134887E-3,3.816186979E-3
1.015170142E1,1.157446997E-3,-7.894281298E-4,-1.751212403E-4,1.411930513E-3
1.016165742E1,1.363042975E-3,1.664408483E-3,8.861487731E-4,2.326671742E-3
1.017161442E1,-2.508652397E-4,1.777322032E-3,3.927644342E-3,4.318355827E-3
1.018157142E1,-2.018630039E-4,1.882137731E-4,5.233125761E-3,5.240398680E-3
1.019152842E1,-5.854093470E-4,-1.098405570E-3,-1.288204454E-3,1.791275974E-3
1.020148542E1,-1.447208226E-3,1.946653239E-3,-2.849082462E-3,3.741809904E-3
1.021144242E1,-2.526245080E-3,3.516841680E-4,-2.515222877E-5,2.550730992E-3
1.022139942E1,-2.745421370E-4,2.323488705E-3,-1.616124995E-3,2.843559942E-3
1.023135542E1,3.420591820E-4,-1.029236242E-3,1.886381768E-3,2.175952182E-3
1.024131242E1,5.519161932E-4,3.040339798E-3,1.063197851E-3,3.267823012E-3
1.025126942E1,2.685022773E-4,1.752795652E-4,7.201032713E-4,7.882671630E-4
1.026122642E1,1.290090848E-3,-3.644172102E-5,-1.304165460E-3,1.834805151E-3
1.027118342E1,-1.138796797E-3,1.091114245E-3,-2.715215087E-3,3.140028887E-3
1.028114042E1,-2.208588645E-3,1.883137971E-3,2.074213699E-3,3.567412912E-3
1.029109742E1,1.713426318E-4,1.050706021E-3,2.428870648E-4,1.091941192E-3
1.030105442E1,2.138353419E-3,-6.611738354E-4,2.636269666E-3,3.458268922E-3
1.031101042E1,-5.398809444E-4,-8.273962885E-4,2.963824198E-3,3.124149473E-3
1.032096742E1,-1.697823172E-3,1.043740660E-3,-1.592645422E-4,1.999340712E-3
1.033092442E1,1.953645842E-4,-6.743874401E-4,-2.110525966E-3,2.224249445E-3
1.034088142E1,1.049440354E-3,1.828185283E-3,1.912433654E-4,2.116638965E-3
1.035083842E1,-2.199516166E-4,3.166566603E-3,-7.501672953E-4,3.261636665E-3
1.036079542E1,1.747289207E-4,1.341236755E-3,-1.069480553E-3,1.724307073E-3
1.037075242E1,-4.625008442E-4,1.573381945E-3,7.442198694E-4,1.800916709E-3
1.038070842E1,1.140722074E-3,2.069137990E-4,-3.067295998E-3,3.279079888E-3
1.039066542E1,1.306735445E-3,-8.828332648E-4,1.968415454E-3,2.522223522E-3
1.040062242E1,-1.087979064E-3,-2.470609732E-3,-8.942158893E-4,2.843806067E-3
1.041057942E1,-1.608645194E-3,-6.483942270E-4,1.693591475E-4,1.742652276E-3
1.042053642E1,-6.028322969E-5,-8.779857308E-5,-3.467621282E-4,3.627487157E-4
1.043049342E1,1.162881963E-4,-1.042143442E-3,-2.467976883E-3,2.681509984E-3
1.044045042E1,-1.200911356E-3,-2.479184419E-3,-8.865920827E-4,2.893888213E-3
1.045040642E1,4.286109470E-4,-6.843041629E-4,-6.541879848E-4,1.039202315E-3
1.046036342E1,-9.293347830E-4,7.575312629E-4,1.636130735E-3,2.028408375E-3
1.047032042E1,2.250756603E-3,3.875130787E-4,-1.160774380E-3,2.561926781E-3
1.048027742E1,-1.750376541E-3,-1.061245799E-3,-4.241438583E-4,2.090444616E-3
1.049023442E1,-1.189841423E-4,-1.369886100E-3,-6.658788770E-4,1.527789198E-3
1.050019142E1,-3.626632970E-4,-2.076422796E-3,-1.736204140E-3,2.730835240E-3
1.051014842E1,-3.460785374E-4,-7.540797815E-4,-5.970709026E-6,8.297242435E-4
1.052010542E1,3.495531389E-3,-4.880307242E-4,2.201311290E-4,3.536293455E-3
1.053006142E1,7.643515710E-5,2.586289309E-3,1.014403999E-3,2.779163578E-3
1.054001842E1,-4.720450379E-3,9.473795071E-4,1.932395622E-3,5.187902519E-3
1.054997542E1,2.483214717E-3,-2.576804720E-3,-1.414019614E-3,3.847821379E-3
1.055993242E1,8.775950409E-4,-5.298983306E-4,1.030496322E-3,1.453577643E-3
1.056988942E1,-1.695611863E-3,-5.095293745E-4,2.532828599E-3,3.090297799E-3
1.057984642E1,7.965136319E-5,-9.058080614E-4,1.995402388E-3,2.192820849E-3
1.058980342E1,-3.366833553E-4,7.801502943E-4,2.341531217E-4,8.813727065E-4
1.059975942E1,3.577897092E-3,-6.907135248E-4,-1.875336282E-3,4.098209237E-3
1.060971642E1,-2.266588155E-3,1.145197079E-3,-1.659980975E-3,3.033881186E-3
1.061967342E1,6.242729723E-4,-2.632763237E-3,-8.210856467E-4,2.827603339E-3
1.062963042E1,1.921014627E-4,-4.145558923E-4,-1.475692727E-3,1.544806973E-3
1.063958742E1,4.443571903E-3,8.035739884E-4,-1.964650117E-3,4.924521550E-3
1.064954442E1,2.332253382E-3,-1.880461350E-4,9.313309565E-4,2.518361478E-3
1.065950142E1,2.605227288E-3,1.167502254E-3,2.825846896E-4,2.868819416E-3
1.066945742E1,-2.146590035E-3,-4.341257736E-4,-9.671309963E-4,2.394087787E-3
1.067941442E1,-8.365808753E-4,-1.039462164E-3,1.159669831E-3,1.767818789E-3
1.068937142E1,-1.171622425E-4,-7.737185806E-4,3.049774095E-4,8.398682357E-4
1.069932842E1,3.041498130E-4,6.135227159E-4,9.632669389E-6,6.848430623E-4
1.070928604E1,1.758374507E-3,-1.057676040E-3,-1.308818348E-3,2.433837500E-3
1.071924304E1,-9.013244417E-4,1.384176314E-3,-1.553563401E-3,2.267573385E-3
1.072920004E1,-2.192753600E-4,-1.316958107E-3,3.632297739E-4,1.383617074E-3
1.073915704E1,-9.577699238E-4,5.589723587E-4,7.613720372E-4,1.345161962E-3
1.074911304E1,-1.071663224E-3,1.285740174E-3,1.197610982E-3,2.058120970E-3
1.075907004E1,3.038593568E-4,-1.104447059E-3,1.125971787E-3,1.606221118E-3
1.076902704E1,-1.484469976E-5,1.461198553E-3,8.440865204E-4,1.687543668E-3
1.077898404E1,-5.479203537E-5,2.073822543E-4,-2.217106521E-4,3.084885408E-4
1.078894104E1,1.029716339E-3,9.333183989E-4,-2.519756556E-3,2.877598317E-3
1.079889804E1,6.230516592E-4,2.358201891E-5,-8.022831753E-4,1.016074690E-3
1.080885504E1,1.950982260E-4,1.526433043E-3,1.408779062E-3,2.086317234E-3
1.081881104E1,-5.705606891E-4,-7.963757962E-4,6.494764239E-5,9.818208110E-4
1.082876804E1,-9.455630789E-4,-3.118252382E-3,2.223989926E-3,3.945087913E-3
1.083872504E1,-1.629196689E-3,-1.149909571E-3,1.331830397E-3,2.397987923E-3
1.084868204E1,6.764946738E-4,-5.937116221E-4,9.814742953E-4,1.331702041E-3
1.085863904E1,-2.539005829E-3,1.121364534E-3,7.252776995E-4,2.868804064E-3
1.086859604E1,2.806117991E-4,-2.491101623E-5,-1.000684686E-3,1.039583273E-3
1.087855304E1,1.768253511E-3,1.593491994E-3,-9.029470384E-4,2.545830035E-3
1.088850904E1,-5.620226730E-4,2.775993198E-4,-3.074837849E-3,3.138082004E-3
1.089846604E1,-2.506929217E-3,7.953178138E-4,-9.209755808E-5,2.631673704E-3
1.090842304E1,-5.309394328E-4,-1.263940707E-3,-7.166713476E-4,1.546952039E-3
1.091838004E1,2.778625349E-4,-1.747086644E-4,1.167514361E-3,1.212773882E-3
1.092833704E1,3.034740221E-4,3.491006792E-3,6.895363331E-4,3.571370221E-3
1.093829404E1,1.714150421E-3,-2.030525357E-3,-6.973091513E-5,2.658233867E-3
1.094825104E1,-1.021723496E-3,-2.070656046E-3,5.685538054E-4,2.377979982E-3
1.095820804E1,4.075950710E-4,1.672934741E-5,-1.784881577E-3,1.830905748E-3
1.096816404E1,8.570703212E-4,2.049589530E-4,-3.122929484E-4,9.349356093E-4
1.097812104E1,-1.983457245E-3,1.844933257E-3,-5.479827523E-4,2.763723297E-3
1.098807804E1,2.177434508E-4,4.180613905E-4,-1.653402112E-3,1.719280687E-3
1.099803504E1,-2.384431427E-3,4.537478089E-4,3.733374178E-3,4.453030773E-3
1.100799204E1,2.388045192E-3,7.637292147E-4,2.365158871E-3,3.446740291E-3
1.101794904E1,-8.197324350E-4,1.735516824E-3,3.755860962E-3,4.217875232E-3
1.102790604E1,7.255331147E-4,4.493929446E-4,-5.259923637E-5,8.550549683E-4
1.103786204E1,-4.350724630E-4,-1.212951727E-3,-1.561546698E-3,2.024590831E-3
1.104781904E1,1.302320743E-4,-1.053147949E-3,-1.346340403E-3,1.714267621E-3
1.105777604E1,-2.471676096E-3,-5.724476650E-4,5.767773837E-5,2.537756051E-3
1.106773304E1,9.801408742E-4,-4.958324134E-4,1.661249436E-3,1.991551055E-3
1.107769004E1,-4.611619515E-4,4.042871296E-6,2.761933953E-3,2.800172468E-3
1.108764704E1,2.109810011E-3,-2.502617426E-3,1.955407672E-3,3.812874431E-3
1.109760404E1,-6.564154755E-4,-6.953962147E-4,2.362071536E-3,2.548301221E-3
1.110756104E1,-1.899044611E-3,-3.566285595E-4,-1.545963809E-3,2.474582483E-3
1.111751704E1,-6.540167378E-4,-2.341233194E-4,-1.483645290E-3,1.638217009E-3
1.112747404E1,5.584994797E-4,6.342362612E-4,-3.152774647E-3,3.264071886E-3
1.113743104E1,5.646247882E-4,2.190320753E-3,2.283733338E-4,2.273424846E-3
1.114738804E1,3.226425033E-4,-7.461458445E-4,1.753840595E-3,1.933077505E-3
1.115734504E1,2.222275361E-3,-4.389616661E-3,-7.418077439E-4,4.975693011E-3
1.116730204E1,-6.033186801E-4,6.113257259E-4,6.828363985E-4,1.097259368E-3
1.117725904E1,6.686070701E-4,1.335439272E-3,-1.011732966E-3,1.803894969E-3
1.118721504E1,-2.105361084E-3,-9.434921667E-4,-2.064801753E-3,3.096147451E-3
1.119717204E1,-3.383539151E-4,-1.133907586E-3,9.541567415E-4,1.520080548E-3
1.120712904E1,4.133839393E-4,-2.528969198E-4,9.525604546E-4,1.068744382E-3
1.121708604E1,-1.753097633E-3,4.746792838E-4,3.897218034E-3,4.299648839E-3
1.122704304E1,1.813513692E-3,2.428796142E-5,7.673837245E-4,1.969339889E-3
1.123700004E1,-8.958124090E-5,4.461323842E-4,2.875008620E-3,2.910796020E-3
1.124695704E1,3.346615937E-3,-9.724171832E-4,-2.133788541E-3,4.086378218E-3
1.125691304E1,1.642459305E-3,3.314660862E-4,-3.780687228E-3,4.135352252E-3
1.126687004E1,9.825913003E-4,2.528512850E-4,-2.247479744E-3,2.465884149E-3
1.127682704E1,-2.683782484E-3,6.581842899E-4,1.185334288E-3,3.006810994E-3
1.128678404E1,4.874758888E-4,-7.464047521E-4,1.857988536E-6,8.914910254E-4
1.129674104E1,5.977228284E-5,-9.876871482E-4,2.351830713E-3,2.551510598E-3
1.130669804E1,2.946241992E-3,1.669861376E-4,1.315862872E-3,3.231055762E-3
1.131665504E1,3.986620577E-4,-1.857988536E-6,5.507366732E-4,6.798865873E-4
1.132661204E1,-6.485318299E-4,4.820674658E-4,5.943337455E-4,1.003102775E-3
1.133656804E1,2.048451453E-3,-1.217828132E-3,-4.188171588E-3,4.818717668E-3
1.134652504E1,2.874318976E-3,-1.090167090E-3,-4.775039852E-4,3.110977968E-3
1.135648204E1,-1.537740114E-3,-1.098569483E-4,9.590052068E-4,1.815600230E-3
1.136643904E1,1.454901299E-3,-1.104316674E-3,8.460991085E-4,2.012992004E-3
1.137639604E1,1.250903122E-3,1.166294329E-3,1.686859876E-3,2.402185947E-3
1.138635304E1,-1.777713303E-3,-1.247777604E-3,-2.030394971E-4,2.181384555E-3
1.139631004E1,9.349824977E-4,-1.703711227E-3,-2.001472749E-3,2.789752207E-3
1.140626604E1,-4.857901949E-4,1.004186459E-3,5.637239665E-4,1.249866900E-3
1.141622304E1,8.985209279E-4,-1.956982538E-3,-1.567071304E-3,2.663237313E-3
1.142618004E1,-1.982639078E-4,1.812134869E-3,-1.010210253E-3,2.084146376E-3
1.143613704E1,4.129314329E-4,1.704010181E-3,-2.488121390E-4,1.770895408E-3
1.144609404E1,4.166682484E-4,2.066737041E-3,3.144196235E-3,3.785628665E-3
1.145605104E1,1.083790092E-3,-4.014801234E-4,2.799317241E-3,3.028525098E-3
1.146600804E1,-1.687999233E-3,-1.791873947E-4,-5.107177421E-4,1.772648342E-3
1.147596504E1,2.090493683E-3,-9.898543358E-4,-1.661469229E-3,2.847886136E-3
1.148592104E1,-5.605444312E-4,1.632016152E-3,-1.549497247E-3,2.319187034E-3
1.149587804E1,9.236351470E-4,-1.794658601E-4,7.711816579E-4,1.216565259E-3
1.150583504E1,-1.008175896E-3,1.540156081E-4,1.658274792E-3,1.946796017E-3
1.151579204E1,-4.939195933E-4,1.417649910E-4,1.883844845E-3,1.952671318E-3
1.152574904E1,1.286669401E-3,-1.142406836E-3,1.278802752E-3,2.143816225E-3
1.153570604E1,-2.976451069E-4,1.530075446E-3,-2.238168381E-3,2.727475239E-3
1.154566304E1,9.649177082E-5,1.677793451E-3,-2.038453706E-3,2.641892321E-3
1.155561904E1,7.191388868E-4,6.878962740E-4,-2.526610158E-3,2.715533265E-3
1.156557604E1,-1.296757255E-4,1.987538300E-3,-1.748288050E-4,1.999422267E-3
1.157553304E1,2.026419621E-3,-7.150368765E-4,1.514414325E-3,2.628898051E-3
1.158549004E1,3.985159565E-4,-6.967820227E-4,2.711396664E-4,8.472525441E-4