"Time (s)","Gyroscope x (rad/s)","Gyroscope y (rad/s)","Gyroscope z (rad/s)","Absolute (rad/s)"
-4.937083322E-4,3.310030093E-3,-6.893910468E-4,-1.198263764E-1,1.198740675E-1
9.462291666E-3,2.933192765E-3,-5.120243877E-4,-1.113018692E-1,1.113416897E-1
1.941829167E-2,2.612309530E-3,1.871275716E-3,-1.061616689E-1,1.062102904E-1
2.937429167E-2,1.812295872E-3,-4.183687270E-3,-1.051962674E-1,1.052950252E-1
3.932929167E-2,-1.174358069E-3,-1.153031364E-3,-1.029562578E-1,1.029694110E-1
4.928529167E-2,9.306045249E-4,6.326176226E-4,-1.082588807E-1,1.082647287E-1
5.924129167E-2,3.552080598E-3,-1.262278296E-3,-1.150872335E-1,1.151489554E-1
6.919729167E-2,1.833276358E-3,-1.291306689E-3,-1.172577143E-1,1.172791539E-1
7.915229167E-2,6.207581027E-4,-2.755309455E-3,-1.189805716E-1,1.190140895E-1
8.910829167E-2,7.334098336E-4,-9.941617027E-4,-1.142297536E-1,1.142364340E-1
9.906429167E-2,5.546701723E-4,-3.645643592E-4,-1.108868197E-1,1.108888062E-1
1.090202917E-1,-1.865876839E-3,-1.011179760E-3,-1.044646055E-1,1.044861607E-1
1.189762917E-1,2.194420435E-3,-3.058104776E-3,-1.033608615E-1,1.034293729E-1
1.289312917E-1,1.703599934E-3,-7.874937728E-4,-1.097726896E-1,1.097887325E-1
1.388872917E-1,3.879428259E-4,-4.423968494E-5,-1.151254773E-1,1.151261394E-1
1.488432917E-1,1.719523338E-3,-1.344394870E-3,-1.164434776E-1,1.164639327E-1
1.587992917E-1,2.035530750E-3,-3.520425409E-3,-1.164124981E-1,1.164835031E-1
1.687542917E-1,1.646176679E-3,-7.672496140E-4,-1.101386175E-1,1.101535911E-1
1.787102917E-1,8.332144353E-4,-5.956459790E-5,-1.057479382E-1,1.057512374E-1
1.886662917E-1,8.830155130E-4,-6.606392562E-4,-1.039596200E-1,1.039654690E-1
1.986222917E-1,2.120404039E-3,-1.560974866E-3,-1.106386185E-1,1.106699447E-1
2.085782917E-1,1.466331654E-3,-7.383245975E-4,-1.126767397E-1,1.126886992E-1
2.185332917E-1,1.293417881E-3,-9.068725631E-4,-1.145737395E-1,1.145846287E-1
2.284892917E-1,-1.257890486E-3,-3.334078006E-3,-1.138299182E-1,1.138856823E-1
2.384452917E-1,-8.252848638E-4,-3.951741382E-4,-1.116852611E-1,1.116890094E-1
2.484012917E-1,-3.192911390E-5,-8.859951049E-4,-1.047722250E-1,1.047759760E-1
2.583562917E-1,7.394660497E-4,-3.233043477E-3,-1.013025045E-1,1.013567798E-1
2.683122917E-1,2.138957148E-3,9.521143511E-4,-1.047696769E-1,1.047958342E-1
2.782682917E-1,1.019736985E-3,-1.758025028E-3,-1.128299981E-1,1.128483008E-1
2.882241667E-1,1.185918227E-3,-5.811741576E-4,-1.163467020E-1,1.163541973E-1
2.981801667E-1,2.414896386E-3,1.186124049E-3,-1.184101552E-1,1.184407171E-1
3.081351667E-1,5.023196340E-3,-6.932690740E-4,-1.148324683E-1,1.149443731E-1
3.180911667E-1,2.066131448E-3,7.331464440E-5,-1.059516147E-1,1.059717836E-1
3.280471667E-1,2.312135184E-4,-6.313575432E-4,-9.865508229E-2,9.865737343E-2
3.380031667E-1,-1.354735577E-4,-2.459789626E-3,-1.019662023E-1,1.019959574E-1
3.479581667E-1,2.095456468E-3,-1.387601718E-3,-1.090166569E-1,1.090456228E-1
3.579141667E-1,2.077808604E-3,-3.176284954E-4,-1.152796075E-1,1.152987688E-1
3.678701667E-1,1.377929817E-3,-2.107539214E-3,-1.195483878E-1,1.195749031E-1
3.778261667E-1,2.809522208E-3,-1.298434101E-3,-1.197557226E-1,1.197957113E-1
3.877811667E-1,2.861772082E-4,8.640531451E-4,-1.125625223E-1,1.125662023E-1
3.977371667E-1,-7.794359699E-4,-1.976035535E-3,-1.070776433E-1,1.070987111E-1
4.076931667E-1,2.483202610E-3,-1.856726594E-3,-1.031039432E-1,1.031505542E-1
4.176491667E-1,-1.899240771E-3,-5.238642916E-4,-1.068803295E-1,1.068984864E-1
4.276051667E-1,-4.541419912E-5,6.255563349E-4,-1.135875061E-1,1.135892377E-1
4.375601667E-1,2.201744122E-3,2.915175632E-3,-1.181715727E-1,1.182280276E-1
4.475161667E-1,3.179390449E-3,-5.687717348E-4,-1.146524698E-1,1.146979548E-1
4.574721667E-1,-7.616166258E-4,-8.043171838E-4,-1.104098931E-1,1.104154495E-1
4.674281667E-1,2.240192262E-4,-3.028322943E-3,-1.048825011E-1,1.049264502E-1
4.773831667E-1,1.825877931E-3,-2.044957131E-3,-1.070370525E-1,1.070721546E-1
4.873391667E-1,-7.033260772E-4,-1.633765176E-3,-1.092187166E-1,1.092331997E-1
4.972951667E-1,1.804149710E-3,-1.623563468E-3,-1.127603203E-1,1.127864387E-1
5.072511667E-1,1.983380411E-3,-1.851263456E-3,-1.146540940E-1,1.146861903E-1
5.172071667E-1,1.421293942E-3,-5.978411064E-4,-1.121156961E-1,1.121262984E-1
5.271621667E-1,-2.173490357E-4,-8.569667116E-4,-1.069310457E-1,1.069347004E-1
5.371181667E-1,8.259695023E-4,-2.781894989E-3,-1.048947349E-1,1.049348683E-1
5.470741667E-1,2.293637488E-3,-1.539531164E-3,-1.065339148E-1,1.065697233E-1
5.570301667E-1,9.418665431E-4,-8.009821177E-4,-1.102344096E-1,1.102413431E-1
5.669851667E-1,3.272089525E-4,8.292030543E-5,-1.146336868E-1,1.146341838E-1
5.769411667E-1,-1.009165426E-3,1.842937432E-3,-1.147383600E-1,1.147575971E-1
5.868971667E-1,9.975264547E-4,-1.637544483E-4,-1.116549522E-1,1.116595281E-1
5.968531667E-1,-7.007105742E-4,-5.637994036E-4,-1.072000489E-1,1.072038215E-1
6.068081667E-1,9.824071312E-4,-4.857685417E-4,-1.055885702E-1,1.055942577E-1
6.167641667E-1,-1.895042369E-3,3.653578460E-5,-1.035834178E-1,1.036007576E-1
6.267201667E-1,3.360439790E-3,-1.417816617E-3,-1.075717658E-1,1.076335800E-1
6.366761667E-1,-8.844770491E-5,-1.611505635E-3,-1.116388068E-1,1.116504722E-1
6.466321667E-1,2.313979203E-4,-1.327879727E-3,-1.134910360E-1,1.134990399E-1
6.565871667E-1,5.171902012E-3,-2.784735523E-3,-1.174331158E-1,1.175799303E-1
6.665431667E-1,-1.109429519E-3,1.702158712E-3,-1.137417033E-1,1.137598490E-1
6.764991667E-1,1.162790228E-3,5.644336343E-4,-1.083714515E-1,1.083791593E-1
6.864551667E-1,1.907364931E-4,-6.329240277E-4,-1.055295914E-1,1.055316618E-1
6.964101667E-1,2.511844505E-3,-2.661468461E-4,-1.051523238E-1,1.051826573E-1
7.063661667E-1,4.878418986E-4,-5.018366501E-4,-1.076330692E-1,1.076353446E-1
7.163221667E-1,-3.652664600E-4,-8.911173791E-5,-1.132469475E-1,1.132475717E-1
7.262781667E-1,3.382600378E-3,1.397730783E-3,-1.138879731E-1,1.139467685E-1
7.362341667E-1,-7.476750761E-4,-2.869174816E-3,-1.123515517E-1,1.123906684E-1
7.461891667E-1,1.062475494E-3,-2.971973270E-3,-1.084508151E-1,1.084967316E-1
7.561451667E-1,3.691138700E-4,-1.935090870E-3,-1.055101082E-1,1.055284973E-1
7.661011667E-1,2.972084912E-4,-8.876696229E-4,-1.030496135E-1,1.030538652E-1
7.760571667E-1,-2.304557944E-3,-1.496788114E-3,-1.090927124E-1,1.091273168E-1
7.860121667E-1,-4.944072571E-4,-1.560437493E-3,-1.149647161E-1,1.149763687E-1
7.959681667E-1,1.247767475E-3,9.442046285E-4,-1.178802848E-1,1.178906696E-1
8.059241667E-1,2.252844395E-3,-2.542139962E-3,-1.105856150E-1,1.106377695E-1
8.158801667E-1,1.708239550E-3,-1.190969720E-3,-1.057313979E-1,1.057519030E-1
8.258361667E-1,3.837969154E-3,-2.679676749E-3,-1.037545353E-1,1.038600706E-1
8.357911667E-1,7.047840627E-4,-1.505963504E-3,-1.054675281E-1,1.054806339E-1
8.457471667E-1,1.511455514E-3,3.174599260E-5,-1.091357693E-1,1.091462397E-1
8.557031667E-1,3.109294921E-3,-1.399560831E-3,-1.116305590E-1,1.116826226E-1
8.656591667E-1,3.436021507E-4,-1.829927787E-3,-1.161645874E-1,1.161795080E-1
8.756141667E-1,1.108920551E-3,-3.929985687E-4,-1.135529131E-1,1.135590077E-1
8.855701667E-1,6.660368526E-4,-2.034837380E-3,-1.098740175E-1,1.098948766E-1
8.955261667E-1,9.900542209E-4,-3.414321691E-4,-1.078798845E-1,1.078849678E-1
9.054821667E-1,1.738668885E-3,-1.342248172E-3,-1.103347838E-1,1.103566451E-1
9.154371667E-1,2.291667508E-3,7.148711011E-4,-1.122967005E-1,1.123223563E-1
9.253931667E-1,2.184075769E-3,-2.673734911E-3,-1.124679372E-1,1.125209133E-1
9.353491667E-1,2.997908974E-3,-2.729660831E-3,-1.134563610E-1,1.135287821E-1
9.453051667E-1,1.299877535E-3,-1.594888046E-3,-1.088392362E-1,1.088586822E-1
9.552611667E-1,-2.327946713E-4,-1.671290025E-3,-1.059626713E-1,1.059761064E-1
9.652161667E-1,8.852003375E-4,1.002447680E-4,-1.069528311E-1,1.069565413E-1
9.751721667E-1,-4.176627845E-4,-9.369784966E-4,-1.047940850E-1,1.047991060E-1
9.851281667E-1,3.240275546E-4,-1.879204996E-3,-1.130400300E-1,1.130561134E-1
9.950841667E-1,2.198617207E-3,-5.582794547E-4,-1.181857809E-1,1.182075480E-1
1.005039167E0,2.460672287E-3,-1.207217574E-4,-1.183892488E-1,1.184148797E-1
1.014995167E0,2.202733420E-3,2.469643950E-4,-1.122422889E-1,1.122641726E-1
1.024951167E0,9.830056224E-4,-9.155049920E-4,-1.057327241E-1,1.057412568E-1
1.034907167E0,-1.398872817E-3,-7.024798542E-4,-1.015087888E-1,1.015208576E-1
1.044862167E0,-1.780798193E-4,-4.787463695E-5,-1.052316204E-1,1.052317819E-1
1.054818167E0,3.263529390E-3,-6.923582405E-4,-1.132403687E-1,1.132895012E-1
1.064774167E0,6.419138517E-4,-9.296452627E-4,-1.201467440E-1,1.201520552E-1
1.074730167E0,2.912314958E-4,2.845348790E-4,-1.215419844E-1,1.215426663E-1
1.084686167E0,1.825212268E-3,-2.907795832E-3,-1.157315001E-1,1.157824114E-1
1.094641167E0,3.123333212E-3,-1.730632037E-3,-1.059115604E-1,1.059717364E-1
1.104597167E0,-2.189339139E-4,-7.370067760E-4,-1.007117406E-1,1.007146752E-1
1.114553167E0,-6.235007895E-4,4.366971552E-6,-1.037051305E-1,1.037070049E-1
1.124509167E0,8.441672544E-4,-4.329243675E-4,-1.105393395E-1,1.105434105E-1
1.134464167E0,2.161277924E-3,-2.524139360E-3,-1.130848005E-1,1.131336136E-1
1.144420167E0,1.696556457E-3,-8.119931445E-4,-1.177037880E-1,1.177188147E-1
1.154376167E0,2.324903384E-3,-3.520306200E-3,-1.149034947E-1,1.149809151E-1
1.164332167E0,1.293461071E-3,1.513939351E-4,-1.125481874E-1,1.125557215E-1
1.174287167E0,2.590087708E-3,-2.848180942E-3,-1.095045805E-1,1.095722311E-1
1.184243167E0,2.206326229E-3,5.433550104E-4,-1.058728248E-1,1.058972055E-1
1.194199167E0,-1.686207019E-3,-2.236892469E-3,-1.049357206E-1,1.049731034E-1
1.204155167E0,9.367403109E-4,-9.018499404E-4,-1.063535884E-1,1.063615371E-1
1.214111167E0,2.821829170E-3,-1.313251443E-3,-1.129750758E-1,1.130179415E-1
1.224066167E0,4.499887116E-3,9.949095547E-4,-1.164475754E-1,1.165387345E-1
1.234022167E0,-8.452049224E-4,1.310286112E-3,-1.172605678E-1,1.172709341E-1
1.243978167E0,2.328750445E-3,-8.655162528E-4,-1.128493026E-1,1.128766464E-1
1.253934167E0,-7.305513136E-4,-3.670444712E-4,-1.078463793E-1,1.078494782E-1
1.263889167E0,-5.787510891E-4,-6.221756339E-4,-1.025879681E-1,1.025914873E-1
1.273845167E0,-5.432061153E-4,-4.260241985E-5,-1.039946377E-1,1.039960651E-1
1.283801167E0,2.090127673E-3,1.018401235E-3,-1.100770310E-1,1.101015827E-1
1.293757458E0,3.438269719E-3,-6.497064605E-4,-1.166022643E-1,1.166547550E-1
1.303713458E0,2.051028889E-3,-1.422821544E-3,-1.208247095E-1,1.208504927E-1
1.313668458E0,1.531623537E-3,3.744652495E-4,-1.182699278E-1,1.182804376E-1
1.323624458E0,2.818196546E-3,4.929304123E-5,-1.110825911E-1,1.111183455E-1
1.333580458E0,-1.315923873E-4,-2.357283607E-3,-1.041344106E-1,1.041611712E-1
1.343536458E0,-1.112168306E-3,-1.425443217E-3,-1.012584642E-1,1.012746038E-1
1.353491458E0,1.501387567E-3,4.509370774E-5,-1.024950072E-1,1.025060130E-1
1.363447458E0,8.537067915E-4,-6.904713809E-4,-1.130243465E-1,1.130296796E-1
1.373403458E0,7.690284401E-4,-2.565328032E-5,-1.191600263E-1,1.191625106E-1
1.383359458E0,1.347733429E-3,-1.027534716E-3,-1.203278154E-1,1.203397498E-1
1.393314458E0,1.698868116E-3,1.921782270E-3,-1.137709916E-1,1.137999030E-1
1.403270458E0,3.249626840E-3,-5.698706955E-4,-1.068243980E-1,1.068753332E-1
1.413226458E0,6.173207657E-4,-4.261899740E-4,-1.055819988E-1,1.055846637E-1
1.423182458E0,1.875131740E-3,-8.379155770E-4,-1.073857546E-1,1.074053933E-1
1.433138458E0,2.143282909E-3,1.344509423E-3,-1.113844961E-1,1.114132278E-1
1.443093458E0,5.012839101E-3,9.940378368E-4,-1.177055091E-1,1.178163976E-1
1.453049458E0,6.414576201E-4,-4.326514900E-4,-1.160751879E-1,1.160777666E-1
1.463005458E0,2.898220439E-3,-3.029555082E-4,-1.118988246E-1,1.119367607E-1
1.472961458E0,-1.676033018E-3,-2.451054752E-3,-1.053004935E-1,1.053423500E-1
1.482916458E0,3.714052727E-4,-1.229463145E-3,-1.035182998E-1,1.035262667E-1
1.492872458E0,1.708626514E-3,3.196345642E-4,-1.102632284E-1,1.102769292E-1
1.502828458E0,5.964905140E-4,-7.869089022E-4,-1.156502739E-1,1.156544892E-1
1.512784458E0,2.411954338E-3,-1.037560403E-3,-1.198661774E-1,1.198949313E-1
1.522739458E0,1.744566136E-3,-1.564866863E-3,-1.141169444E-1,1.141410063E-1
1.532695458E0,2.093355171E-3,-2.377559431E-3,-1.056575626E-1,1.057050399E-1
1.542651458E0,2.154341433E-3,-1.901119947E-3,-9.966917336E-2,9.971057899E-2
1.552607458E0,-5.773709854E-4,2.230638638E-4,-9.979352355E-2,9.979544307E-2
1.562563458E0,-4.825624637E-4,-1.986028627E-3,-1.081643701E-1,1.081836777E-1
1.572518458E0,-4.901959328E-4,-1.226428896E-3,-1.181561351E-1,1.181635167E-1
1.582474458E0,5.638802890E-3,-1.113638282E-4,-1.207042485E-1,1.208359388E-1
1.592430458E0,2.456573537E-3,-1.358927228E-3,-1.186600924E-1,1.186932978E-1
1.602386458E0,6.898324937E-4,-3.608233295E-3,-1.114445254E-1,1.115050558E-1
1.612341458E0,-5.698329769E-4,-6.424626336E-4,-9.994171560E-2,9.994540502E-2
1.622297458E0,1.883690129E-4,-1.501598395E-3,-9.965355694E-2,9.966504749E-2
1.632253458E0,8.663798217E-4,-1.540518366E-3,-1.047494486E-1,1.047643584E-1
1.642209458E0,-8.652075194E-4,-2.483809367E-3,-1.122446507E-1,1.122754626E-1
1.652164458E0,1.385484124E-3,1.684083603E-3,-1.204606071E-1,1.204803452E-1
1.662120458E0,2.278974745E-3,1.304849051E-3,-1.216145530E-1,1.216429031E-1
1.672076458E0,2.499161521E-3,-9.111212566E-4,-1.172795743E-1,1.173097374E-1
1.682032458E0,2.051217947E-3,-2.327390015E-3,-1.100253835E-1,1.100691113E-1
1.691987458E0,-5.117900437E-4,1.075890847E-3,-1.073062196E-1,1.073128335E-1
1.701943458E0,-5.958531983E-5,-1.829351299E-3,-1.047674343E-1,1.047834212E-1
1.711899458E0,1.845565625E-3,-6.986455992E-4,-1.089277491E-1,1.089456229E-1
1.721855458E0,1.362734474E-3,-3.694789484E-4,-1.118718758E-1,1.118807855E-1
1.731811458E0,8.333481383E-4,-1.060236245E-3,-1.147910357E-1,1.147989566E-1
1.741766458E0,4.043128574E-4,-2.580918372E-4,-1.122525111E-1,1.122535359E-1
1.751722458E0,1.093589817E-4,-1.568849199E-3,-1.062766612E-1,1.062882964E-1
1.761678458E0,3.024987876E-3,-8.181044832E-4,-1.043333486E-1,1.043803979E-1
1.771634458E0,1.218090416E-3,-8.312594146E-4,-1.040417179E-1,1.040521687E-1
1.781589458E0,3.217325546E-3,-1.210227609E-3,-1.064987555E-1,1.065542151E-1
1.791545458E0,-1.042070799E-3,-1.177269034E-3,-1.125170290E-1,1.125280130E-1
1.801501458E0,-6.074429257E-4,-1.562362537E-3,-1.155242771E-1,1.155364382E-1
1.811457458E0,2.317003091E-4,-1.372090541E-3,-1.116373762E-1,1.116460483E-1
1.821412458E0,1.534252428E-3,-1.642401330E-3,-1.080098823E-1,1.080332638E-1
1.831368458E0,8.260296308E-4,-2.351362258E-3,-1.057203636E-1,1.057497352E-1
1.841324458E0,-8.099501720E-4,-2.001688816E-3,-1.015075073E-1,1.015304723E-1
1.851280458E0,2.795543522E-3,-1.010404900E-3,-1.064891517E-1,1.065306313E-1
1.861236458E0,2.204854274E-3,1.123053953E-3,-1.142029986E-1,1.142298014E-1
1.871191458E0,-4.722046433E-4,-1.457026228E-4,-1.162871271E-1,1.162881771E-1
1.881147458E0,2.058863640E-3,-1.792069525E-3,-1.184802428E-1,1.185116803E-1
1.891103458E0,2.203556709E-3,-2.488112077E-4,-1.164584905E-1,1.164796015E-1
1.901059458E0,-2.042072592E-4,-1.872926950E-4,-1.052148938E-1,1.052152587E-1
1.911014458E0,3.397659166E-4,1.547271386E-4,-1.012599319E-1,1.012606202E-1
1.920970458E0,9.951698594E-4,-2.788332291E-3,-9.839117527E-2,9.843570760E-2
1.930926458E0,1.393599785E-3,-2.382077277E-3,-1.023935154E-1,1.024307005E-1
1.940882458E0,-1.920970506E-3,-1.566350460E-3,-1.116778329E-1,1.117053353E-1
1.950837458E0,-1.011868822E-3,1.005188562E-3,-1.197190881E-1,1.197275838E-1
1.960793458E0,4.181827884E-3,2.211537212E-4,-1.188527569E-1,1.189265085E-1
1.970749458E0,2.132522175E-3,-2.881186083E-4,-1.163714081E-1,1.163913025E-1
1.980705458E0,8.901575347E-4,1.004313119E-3,-1.049163491E-1,1.049249319E-1
1.990660458E0,-2.316953149E-3,2.714553848E-4,-1.010364518E-1,1.010633788E-1
2.000616458E0,-5.861648824E-4,-2.480388619E-3,-1.040439606E-1,1.040751731E-1
2.010572458E0,4.151372123E-4,-2.718439326E-3,-1.106709391E-1,1.107050993E-1
2.020528458E0,7.600165554E-4,-8.174749091E-4,-1.168745011E-1,1.168798310E-1
2.030483458E0,2.947116736E-3,1.220847480E-3,-1.185908169E-1,1.186337128E-1
2.040439458E0,2.289848868E-3,-5.783848464E-4,-1.122503579E-1,1.122752011E-1
2.050395458E0,-8.166553453E-4,-2.839078195E-3,-1.074204966E-1,1.074611111E-1
2.060351458E0,1.732788747E-3,-2.540538087E-3,-1.023226753E-1,1.023688760E-1
2.070307458E0,-1.629256061E-3,-2.222217619E-3,-1.053642333E-1,1.054002580E-1
2.080262458E0,1.187569345E-3,-2.822227776E-3,-1.138410792E-1,1.138822488E-1
2.090218458E0,3.789610462E-3,-9.174868464E-4,-1.222898960E-1,1.223520396E-1
2.100174458E0,2.229264472E-3,3.536399454E-4,-1.199124902E-1,1.199337317E-1
2.110130458E0,1.064249082E-4,6.695697084E-4,-1.113456711E-1,1.113477352E-1
2.120085458E0,3.074935521E-4,1.096741296E-3,-1.058097556E-1,1.058158862E-1
2.130041458E0,2.929095062E-4,-1.942963339E-3,-9.775244445E-2,9.777219082E-2
2.139997458E0,1.133669401E-3,-2.593041398E-3,-9.866378456E-2,9.870436391E-2
2.149953458E0,8.341086796E-4,-1.095441170E-3,-1.051420420E-1,1.051510567E-1
2.159908458E0,6.106694345E-4,-1.251502894E-3,-1.140244827E-1,1.140329857E-1
2.169864458E0,1.671836479E-3,-2.881334163E-3,-1.197473183E-1,1.197936449E-1
2.179820458E0,4.332002136E-4,7.714573294E-4,-1.192620918E-1,1.192653737E-1
2.189776458E0,1.567722997E-3,-6.014043465E-4,-1.137737855E-1,1.137861754E-1
2.199732458E0,-1.972949598E-3,-8.994126692E-4,-1.074181497E-1,1.074400315E-1
2.209687458E0,-6.302992115E-4,-1.739946194E-3,-1.006812453E-1,1.006982515E-1
2.219643458E0,1.391572645E-3,-6.351619959E-7,-9.938535094E-2,9.939509272E-2
2.229599458E0,3.513559699E-3,-1.432677731E-3,-1.070350632E-1,1.071022989E-1
2.239555458E0,-6.116767181E-4,-1.285671256E-3,-1.140532941E-1,1.140621803E-1
2.249510458E0,-6.293725455E-4,-6.317952648E-4,-1.171158478E-1,1.171192430E-1
2.259466458E0,2.201833995E-3,-3.194063902E-4,-1.170929447E-1,1.171140802E-1
2.269422458E0,7.398868329E-4,-8.419295773E-4,-1.115956232E-1,1.116012518E-1
2.279378458E0,2.782265190E-3,-2.581644803E-4,-1.055097654E-1,1.055467586E-1
2.289333667E0,-1.958239125E-3,-2.085410058E-3,-1.045493335E-1,1.045884638E-1
2.299289667E0,-1.749864314E-4,-1.369552687E-3,-1.092998758E-1,1.093085959E-1
2.309245667E0,-7.882923819E-5,-1.223540865E-3,-1.131727099E-1,1.131793512E-1
2.319201667E0,-2.370210132E-4,7.144417614E-4,-1.168888882E-1,1.168913118E-1
2.329156667E0,2.409821609E-4,-1.065153629E-3,-1.149527654E-1,1.149579527E-1
2.339112667E0,7.781417225E-4,2.557737753E-4,-1.115042418E-1,1.115072503E-1
2.349068667E0,-2.191705862E-4,6.349477917E-5,-1.109156311E-1,1.109158658E-1
2.359024667E0,1.715882216E-3,-1.622818410E-3,-1.107015088E-1,1.107266989E-1
2.368979667E0,2.000743989E-3,9.173238650E-4,-1.165618524E-1,1.165826312E-1
2.378935667E0,1.727770083E-3,-6.395597011E-4,-1.174659953E-1,1.174804421E-1
2.388891667E0,3.031393979E-3,1.878924668E-4,-1.125001013E-1,1.125410923E-1
2.398847667E0,1.347743440E-3,-2.137845382E-3,-1.113869026E-1,1.114155684E-1
2.408803667E0,2.806700300E-3,1.221618615E-3,-1.078153253E-1,1.078587701E-1
2.418758667E0,9.925551713E-4,2.413094044E-4,-1.068874821E-1,1.068923628E-1
2.428714667E0,2.150898799E-3,-1.280149445E-4,-1.081105471E-1,1.081320172E-1
2.438670667E0,1.489369664E-3,-1.382097602E-3,-1.093260199E-1,1.093448995E-1
2.448626667E0,1.843056874E-3,-1.114142127E-3,-1.100429371E-1,1.100640095E-1
2.458581667E0,-1.426505973E-3,-1.248631626E-3,-1.109329686E-1,1.109491663E-1
2.468537667E0,3.193072509E-3,-1.583050005E-3,-1.090721637E-1,1.091303746E-1
2.478493667E0,-5.859531229E-4,-5.649235100E-4,-1.102037430E-1,1.102067486E-1
2.488449667E0,5.123596638E-4,-8.612032980E-5,-1.094745696E-1,1.094758024E-1
2.498404667E0,1.605853671E-3,4.923185334E-4,-1.091472656E-1,1.091601884E-1
2.508360667E0,-9.024501778E-4,9.249551222E-4,-1.051488817E-1,1.051568223E-1
2.518316667E0,-3.602306824E-4,-3.078574315E-3,-1.084823608E-1,1.085266327E-1
2.528272667E0,2.610949334E-3,-8.184323087E-4,-1.107329726E-1,1.107667735E-1
2.538227667E0,-9.702033130E-4,-8.381390944E-4,-1.116469726E-1,1.116543338E-1
2.548183667E0,1.176355523E-3,-2.815362997E-3,-1.121432260E-1,1.121847281E-1
2.558139667E0,1.782490988E-3,-1.607885584E-3,-1.112539992E-1,1.112798944E-1
2.568095667E0,-6.396310637E-4,-4.550442100E-4,-1.118482724E-1,1.118510269E-1
2.578050667E0,5.966083263E-4,-9.687682614E-4,-1.116272286E-1,1.116330265E-1
2.588006667E0,-4.545002012E-4,1.334450208E-3,-1.101969332E-1,1.102059499E-1
2.597962667E0,3.867011052E-3,-7.462780923E-5,-1.122704670E-1,1.123370691E-1
2.607918667E0,2.187925857E-3,-2.429317683E-4,-1.133430749E-1,1.133644506E-1
2.617874667E0,1.966617070E-3,2.194925211E-3,-1.097547337E-1,1.097942934E-1
2.627829667E0,1.099402900E-3,1.103952527E-4,-1.097321808E-1,1.097377437E-1
2.637785667E0,1.667987788E-3,-7.633883506E-4,-1.069766134E-1,1.069923397E-1
2.647741667E0,1.385373645E-3,2.461252734E-4,-1.066677794E-1,1.066770594E-1
2.657697667E0,2.500680857E-4,-1.699579880E-3,-1.129989102E-1,1.130119676E-1
2.667652667E0,2.262064721E-3,1.067447476E-3,-1.128204241E-1,1.128481479E-1
2.677608667E0,3.326045116E-4,-1.153362915E-3,-1.095338166E-1,1.095403937E-1
2.687564667E0,2.240067348E-3,-1.197708771E-4,-1.114109308E-1,1.114335126E-1
2.697520667E0,-1.575443544E-3,-7.024705410E-4,-1.099634990E-1,1.099770276E-1
2.707475667E0,1.115057035E-3,-2.056598663E-3,-1.129148677E-1,1.129391000E-1
2.717431667E0,4.348134622E-3,-2.166586928E-3,-1.104101613E-1,1.105169856E-1
2.727387667E0,1.278502401E-3,-2.690420486E-3,-1.102665216E-1,1.103067483E-1
2.737343667E0,7.738333661E-4,-1.253644936E-3,-1.072480977E-1,1.072582160E-1
2.747298667E0,1.433114870E-3,7.860176265E-4,-1.116457507E-1,1.116577149E-1
2.757254667E0,-7.402909105E-4,-2.219093964E-3,-1.138497815E-1,1.138738124E-1
2.767210667E0,2.142907586E-3,-1.729577780E-3,-1.152040362E-1,1.152369448E-1
2.777166667E0,1.561894314E-4,1.556230709E-3,-1.154269427E-1,1.154375387E-1
2.787121667E0,3.998874687E-3,6.358744577E-4,-1.105201989E-1,1.105943475E-1
2.797077667E0,6.298866356E-5,1.815655269E-3,-1.054921523E-1,1.055077948E-1
2.807033667E0,8.782825898E-5,-2.188987099E-3,-1.055645421E-1,1.055872716E-1
2.816989667E0,1.805034466E-3,-1.048355363E-3,-1.088663340E-1,1.088863438E-1
2.826944667E0,-1.163868234E-3,1.774034463E-3,-1.109671891E-1,1.109874715E-1
2.836900667E0,1.565072918E-3,-8.276076987E-4,-1.139147729E-1,1.139285296E-1
2.846856667E0,1.359216520E-3,-2.788826823E-4,-1.124757007E-1,1.124842588E-1
2.856812667E0,7.075410103E-4,-1.049867831E-3,-1.098932326E-1,1.099005250E-1
2.866767667E0,1.096803462E-4,3.353785723E-4,-1.098065674E-1,1.098071344E-1
2.876723667E0,1.369621838E-3,6.264625117E-4,-1.112726405E-1,1.112828327E-1
2.886679667E0,1.034467015E-3,1.156929880E-3,-1.111326516E-1,1.111434877E-1
2.896635667E0,8.935857913E-4,9.678453207E-4,-1.134847552E-1,1.134924001E-1
2.906591667E0,3.305501305E-4,-6.607864052E-4,-1.080468744E-1,1.080494006E-1
2.916546667E0,2.356416779E-3,-1.102338545E-3,-1.086474136E-1,1.086785550E-1
2.926502667E0,-9.308963781E-4,2.253009006E-4,-1.129309312E-1,1.129349925E-1
2.936458667E0,4.616705119E-4,-9.084073827E-4,-1.149165854E-1,1.149211031E-1
2.946414667E0,8.938044775E-4,6.033815444E-4,-1.160782799E-1,1.160832892E-1
2.956369667E0,3.228331450E-3,-1.098910347E-3,-1.170029268E-1,1.170526147E-1
2.966325667E0,3.329032799E-3,-2.310016192E-3,-1.117668375E-1,1.118402638E-1
2.976281667E0,2.857919782E-3,-1.821059734E-3,-1.105740070E-1,1.106259237E-1
2.986237667E0,6.978999591E-4,-2.589806914E-3,-1.066107750E-1,1.066445100E-1
2.996192667E0,-1.648611156E-3,-2.384743653E-3,-1.040488183E-1,1.040891998E-1
3.006148667E0,4.708494525E-4,-1.257707365E-3,-1.086213440E-1,1.086296456E-1
3.016104667E0,1.749433111E-3,-2.134952694E-3,-1.105215028E-1,1.105559637E-1
3.026060667E0,2.576730214E-3,-1.619419083E-3,-1.121013463E-1,1.121426497E-1
3.036015667E0,2.860889537E-3,2.076249570E-3,-1.110294238E-1,1.110856806E-1
3.045971667E0,3.806256573E-4,-4.597632214E-4,-1.139553338E-1,1.139568970E-1
3.055927667E0,3.788387403E-6,-1.044592820E-3,-1.135601252E-1,1.135649296E-1
3.065883667E0,-3.693288891E-4,2.214212902E-3,-1.130788773E-1,1.131011567E-1
3.075838667E0,-2.489539329E-4,-2.749386244E-3,-1.146277711E-1,1.146610091E-1
3.085794667E0,-1.638520742E-3,2.987617627E-4,-1.105940044E-1,1.106065451E-1
3.095750667E0,1.446218812E-3,-1.495942473E-3,-1.085553542E-1,1.085752933E-1
3.105706667E0,9.617148899E-4,-5.540158600E-4,-1.085766628E-1,1.085823353E-1
3.115661667E0,1.797414850E-3,-1.779070124E-3,-1.045606136E-1,1.045911933E-1
3.125617667E0,-1.618237817E-3,-1.193294302E-4,-1.091452241E-1,1.091572850E-1
3.135573667E0,3.708616830E-3,-6.993655115E-4,-1.105463132E-1,1.106107152E-1
3.145529667E0,7.728495402E-4,1.514796168E-5,-1.137498394E-1,1.137524658E-1
3.155484667E0,1.834385563E-3,-2.658152953E-4,-1.149570495E-1,1.149719916E-1
3.165440667E0,1.726310467E-3,1.693625934E-3,-1.109457985E-1,1.109721529E-1
3.175396667E0,-3.272530739E-4,1.002801582E-3,-1.087638661E-1,1.087689812E-1
3.185352667E0,-6.368077593E-4,-8.419286460E-4,-1.059359089E-1,1.059411684E-1
3.195308667E0,-9.654418100E-4,-1.450461335E-3,-1.082491279E-1,1.082631498E-1
3.205263667E0,-5.712157581E-4,-2.694210969E-3,-1.123071611E-1,1.123409253E-1
3.215219667E0,2.397676231E-3,-3.445046023E-4,-1.144491360E-1,1.144747669E-1
3.225175667E0,2.509949962E-3,-4.226695746E-4,-1.162973493E-1,1.163251992E-1
3.235131667E0,3.890084336E-4,1.174961217E-3,-1.151593775E-1,1.151660283E-1
3.245086667E0,3.145741066E-4,-2.240341157E-3,-1.109125912E-1,1.109356614E-1
3.255042667E0,1.131365541E-3,-2.379091457E-3,-1.061316878E-1,1.061643783E-1
3.264998667E0,6.803235156E-4,-2.252264880E-3,-1.081687361E-1,1.081943206E-1
3.274954667E0,1.591124572E-3,-9.696865454E-4,-1.105003357E-1,1.105160448E-1
3.284909667E0,-8.915965445E-4,-1.399656758E-3,-1.125367209E-1,1.125489562E-1
3.294866083E0,1.468230505E-3,1.153782010E-3,-1.138645783E-1,1.138798889E-1
3.304822083E0,3.187595401E-3,7.353043184E-4,-1.135154143E-1,1.135625410E-1
3.314778083E0,-7.490891730E-4,-1.316394657E-3,-1.079454124E-1,1.079560378E-1
3.324733083E0,2.706657979E-4,7.978575304E-4,-1.075555459E-1,1.075588457E-1
3.334689083E0,1.041917247E-3,-1.566763036E-3,-1.069414243E-1,1.069579757E-1
3.344645083E0,-4.545074189E-4,3.260495141E-4,-1.095098704E-1,1.095112990E-1
3.354601083E0,2.025161870E-3,-1.443621702E-3,-1.150668189E-1,1.150936929E-1
3.364556083E0,1.721832668E-4,6.255051121E-4,-1.202497184E-1,1.202514685E-1
3.374512083E0,3.595676739E-3,1.807566732E-4,-1.192036271E-1,1.192579820E-1
3.384468083E0,2.383035142E-3,-6.326753646E-5,-1.128777117E-1,1.129028815E-1
3.394424083E0,2.233631909E-3,-2.291801386E-3,-1.062214077E-1,1.062696048E-1
3.404379083E0,-8.355779573E-4,-6.260629743E-4,-1.000566855E-1,1.000621330E-1
3.414335083E0,-1.111747813E-3,-1.568555832E-3,-1.032663286E-1,1.032842242E-1
3.424291083E0,1.130169025E-3,-1.964149997E-4,-1.094906330E-1,1.094966419E-1
3.434247083E0,2.210347215E-3,5.194423720E-4,-1.199845523E-1,1.200060342E-1
3.444203083E0,2.030303702E-3,2.314178273E-4,-1.216501445E-1,1.216673059E-1
3.454158083E0,1.507525099E-3,3.600493073E-4,-1.143237799E-1,1.143342859E-1
3.464114083E0,6.315441569E-4,7.015857846E-4,-1.067783386E-1,1.067825110E-1
3.474070083E0,3.103669151E-4,-2.909740433E-4,-1.007641107E-1,1.007650088E-1
3.484026083E0,-1.695906045E-3,1.784771681E-3,-1.004033089E-1,1.004334901E-1
3.493981083E0,9.909570217E-4,-4.374853335E-3,-1.060175225E-1,1.061123764E-1
3.503937083E0,1.029883511E-3,-1.026532613E-3,-1.118313596E-1,1.118408128E-1
3.513893083E0,3.439511638E-3,8.645774797E-4,-1.164825708E-1,1.165365480E-1
3.523849083E0,-4.234913504E-4,4.638601094E-4,-1.158095449E-1,1.158112482E-1
3.533804083E0,-5.089788465E-4,-5.976762623E-4,-1.100621745E-1,1.100649741E-1
3.543760083E0,1.173123019E-3,-1.449629664E-3,-1.111577526E-1,1.111733943E-1
3.553716083E0,-2.386186970E-4,-9.590759873E-4,-1.109889075E-1,1.109933077E-1
3.563672083E0,3.990206751E-4,-7.491009310E-4,-1.109340936E-1,1.109373404E-1
3.573627083E0,1.555098919E-3,-8.633499965E-4,-1.159421653E-1,1.159558079E-1
3.583583083E0,-7.577335928E-4,2.533843741E-3,-1.112255603E-1,1.112569988E-1
3.593539083E0,3.044994082E-3,-1.200706698E-3,-1.117304936E-1,1.117784276E-1
3.603495083E0,2.106017200E-4,-2.592615783E-5,-1.085757762E-1,1.085759836E-1
3.613450083E0,-3.502600011E-4,-1.988675445E-3,-1.083352938E-1,1.083541111E-1
3.623406083E0,1.041731448E-4,-6.304914132E-4,-1.092619151E-1,1.092637838E-1
3.633362083E0,2.683711005E-3,-5.063880235E-4,-1.135115176E-1,1.135443674E-1
3.643318083E0,2.016621642E-3,-1.739099622E-3,-1.133528501E-1,1.133841252E-1
3.653273083E0,9.984951466E-4,-4.631793126E-4,-1.134402007E-1,1.134455405E-1
3.663229083E0,2.544440329E-3,-2.462835051E-3,-1.128584221E-1,1.129139636E-1
3.673185083E0,9.566638037E-4,1.854415052E-3,-1.101044491E-1,1.101242197E-1
3.683141083E0,6.261774688E-4,-1.686003059E-3,-1.103386581E-1,1.103533152E-1
3.693096083E0,9.774484206E-4,3.718212247E-4,-1.098217368E-1,1.098267159E-1
3.703052083E0,2.083049621E-3,-1.652520150E-4,-1.087083742E-1,1.087284555E-1
3.713008083E0,1.166389673E-3,-4.540942609E-5,-1.069336459E-1,1.069400166E-1
3.722964083E0,8.312260616E-4,1.147464849E-3,-1.087149307E-1,1.087241637E-1
3.732919083E0,2.436313313E-3,8.068466559E-4,-1.106158942E-1,1.106456627E-1
3.742875083E0,2.374596894E-3,-3.416691907E-3,-1.123345345E-1,1.124115659E-1
3.752831083E0,1.729845535E-3,-2.456089482E-3,-1.155273989E-1,1.155664512E-1
3.762787083E0,1.844023005E-3,-1.999266446E-3,-1.164137870E-1,1.164455551E-1
3.772742083E0,2.714610193E-3,-1.001379453E-3,-1.149325371E-1,1.149689521E-1
3.782698083E0,6.618633051E-4,1.564861275E-3,-1.102252305E-1,1.102383249E-1
3.792654083E0,-1.259074779E-3,-2.183914185E-4,-1.060816199E-1,1.060893163E-1
3.802610083E0,5.172817037E-4,8.186427876E-4,-1.077092141E-1,1.077135672E-1
3.812565083E0,3.045953112E-3,-4.900339991E-4,-1.087249443E-1,1.087687063E-1
3.822521083E0,-1.964065013E-3,-7.518772036E-4,-1.121238843E-1,1.121436057E-1
3.832477083E0,3.851094225E-4,-5.761086941E-4,-1.133545265E-1,1.133566446E-1
3.842433083E0,5.554429954E-4,-1.114763319E-3,-1.134547964E-1,1.134616324E-1
3.852388083E0,5.250829272E-4,5.678217858E-4,-1.089274287E-1,1.089301742E-1
3.862344083E0,1.283357851E-3,-4.125535488E-4,-1.078156009E-1,1.078240280E-1
3.872300083E0,-5.888444139E-4,2.247411758E-3,-1.056754887E-1,1.057010242E-1
3.882256083E0,8.941061678E-4,-1.551341265E-3,-1.090008169E-1,1.090155227E-1
3.892212083E0,-2.100403653E-4,1.626342535E-3,-1.119521335E-1,1.119641429E-1
3.902167083E0,-8.146285545E-4,1.308359206E-4,-1.135406867E-1,1.135436844E-1
3.912123083E0,6.354626967E-4,1.120999455E-3,-1.119518429E-1,1.119592586E-1
3.922079083E0,-1.207763096E-3,-6.638355553E-4,-1.097684875E-1,1.097771389E-1
3.932035083E0,-4.844485084E-4,-7.149679586E-4,-1.036408171E-1,1.036444154E-1
3.941990083E0,2.707665320E-3,-4.961984232E-4,-1.076621413E-1,1.076973274E-1
3.951946083E0,1.905521145E-3,1.643118449E-3,-1.090041101E-1,1.090331457E-1
3.961902083E0,-6.750728935E-4,-1.263539307E-3,-1.159250885E-1,1.159339398E-1
3.971858083E0,1.748403767E-3,2.596341074E-5,-1.139282510E-1,1.139416691E-1
3.981813083E0,3.095854307E-3,-1.919595525E-4,-1.139042899E-1,1.139465156E-1
3.991769083E0,-1.060641953E-4,1.082362607E-3,-1.077537239E-1,1.077592120E-1
4.001725083E0,-8.594066021E-4,-2.550389618E-3,-1.036140770E-1,1.036490232E-1
4.011681083E0,-1.582721248E-3,3.351448104E-4,-1.040966436E-1,1.041092145E-1
4.021636083E0,3.736023791E-4,-1.199859194E-3,-1.130128130E-1,1.130197998E-1
4.031592083E0,-1.757725491E-3,2.153859474E-3,-1.133955047E-1,1.134295781E-1
4.041548083E0,8.202767931E-4,2.828966826E-4,-1.158798635E-1,1.158831120E-1
4.051504083E0,2.412580885E-3,3.630490042E-3,-1.149488166E-1,1.150314368E-1
4.061459083E0,1.412892481E-3,1.194197685E-3,-1.060728803E-1,1.060890113E-1
4.071415083E0,2.488247119E-4,8.208230138E-4,-1.021886542E-1,1.021922537E-1
4.081371083E0,7.377070724E-4,-9.577414021E-4,-1.041355729E-1,1.041425899E-1
4.091327083E0,2.969702473E-3,-1.143629663E-3,-1.100653708E-1,1.101113658E-1
4.101282083E0,6.102490006E-4,-4.774378613E-4,-1.142810732E-1,1.142836998E-1
4.111238083E0,3.143718350E-4,1.191032119E-3,-1.147332713E-1,1.147398838E-1
4.121194083E0,-1.057662419E-3,-1.007282175E-3,-1.174762994E-1,1.174853786E-1
4.131150083E0,1.118672779E-3,-4.488173872E-4,-1.135537326E-1,1.135601297E-1
4.141105083E0,-7.519306382E-4,2.668783069E-3,-1.078259796E-1,1.078616228E-1
4.151061083E0,-1.903215190E-3,-1.378688961E-3,-1.085498258E-1,1.085752628E-1
4.161017083E0,2.069617156E-3,-6.707860157E-4,-1.101182327E-1,1.101397223E-1
4.170973083E0,-1.693024533E-4,-1.181801781E-4,-1.125592813E-1,1.125594707E-1
4.180928083E0,4.316359700E-4,-8.766064420E-4,-1.152885705E-1,1.152927111E-1
4.190884083E0,1.772004878E-3,1.726367511E-3,-1.130938604E-1,1.131209159E-1
4.200840083E0,4.946119152E-4,-2.934578806E-4,-1.129157022E-1,1.129171668E-1
4.210796083E0,2.012347337E-3,2.339608967E-3,-1.068546176E-1,1.068991703E-1
4.220751083E0,1.524783438E-3,6.200065836E-4,-1.026158258E-1,1.026290265E-1
4.230707083E0,-6.105391076E-4,-1.592347398E-4,-1.052353159E-1,1.052372074E-1
4.240663083E0,-2.216895111E-3,-2.414573915E-3,-1.111546159E-1,1.112029380E-1
4.250619083E0,5.051216576E-4,-6.342502311E-4,-1.196953803E-1,1.196981265E-1
4.260574083E0,1.115284744E-3,9.218994528E-4,-1.197942346E-1,1.198029733E-1
4.270530083E0,-1.443904475E-4,6.302911788E-5,-1.137818843E-1,1.137819934E-1
4.280486083E0,-1.059544156E-4,-1.167615876E-3,-1.072790846E-1,1.072854909E-1
4.290441333E0,2.389249275E-4,-1.604640856E-3,-1.008403599E-1,1.008534092E-1
4.300397333E0,8.784685051E-4,-8.677840233E-4,-1.025485322E-1,1.025559662E-1
4.310352333E0,6.379850674E-4,-1.122116111E-3,-1.094304025E-1,1.094380152E-1
4.320308333E0,1.316515962E-3,3.322493285E-4,-1.130749807E-1,1.130831325E-1
4.330264333E0,1.552471891E-3,4.808977246E-5,-1.124826968E-1,1.124934201E-1
4.340219333E0,1.934196218E-3,-3.314591013E-3,-1.102572158E-1,1.103239832E-1
4.350175333E0,5.464230198E-4,-2.721957862E-4,-1.076592952E-1,1.076610260E-1
4.360131333E0,2.241099719E-4,-1.089643687E-3,-1.069655344E-1,1.069713190E-1
4.370087333E0,9.564792272E-4,-1.567387953E-4,-1.084188223E-1,1.084231546E-1
4.380042333E0,4.324709589E-4,8.349074051E-4,-1.089153066E-1,1.089193652E-1
4.389998333E0,1.432516729E-4,-3.428813070E-3,-1.119483858E-1,1.120009749E-1
4.399954333E0,3.789183684E-4,-1.140248962E-3,-1.113543138E-1,1.113607963E-1
4.409910333E0,1.585862949E-3,-1.799138263E-4,-1.089827716E-1,1.089944579E-1
4.419866333E0,1.175459940E-3,-3.776326776E-4,-1.069829538E-1,1.069900777E-1
4.429821333E0,2.763767261E-4,2.684500068E-4,-1.063845456E-1,1.063852433E-1
4.439777333E0,1.315209549E-3,-2.474056557E-3,-1.099953130E-1,1.100309939E-1
4.449733333E0,-2.781531075E-3,-5.328785628E-4,-1.117668524E-1,1.118027289E-1
4.459689333E0,1.402993686E-3,-1.320339739E-3,-1.104883775E-1,1.105051730E-1
4.469644333E0,1.226958702E-3,-1.959539950E-4,-1.125504598E-1,1.125573180E-1
4.479600333E0,-3.830735222E-4,-1.276173629E-3,-1.122497618E-1,1.122576696E-1
4.489556333E0,3.900421434E-4,-2.000553533E-3,-1.080989614E-1,1.081181752E-1
4.499512333E0,1.381376642E-3,-3.423011862E-3,-1.062774509E-1,1.063415337E-1
4.509467333E0,1.833581366E-3,-1.935636625E-3,-1.085158363E-1,1.085485856E-1
4.519423333E0,-1.145685324E-3,4.596505314E-4,-1.095595062E-1,1.095664605E-1
4.529379333E0,5.052081542E-4,-1.342967153E-6,-1.138919368E-1,1.138930574E-1
4.539335333E0,1.548946369E-3,1.223853789E-3,-1.144965664E-1,1.145135833E-1
4.549290333E0,2.536446555E-3,1.585893333E-4,-1.132209152E-1,1.132494342E-1
4.559246333E0,8.522346616E-4,-2.116480842E-3,-1.134743020E-1,1.134972379E-1
4.569202333E0,8.956441889E-4,-2.351105213E-3,-1.091085821E-1,1.091375855E-1
4.579158333E0,-2.467090962E-4,-2.485169098E-4,-1.093465015E-1,1.093470623E-1
4.589113333E0,1.196191646E-3,6.620176136E-4,-1.057991683E-1,1.058080014E-1
4.599069333E0,2.405624837E-4,-1.156658866E-3,-1.105053946E-1,1.105117097E-1
4.609025333E0,1.592915738E-3,-1.387821510E-3,-1.133392677E-1,1.133589565E-1
4.618981333E0,2.770331455E-3,1.273748465E-3,-1.161367148E-1,1.161767348E-1
4.628936333E0,-8.105550078E-4,7.443120703E-4,-1.138202921E-1,1.138256117E-1
4.638892333E0,1.242063707E-3,-1.086508855E-4,-1.099874675E-1,1.099945341E-1
4.648848333E0,1.828758046E-3,7.065432146E-4,-1.075594649E-1,1.075773305E-1
4.658804333E0,1.642879215E-3,6.475392729E-4,-1.069502831E-1,1.069648606E-1
4.668759333E0,1.388281002E-3,-5.186591297E-4,-1.089417934E-1,1.089518733E-1
4.678715333E0,2.117533470E-3,1.430314966E-3,-1.128614321E-1,1.128903566E-1
4.688671333E0,2.943912288E-3,2.135168761E-4,-1.088067740E-1,1.088468019E-1
4.698627333E0,-4.032406723E-4,1.720078290E-3,-1.128993481E-1,1.129131705E-1
4.708582333E0,3.767269664E-3,7.373718545E-4,-1.119834855E-1,1.120492618E-1
4.718538333E0,5.448617740E-4,-5.796970800E-4,-1.097489297E-1,1.097518132E-1
4.728494333E0,5.106057972E-3,-1.646026969E-3,-1.095510572E-1,1.096823385E-1
4.738450333E0,1.533062314E-3,-2.123916522E-3,-1.107375622E-1,1.107685379E-1
4.748405333E0,-3.884084290E-4,2.060442232E-3,-1.113042831E-1,1.113240303E-1
4.758361333E0,1.413823571E-3,-2.414063551E-3,-1.139351279E-1,1.139694694E-1
4.768317333E0,6.700025988E-4,-1.701934263E-3,-1.149481907E-1,1.149627420E-1
4.778273333E0,2.496856498E-3,2.807703800E-3,-1.126824021E-1,1.127450276E-1
4.788228333E0,8.696650621E-4,6.380267441E-4,-1.100527942E-1,1.100580797E-1
4.798184333E0,-5.606669583E-4,5.308082327E-4,-1.080301106E-1,1.080328695E-1
4.808140333E0,1.150946599E-3,-1.059897244E-3,-1.091374531E-1,1.091486681E-1
4.818096333E0,7.326658233E-4,-7.785093039E-4,-1.098267734E-1,1.098319764E-1
4.828051333E0,4.234722815E-3,1.610346138E-3,-1.144729257E-1,1.145625454E-1
4.838007333E0,2.057183534E-3,2.554189414E-3,-1.178718731E-1,1.179174896E-1
4.847963333E0,1.078471774E-3,1.584532671E-3,-1.148228198E-1,1.148388166E-1
4.857919333E0,1.188637572E-3,-8.613718674E-4,-1.117924750E-1,1.118021122E-1
4.867874333E0,3.454807447E-4,9.775413200E-4,-1.077260971E-1,1.077310862E-1
4.877830333E0,-5.660830066E-4,3.512841649E-3,-1.041498333E-1,1.042105958E-1
4.887786333E0,2.799353562E-3,-5.290377885E-4,-1.077661365E-1,1.078037868E-1
4.897742333E0,-3.826729953E-4,2.458994277E-3,-1.105029956E-1,1.105310143E-1
4.907697333E0,1.268753200E-3,-1.249457709E-3,-1.118204668E-1,1.118346444E-1
4.917653333E0,1.575208618E-3,1.135523431E-3,-1.115334034E-1,1.115503060E-1
4.927609333E0,1.139321830E-4,6.039561704E-4,-1.120655090E-1,1.120671943E-1
4.937565333E0,1.402466092E-3,1.705027185E-3,-1.133010015E-1,1.133225087E-1
4.947521333E0,9.991409024E-5,-1.053474844E-3,-1.140413582E-1,1.140462677E-1
4.957476333E0,2.846920164E-3,8.171824738E-4,-1.120451316E-1,1.120842730E-1
4.967432333E0,1.029579202E-3,2.852104604E-3,-1.086282954E-1,1.086706082E-1
4.977388333E0,4.126848653E-3,8.471775800E-5,-1.061982512E-1,1.062784391E-1
4.987343333E0,-2.330124844E-4,1.529483125E-3,-1.046027541E-1,1.046141949E-1
4.997299333E0,1.817332814E-3,7.385201752E-5,-1.074517071E-1,1.074670997E-1
5.007255333E0,3.715633880E-3,9.222794324E-5,-1.067393124E-1,1.068040039E-1
5.017211333E0,-3.169657430E-5,-2.876445651E-4,-1.104867905E-1,1.104871695E-1
5.027167333E0,1.165394322E-3,-1.909723505E-4,-1.159611866E-1,1.159671997E-1
5.037122333E0,2.422087826E-3,8.477363735E-5,-1.183525249E-1,1.183773367E-1
5.047078333E0,7.496227045E-4,4.935357720E-5,-1.188947409E-1,1.188971143E-1
5.057034333E0,1.159749459E-3,-1.822083257E-3,-1.142343432E-1,1.142547599E-1
5.066990333E0,6.707930588E-4,5.417382345E-4,-1.050514951E-1,1.050550335E-1
5.076945333E0,2.862859983E-4,7.408903912E-4,-9.990221262E-2,9.990537005E-2
5.086901333E0,6.916191196E-4,-1.095891930E-3,-1.047893837E-1,1.047973962E-1
5.096857333E0,1.040772302E-3,-8.375132456E-4,-1.116305217E-1,1.116385149E-1
5.106813333E0,3.073829459E-3,1.069576479E-3,-1.144018024E-1,1.144480879E-1
5.116768333E0,2.881527878E-3,-4.472862929E-4,-1.162170768E-1,1.162536546E-1
5.126724333E0,-7.078807103E-4,1.752218232E-3,-1.177880764E-1,1.178032355E-1
5.136680333E0,1.712903031E-4,-1.247866079E-3,-1.113888249E-1,1.113959461E-1
5.146636333E0,4.027190153E-4,-1.199397258E-3,-1.080979630E-1,1.081053669E-1
5.156591333E0,2.469805535E-3,3.747675568E-3,-1.040067151E-1,1.041035148E-1
5.166547333E0,1.119849156E-3,-3.328202292E-4,-1.030437127E-1,1.030503350E-1
5.176503333E0,1.467602677E-3,7.093679160E-4,-1.077761054E-1,1.077884315E-1
5.186459333E0,8.497493109E-4,2.764528617E-3,-1.120323688E-1,1.120696941E-1
5.196414333E0,2.918608370E-4,1.685879193E-3,-1.133306250E-1,1.133435394E-1
5.206370333E0,-4.186705337E-4,6.991783157E-4,-1.123724207E-1,1.123753758E-1
5.216326333E0,-2.644968918E-4,1.436518505E-3,-1.077731401E-1,1.077830379E-1
5.226282333E0,1.912637264E-3,-9.045936167E-6,-1.069973633E-1,1.070144570E-1
5.236237333E0,2.812893828E-3,2.387436107E-4,-1.109306216E-1,1.109665363E-1
5.246193333E0,1.691969344E-3,-7.444433868E-5,-1.138688847E-1,1.138814788E-1
5.256149333E0,-1.651731669E-3,5.940906703E-5,-1.171470881E-1,1.171587469E-1
5.266105333E0,2.962194849E-3,-7.744263858E-4,-1.147931218E-1,1.148339460E-1
5.276060333E0,2.230684739E-3,-5.098637193E-4,-1.123009101E-1,1.123242196E-1
5.286016333E0,2.725233790E-3,-2.129065804E-3,-1.023979485E-1,1.024563306E-1
5.295972333E0,-3.947155783E-4,-6.158538163E-4,-1.023928151E-1,1.023954279E-1
5.305928333E0,-5.947189638E-4,1.223058440E-3,-1.037888452E-1,1.037977551E-1
5.315883333E0,-1.808802364E-3,-8.300291374E-4,-1.112460867E-1,1.112638868E-1
5.325839333E0,3.718322143E-3,2.208165824E-6,-1.156496182E-1,1.157093778E-1
5.335795333E0,2.488867380E-3,-1.100370660E-3,-1.155412868E-1,1.155733283E-1
5.345751333E0,5.953171058E-5,-6.857169792E-4,-1.147655100E-1,1.147675739E-1
5.355706333E0,1.507815439E-3,-1.240756363E-3,-1.140006855E-1,1.140174078E-1
5.365662333E0,1.958688721E-3,-5.240989849E-4,-1.058727205E-1,1.058921342E-1
5.375618333E0,7.010361878E-4,6.626956165E-4,-1.049666181E-1,1.049710509E-1
5.385574333E0,2.307455055E-3,-2.637759782E-3,-1.086311266E-1,1.086876432E-1
5.395529333E0,1.942347037E-3,1.192776486E-3,-1.067745537E-1,1.067988798E-1
5.405485333E0,2.595354104E-3,7.059499621E-4,-1.140436530E-1,1.140753655E-1
5.415441333E0,1.407827949E-5,4.515144974E-4,-1.113836467E-1,1.113845628E-1
5.425397333E0,2.632764634E-3,-1.178073697E-3,-1.135695651E-1,1.136061857E-1
5.435352333E0,3.623856930E-3,-1.912388019E-3,-1.147049367E-1,1.147780993E-1
5.445308333E0,2.451799810E-3,-1.790948212E-3,-1.105269641E-1,1.105686601E-1
5.455264333E0,3.829021880E-4,-4.620449618E-4,-1.073455811E-1,1.073472583E-1
5.465220333E0,2.538198605E-3,-9.744372219E-4,-1.066821963E-1,1.067168355E-1
5.475175333E0,-1.166470931E-3,3.192713484E-4,-1.070544720E-1,1.070613028E-1
5.485131333E0,5.067932070E-4,1.397052780E-3,-1.128670871E-1,1.128768708E-1
5.495087333E0,5.088004982E-4,-2.182396129E-4,-1.139698774E-1,1.139712220E-1
5.505043333E0,7.404955104E-4,1.486184075E-3,-1.111152321E-1,1.111276378E-1
5.514998333E0,7.766571944E-4,1.218151301E-3,-1.095494181E-1,1.095589435E-1
5.524954333E0,2.166560851E-3,4.133433104E-4,-1.105718091E-1,1.105938055E-1
5.534910333E0,6.225351826E-4,2.648643218E-3,-1.116829813E-1,1.117161186E-1
5.544866333E0,9.618218755E-4,-8.800448850E-4,-1.134332120E-1,1.134407033E-1
5.554821333E0,1.644857926E-3,-3.790082410E-4,-1.134029478E-1,1.134155094E-1
5.564777333E0,3.214258701E-3,-1.997780055E-4,-1.108548343E-1,1.109016035E-1
5.574733333E0,8.656125865E-4,2.339953557E-3,-1.055190787E-1,1.055485700E-1
5.584689333E0,-3.110559192E-6,-8.819391951E-4,-1.049704701E-1,1.049741750E-1
5.594644333E0,1.174481004E-4,-7.723215967E-4,-1.041221768E-1,1.041251073E-1
5.604600333E0,2.528940327E-3,-1.018131152E-3,-1.073254272E-1,1.073600459E-1
5.614556333E0,3.516861238E-3,5.622161552E-4,-1.098255217E-1,1.098832545E-1
5.624512333E0,-4.485028330E-5,7.513007149E-4,-1.118689626E-1,1.118714944E-1
5.634467333E0,-1.449308475E-3,2.310782671E-3,-1.108482927E-1,1.108818480E-1
5.644423333E0,5.648402730E-4,-2.127641812E-3,-1.126930639E-1,1.127145623E-1
5.654379333E0,1.248737564E-3,1.640414819E-3,-1.123957485E-1,1.124146547E-1
5.664335333E0,-2.220828785E-3,1.519741490E-4,-1.107344627E-1,1.107568346E-1
5.674290333E0,6.702551618E-4,-2.945601009E-3,-1.064765379E-1,1.065193829E-1
5.684246333E0,3.940853348E-4,3.375438973E-4,-1.048677266E-1,1.048690103E-1
5.694202333E0,3.436534316E-4,9.546428919E-5,-1.057357118E-1,1.057363133E-1
5.704158333E0,5.311400164E-4,7.322262973E-4,-1.070814058E-1,1.070852265E-1
5.714113333E0,1.404007315E-3,-8.393013850E-4,-1.131757870E-1,1.131876072E-1
5.724069333E0,-2.747594379E-3,1.397221349E-3,-1.149633005E-1,1.150046172E-1
5.734025333E0,-2.190368017E-3,6.055589765E-4,-1.120176241E-1,1.120406735E-1
5.743981333E0,1.803840976E-3,-8.040517569E-4,-1.060891598E-1,1.061075406E-1
5.753936333E0,1.224355656E-3,-9.321505204E-4,-1.051081717E-1,1.051194355E-1
5.763892333E0,2.069110284E-3,-1.354527660E-3,-1.055638418E-1,1.055928059E-1
5.773848333E0,3.632818698E-4,1.009986736E-3,-1.130583733E-1,1.130634681E-1
5.783804333E0,-2.369946451E-4,-1.838264056E-3,-1.176251620E-1,1.176397642E-1
5.793760333E0,2.527515404E-3,-1.004630700E-3,-1.174916402E-1,1.175231174E-1
5.803715333E0,-1.829416258E-3,-1.051768661E-3,-1.140708104E-1,1.140903272E-1
5.813671333E0,1.076316694E-3,1.514738426E-3,-1.084160581E-1,1.084319812E-1
5.823627333E0,-2.199371345E-3,-2.232062630E-3,-1.027078405E-1,1.027556317E-1
5.833583333E0,9.019910358E-4,1.148521900E-3,-1.091420054E-1,1.091517753E-1
5.843538333E0,1.015441725E-3,2.689959481E-3,-1.141524762E-1,1.141886808E-1
5.853494333E0,6.058336585E-4,9.640986100E-4,-1.144633815E-1,1.144690448E-1
5.863450333E0,-4.964487161E-4,9.627668187E-4,-1.154612675E-1,1.154663487E-1
5.873406333E0,-6.142600323E-4,-1.261662692E-5,-1.107878089E-1,1.107895125E-1
5.883361333E0,4.028011754E-4,-3.257145174E-3,-1.074806973E-1,1.075307935E-1
5.893317333E0,-2.958245343E-3,1.627132297E-3,-1.049127951E-1,1.049671061E-1
5.903273333E0,-1.006735838E-4,5.096700042E-4,-1.057785898E-1,1.057798656E-1
5.913229333E0,-8.795520989E-4,-7.881838828E-4,-1.091480479E-1,1.091544374E-1
5.923184333E0,3.649419639E-3,9.503280744E-4,-1.132860631E-1,1.133488133E-1
5.933140333E0,2.898077248E-3,5.491077900E-5,-1.150354967E-1,1.150720094E-1
5.943096333E0,1.234134077E-3,1.599278301E-3,-1.135901958E-1,1.136081571E-1
5.953052333E0,4.117328208E-3,6.745010614E-4,-1.116653234E-1,1.117432405E-1
5.963007333E0,1.764691784E-3,7.871529087E-4,-1.090144143E-1,1.090315379E-1
5.972963333E0,8.542804862E-4,2.069119364E-5,-1.081972495E-1,1.082006239E-1
5.982919333E0,1.709133503E-4,1.146676019E-3,-1.114734709E-1,1.114794994E-1
5.992875333E0,1.276215073E-3,-8.557923138E-5,-1.110453308E-1,1.110526971E-1
6.002830333E0,2.669314621E-3,-5.215387791E-4,-1.151173040E-1,1.151494287E-1
6.012786333E0,8.317696629E-4,2.194792032E-4,-1.114844084E-1,1.114877272E-1
6.022742333E0,-1.234310679E-3,1.467170194E-3,-1.083176434E-1,1.083346112E-1
6.032698333E0,1.110442099E-4,-8.678715676E-4,-1.073005497E-1,1.073041169E-1
6.042653333E0,1.589811291E-4,1.165984198E-3,-1.095168293E-1,1.095231514E-1
6.052609333E0,3.986642696E-5,-1.026640646E-3,-1.114100218E-1,1.114147590E-1
6.062565333E0,1.458266051E-3,-9.097279981E-4,-1.125240177E-1,1.125371437E-1
6.072521333E0,2.636191668E-3,2.035005018E-4,-1.169337332E-1,1.169636221E-1
6.082476333E0,1.558410353E-3,1.117231324E-3,-1.099783555E-1,1.099950704E-1
6.092432333E0,3.036437847E-4,-9.715836495E-5,-1.078768820E-1,1.078773530E-1
6.102388333E0,-3.096822184E-4,-2.022090368E-3,-1.069117486E-1,1.069313179E-1
6.112344333E0,2.150680404E-3,-1.916964538E-3,-1.084916815E-1,1.085299274E-1
6.122299333E0,2.238298301E-3,1.484956592E-3,-1.138694063E-1,1.139010832E-1
6.132255333E0,2.709642285E-3,-1.591769047E-3,-1.186957434E-1,1.187373378E-1
6.142211333E0,2.848925535E-3,7.558073848E-4,-1.184030622E-1,1.184397432E-1
6.152167333E0,1.022701152E-3,-2.491734922E-4,-1.144718528E-1,1.144766923E-1
6.162122333E0,2.714234288E-4,9.505813941E-4,-1.084432602E-1,1.084477660E-1
6.172078333E0,2.457579365E-3,-1.755955629E-3,-1.021180078E-1,1.021626674E-1
6.182034333E0,2.615504898E-3,-9.636655450E-4,-1.043143198E-1,1.043515540E-1
6.191990333E0,2.015890321E-3,-2.560047433E-4,-1.082500517E-1,1.082691233E-1
6.201945333E0,1.377796871E-3,-1.037109643E-3,-1.143295169E-1,1.143425221E-1
6.211901333E0,2.364689717E-3,-1.238967292E-3,-1.171578616E-1,1.171882730E-1
6.221857333E0,1.367335906E-3,-8.751796558E-4,-1.123742908E-1,1.123860169E-1
6.231813333E0,2.918264130E-3,-5.805138499E-4,-1.099884361E-1,1.100286751E-1
6.241768333E0,-1.006702660E-3,3.627780825E-4,-1.044373438E-1,1.044428257E-1
6.251724333E0,1.867125626E-3,1.539058983E-3,-1.015422940E-1,1.015711196E-1
6.261680333E0,1.088417368E-3,-2.282140777E-4,-1.053423584E-1,1.053482283E-1
6.271636333E0,1.654612832E-3,1.527968794E-3,-1.079296470E-1,1.079531432E-1
6.281591333E0,1.227974426E-3,2.914411016E-3,-1.150615960E-1,1.151050503E-1
6.291547792E0,2.121966332E-3,7.879445329E-4,-1.157034412E-1,1.157255802E-1
6.301503792E0,1.901190262E-3,-4.933029413E-4,-1.114594266E-1,1.114767314E-1
6.311459792E0,2.297380473E-3,-1.427394338E-3,-1.073050350E-1,1.073391166E-1
6.321414792E0,5.801742664E-4,-4.995493218E-4,-1.046874151E-1,1.046902146E-1
6.331370792E0,3.524176311E-3,1.013504341E-3,-1.056035683E-1,1.056672165E-1
6.341326792E0,5.542190047E-4,1.618256792E-4,-1.112747714E-1,1.112762692E-1
6.351282792E0,-1.841038465E-3,-8.678939193E-4,-1.158154085E-1,1.158332919E-1
6.361237792E0,2.243717900E-3,-1.998938620E-3,-1.152545512E-1,1.152937188E-1
6.371193792E0,1.258993521E-3,-2.629398368E-3,-1.115208715E-1,1.115589691E-1
6.381149792E0,1.154065016E-3,-5.183108151E-4,-1.058291644E-1,1.058367259E-1
6.391105792E0,1.279695425E-6,3.361608833E-5,-1.027686000E-1,1.027686055E-1
6.401060792E0,-8.282949566E-4,6.610620767E-5,-1.052703708E-1,1.052736502E-1
6.411016792E0,-3.636257024E-4,1.701264642E-3,-1.110870317E-1,1.111006531E-1
6.420972792E0,7.522387314E-4,-5.040988326E-4,-1.163979024E-1,1.164014246E-1
6.430928792E0,-7.238460239E-5,4.002526402E-4,-1.202329472E-1,1.202336352E-1
6.440883792E0,2.009408316E-3,1.262051053E-3,-1.185335815E-1,1.185573297E-1
6.450839792E0,3.029340645E-3,3.395248204E-4,-1.131249517E-1,1.131660147E-1
6.460795792E0,1.409339835E-3,2.633584663E-4,-1.038595513E-1,1.038694468E-1
6.470751792E0,-2.281734487E-4,3.724144772E-4,-1.006216407E-1,1.006225886E-1
6.480706792E0,2.017936669E-3,-1.987945288E-3,-1.037143692E-1,1.037530452E-1
6.490662792E0,8.709288668E-4,9.552109987E-5,-1.121223122E-1,1.121257354E-1
6.500618792E0,1.279457705E-3,2.981880680E-4,-1.138429791E-1,1.138505591E-1
6.510574792E0,1.561337151E-3,6.226301193E-4,-1.160507277E-1,1.160629003E-1
6.520529792E0,3.341525444E-4,5.408711731E-4,-1.093984172E-1,1.094002645E-1
6.530485792E0,-2.384253312E-4,-2.113690600E-3,-1.079045832E-1,1.079255466E-1
6.540441792E0,8.476117509E-4,4.426948726E-5,-1.104814559E-1,1.104847162E-1
6.550397792E0,1.812194008E-3,2.616634592E-4,-1.121527478E-1,1.121676930E-1
6.560352792E0,5.771929864E-6,-1.014523208E-3,-1.138174906E-1,1.138220122E-1
6.570308792E0,3.149619792E-3,7.436852902E-4,-1.126641184E-1,1.127105885E-1
6.580264792E0,1.613508444E-3,-1.148224808E-3,-1.062999591E-1,1.063184045E-1
6.590220792E0,1.102799317E-3,-2.135695890E-3,-1.036534980E-1,1.036813629E-1
6.600175792E0,6.476650597E-4,-1.665115356E-3,-1.063859016E-1,1.064009029E-1
6.610131792E0,-1.318833558E-3,7.564621046E-4,-1.133593619E-1,1.133695571E-1
6.620087792E0,2.112383256E-3,5.956068635E-4,-1.178095043E-1,1.178299461E-1
6.630043792E0,3.775041318E-3,-3.963336349E-5,-1.176560074E-1,1.177165604E-1
6.639998792E0,2.744664205E-3,7.513258606E-4,-1.121810824E-1,1.122171685E-1
6.649954792E0,-2.040213440E-3,-1.353146508E-4,-1.069829538E-1,1.070024915E-1
6.659910792E0,-8.838280337E-5,3.587016836E-4,-1.038468182E-1,1.038474753E-1
6.669866792E0,3.030774882E-3,-2.049796283E-3,-1.091102213E-1,1.091715515E-1
6.679821792E0,-1.870773034E-3,2.680776641E-3,-1.136514470E-1,1.136984510E-1
6.689777792E0,1.062159427E-4,4.384070635E-4,-1.158782989E-1,1.158791769E-1
6.699733792E0,2.617310500E-3,5.742274225E-4,-1.132127419E-1,1.132444479E-1
6.709689792E0,-8.204905316E-4,-5.805259570E-4,-1.114022881E-1,1.114068221E-1
6.719644792E0,1.174749807E-3,-9.192796424E-4,-1.082429811E-1,1.082532590E-1
6.729600792E0,-5.568022607E-4,1.799691468E-3,-1.101987362E-1,1.102148374E-1
6.739556792E0,8.315035375E-4,2.627401613E-3,-1.128547043E-1,1.128883471E-1
6.749512792E0,2.579538384E-3,3.917580470E-4,-1.168597341E-1,1.168888572E-1
6.759468792E0,2.270611702E-3,1.891916618E-3,-1.160061955E-1,1.160438384E-1
6.769423792E0,1.259414130E-3,-1.954885200E-3,-1.090189740E-1,1.090437728E-1
6.779379792E0,1.518527279E-5,2.970173955E-5,-1.060796455E-1,1.060796507E-1
6.789335792E0,1.257954631E-3,-6.976341829E-4,-1.061165184E-1,1.061262673E-1
6.799291792E0,2.592997393E-3,-4.057521001E-4,-1.108660027E-1,1.108970641E-1
6.809246792E0,2.338491147E-3,2.244580537E-5,-1.146833375E-1,1.147071791E-1
6.819202792E0,-7.462482899E-4,1.716216095E-3,-1.163579300E-1,1.163729786E-1
6.829158792E0,2.163399709E-3,2.714853734E-3,-1.152659878E-1,1.153182495E-1
6.839114792E0,-2.303253859E-3,-1.956863329E-3,-1.120166704E-1,1.120574350E-1
6.849069792E0,5.507374881E-4,1.422982663E-3,-1.073950678E-1,1.074059066E-1
6.859025792E0,-1.060474897E-3,1.894058660E-4,-1.060347185E-1,1.060401905E-1
6.868981792E0,1.435482409E-3,5.613537505E-4,-1.047600955E-1,1.047714338E-1
6.878937792E0,1.784090186E-3,1.235296950E-4,-1.068256423E-1,1.068406107E-1
6.888892792E0,1.750241150E-3,-1.601791009E-4,-1.135870889E-1,1.136006856E-1
6.898848792E0,1.526108244E-4,2.594328485E-3,-1.167570427E-1,1.167859617E-1
6.908804792E0,1.614877721E-3,1.329806633E-3,-1.122560948E-1,1.122755852E-1
6.918760792E0,-1.009969274E-4,-2.291027457E-3,-1.089660302E-1,1.089901589E-1
6.928715792E0,7.599336677E-4,7.669320330E-4,-1.041127071E-1,1.041183051E-1
6.938671792E0,7.053388981E-4,-7.910178974E-4,-1.053412259E-1,1.053465570E-1
6.948627792E0,5.999580026E-4,-2.672885545E-3,-1.106904596E-1,1.107243520E-1
6.958583792E0,1.305695623E-3,-6.424915045E-4,-1.129285842E-1,1.129379598E-1
6.968538792E0,1.793741714E-3,-1.009974629E-3,-1.115625724E-1,1.115815626E-1
6.978494792E0,-4.925820394E-4,8.218828589E-5,-1.086346954E-1,1.086358433E-1
6.988450792E0,1.178495004E-3,1.546330750E-3,-1.097235754E-1,1.097407991E-1
6.998406792E0,1.009916887E-3,-7.820716128E-4,-1.089664400E-1,1.089739263E-1
7.008361792E0,-2.717734897E-4,-1.975601539E-3,-1.128384322E-1,1.128560527E-1
7.018317792E0,3.407117212E-3,5.797017366E-4,-1.153868139E-1,1.154385608E-1
7.028273792E0,3.936177120E-3,-6.448281929E-4,-1.171269938E-1,1.171948889E-1
7.038229792E0,-1.146732131E-3,2.867614850E-3,-1.133421063E-1,1.133841756E-1
7.048184792E0,2.608864103E-3,1.376145519E-3,-1.088235155E-1,1.088634809E-1
7.058140792E0,-1.922238152E-3,-1.043336466E-3,-1.083819643E-1,1.084040300E-1
7.068096792E0,2.840320813E-4,-2.129366621E-4,-1.064909846E-1,1.064915762E-1
7.078052792E0,1.609487343E-3,5.985284224E-4,-1.052219868E-1,1.052359976E-1
7.088007792E0,1.205010805E-3,-5.695419386E-4,-1.104338542E-1,1.104418968E-1
7.097963792E0,5.011372850E-4,2.285366878E-3,-1.102602184E-1,1.102850389E-1
7.107919792E0,-1.213074196E-3,1.763670705E-3,-1.137560904E-1,1.137762286E-1
7.117875792E0,-5.787091795E-4,1.210905612E-5,-1.140865833E-1,1.140880517E-1
7.127830792E0,1.122005167E-3,2.065254375E-4,-1.119988337E-1,1.120046441E-1
7.137786792E0,1.865027007E-3,-2.834006213E-3,-1.067169905E-1,1.067709041E-1
7.147742792E0,2.979897894E-3,1.316089183E-3,-1.089988425E-1,1.090475105E-1
7.157698792E0,4.102138046E-4,4.660077393E-4,-1.083013639E-1,1.083031433E-1
7.167653792E0,2.030977514E-3,-3.622658551E-4,-1.103245169E-1,1.103438042E-1
7.177609792E0,-7.051542052E-4,-2.544075251E-4,-1.073084772E-1,1.073110956E-1
7.187565792E0,4.230014747E-5,-2.722144127E-4,-1.079116017E-1,1.079119533E-1
7.197521792E0,-4.397320445E-4,8.742762730E-4,-1.076631248E-1,1.076675725E-1
7.207476792E0,-2.080401406E-3,2.530990168E-4,-1.091800258E-1,1.092001381E-1
7.217432792E0,9.478790453E-4,-6.425213069E-4,-1.124634370E-1,1.124692668E-1
7.227388792E0,1.500724698E-3,-4.153966904E-3,-1.161996126E-1,1.162835224E-1
7.237344792E0,2.105262130E-3,-1.186140813E-3,-1.177623570E-1,1.177871461E-1
7.247299792E0,2.928152215E-3,-6.938949227E-4,-1.183397546E-1,1.183780093E-1
7.257255792E0,2.111627255E-3,2.324265428E-3,-1.119505614E-1,1.119945953E-1
7.267211792E0,1.797414152E-4,-7.723039016E-4,-1.058762372E-1,1.058792064E-1
7.277167792E0,-1.219947590E-4,1.847714186E-3,-1.018737704E-1,1.018905983E-1
7.287122792E0,1.318913535E-3,-1.138642430E-3,-1.048589945E-1,1.048734703E-1
7.297079292E0,1.540222205E-3,-2.669906244E-4,-1.094465554E-1,1.094577181E-1
7.307035292E0,6.902929163E-4,-9.883781895E-4,-1.143608540E-1,1.143672083E-1
7.316991292E0,4.769737134E-4,1.445218921E-3,-1.151337028E-1,1.151437609E-1
7.326946292E0,3.302336554E-4,8.854903281E-4,-1.130235344E-1,1.130274855E-1
7.336902292E0,6.663245731E-4,-1.099630259E-3,-1.085733920E-1,1.085810049E-1
7.346858292E0,-1.102109789E-3,4.956154153E-4,-1.071818024E-1,1.071886143E-1
7.356814292E0,4.890834680E-5,-1.069790684E-3,-1.070313305E-1,1.070366878E-1
7.366769292E0,6.265718839E-4,1.884002239E-3,-1.108341143E-1,1.108518964E-1
7.376725292E0,5.669170641E-4,-1.920322888E-3,-1.114314646E-1,1.114494519E-1
7.386681292E0,-1.332353451E-3,7.981248200E-5,-1.151026338E-1,1.151103725E-1
7.396637292E0,1.481009996E-3,-8.179396391E-4,-1.112687439E-1,1.112816058E-1
7.406592292E0,8.547493489E-4,-5.494579673E-4,-1.094347909E-1,1.094395082E-1
7.416548292E0,2.383670071E-3,-1.159055158E-3,-1.071513966E-1,1.071841736E-1
7.426504292E0,3.583442885E-3,-2.828855999E-3,-1.088679880E-1,1.089636742E-1
7.436460292E0,1.104039839E-3,5.712015554E-4,-1.139732674E-1,1.139800458E-1
7.446415292E0,-2.614947967E-3,1.390381716E-3,-1.161737889E-1,1.162115327E-1
7.456371292E0,7.171991165E-4,4.835752770E-4,-1.150680482E-1,1.150712994E-1
7.466327292E0,1.600537682E-3,3.776103258E-4,-1.123580337E-1,1.123700674E-1
7.476283292E0,1.198400278E-3,-1.783545129E-3,-1.076240018E-1,1.076454503E-1
7.486239292E0,-6.884351023E-4,5.362732336E-4,-1.045394689E-1,1.045431111E-1
7.496194292E0,3.462367924E-3,-2.081347629E-3,-1.065557450E-1,1.066322971E-1
7.506150292E0,-2.245504293E-4,5.602212623E-4,-1.080939323E-1,1.080956172E-1
7.516106292E0,6.742664846E-4,3.437064588E-4,-1.151145548E-1,1.151170426E-1
7.526061292E0,4.828404053E-4,-1.315493137E-4,-1.163450927E-1,1.163461689E-1
7.536017292E0,2.405110048E-3,-4.825545475E-4,-1.142063066E-1,1.142326481E-1
7.545973292E0,1.100619673E-3,1.993378624E-3,-1.139954701E-1,1.140182096E-1
7.555929292E0,1.036970061E-3,1.067663543E-3,-1.102449372E-1,1.102549836E-1
7.565885292E0,3.368698526E-5,-4.997346550E-4,-1.104528829E-1,1.104540186E-1
7.575840292E0,4.632548953E-4,1.016072929E-4,-1.106656715E-1,1.106666878E-1
7.585796292E0,-1.572816400E-4,1.207997091E-3,-1.090448201E-1,1.090516244E-1
7.595752292E0,1.293342095E-3,2.083111554E-3,-1.150782108E-1,1.151043296E-1
7.605708292E0,1.838665688E-3,1.832093112E-3,-1.116971746E-1,1.117273291E-1
7.615663292E0,-7.608458982E-4,-1.484608278E-3,-1.108494848E-1,1.108620369E-1
7.625619292E0,-9.351895424E-4,1.343302429E-3,-1.106328741E-1,1.106449812E-1
7.635575292E0,-2.637482248E-3,1.542009413E-4,-1.100970507E-1,1.101287458E-1
7.645531292E0,-2.131325658E-3,1.493531279E-3,-1.093104929E-1,1.093414699E-1
7.655486292E0,-9.890957735E-4,-1.574696973E-3,-1.081237867E-1,1.081397764E-1
7.665442292E0,2.616742160E-3,-2.602972090E-4,-1.115133688E-1,1.115443701E-1
7.675398292E0,-1.211019233E-3,1.210832968E-3,-1.104070917E-1,1.104203721E-1
7.685354292E0,-1.144386828E-3,1.173476689E-3,-1.119598523E-1,1.119718500E-1
7.695309292E0,-2.948383917E-4,5.444381386E-4,-1.111931279E-1,1.111948517E-1
7.705265292E0,5.216320860E-4,-1.994531602E-3,-1.086936966E-1,1.087132463E-1
7.715221292E0,1.089684316E-3,-9.372560307E-4,-1.086910293E-1,1.087005322E-1
7.725177292E0,2.401109785E-3,1.928224228E-3,-1.093457565E-1,1.093891121E-1
7.735132292E0,1.660484821E-3,-4.984484985E-4,-1.116517931E-1,1.116652523E-1
7.745088292E0,-9.175724117E-4,1.119620167E-3,-1.107745692E-1,1.107840272E-1
7.755044292E0,-1.518381643E-3,1.889274456E-3,-1.103229001E-1,1.103495226E-1
7.765000292E0,1.137244049E-3,-1.105580479E-3,-1.087628454E-1,1.087744095E-1
7.774955292E0,-8.870247402E-4,-8.435258642E-4,-1.096664518E-1,1.096732830E-1
7.784911292E0,-6.041780580E-5,-1.635551453E-4,-1.077669784E-1,1.077671195E-1
7.794867292E0,-3.384518204E-4,-5.627628416E-4,-1.117332205E-1,1.117351503E-1
7.804823292E0,-2.321560169E-4,8.312184364E-4,-1.135403365E-1,1.135436164E-1
7.814778292E0,2.372149145E-3,-1.027667895E-3,-1.135144979E-1,1.135439317E-1
7.824734292E0,3.875466064E-5,2.259574831E-5,-1.113984361E-1,1.113984452E-1
7.834690292E0,2.329605632E-3,-4.799431190E-4,-1.093624532E-1,1.093883156E-1
7.844646292E0,6.291039754E-4,-1.873930916E-3,-1.063517705E-1,1.063701390E-1
7.854601292E0,3.151916433E-3,1.245047897E-4,-1.072069183E-1,1.072533142E-1
7.864557292E0,6.335746730E-4,1.916304231E-3,-1.114096865E-1,1.114279673E-1
7.874513292E0,1.030729618E-4,4.571583122E-4,-1.104706526E-1,1.104716466E-1
7.884469292E0,2.572471043E-3,1.524800435E-3,-1.102951244E-1,1.103356564E-1
7.894424292E0,2.206286415E-3,9.796516970E-4,-1.093603596E-1,1.093869996E-1
7.904380292E0,1.950290287E-3,1.190797426E-3,-1.083183140E-1,1.083424145E-1
7.914336292E0,3.080269555E-3,2.618869767E-4,-1.108288765E-1,1.108719825E-1
7.924292292E0,-9.658277850E-4,1.092115417E-3,-1.095332354E-1,1.095429377E-1
7.934247292E0,9.180923225E-4,-9.778514504E-5,-1.102014184E-1,1.102052860E-1
7.944203292E0,1.704271417E-3,-1.284605823E-3,-1.077396423E-1,1.077607780E-1
7.954159292E0,-8.606189513E-4,-2.230027691E-3,-1.094030514E-1,1.094291613E-1
7.964115292E0,2.114909294E-4,-8.687339723E-4,-1.093359739E-1,1.093396296E-1
7.974070292E0,8.259393508E-5,-9.801518172E-5,-1.094443649E-1,1.094444400E-1
7.984026292E0,2.199837007E-3,6.600869820E-4,-1.118820459E-1,1.119056173E-1
7.993982292E0,2.175602131E-3,1.369819045E-3,-1.113099977E-1,1.113396841E-1
8.003938292E0,-9.739951347E-4,-4.363078624E-4,-1.103575677E-1,1.103627282E-1
8.013893292E0,-4.986208514E-4,1.561063342E-3,-1.122886240E-1,1.123005816E-1
8.023849292E0,1.828124747E-3,1.698924229E-3,-1.135719046E-1,1.135993217E-1
8.033805292E0,2.853708342E-3,-1.042533666E-3,-1.146198586E-1,1.146601173E-1
8.043761292E0,-1.953813713E-3,-1.182286069E-4,-1.128572971E-1,1.128742702E-1
8.053716292E0,1.869952888E-3,1.475550234E-4,-1.094218194E-1,1.094378959E-1
8.063672292E0,1.974634943E-4,-5.411002785E-4,-1.108813733E-1,1.108828694E-1
8.073628292E0,6.118513411E-4,-1.810096204E-3,-1.107183844E-1,1.107348701E-1
8.083584292E0,-1.955241896E-5,-7.212487981E-4,-1.139045507E-1,1.139068358E-1
8.093539292E0,1.579409465E-3,-7.223710418E-5,-1.157661006E-1,1.157768966E-1
8.103495292E0,1.722222194E-3,-7.318444550E-4,-1.110530496E-1,1.110688141E-1
8.113451292E0,-9.348135791E-4,-7.267836481E-4,-1.080101281E-1,1.080166185E-1
8.123407292E0,-1.704824623E-3,8.558463305E-4,-1.052046716E-1,1.052219646E-1
8.133362292E0,1.734115183E-3,-1.657418907E-4,-1.071674228E-1,1.071815802E-1
8.143318292E0,2.316438127E-3,5.145221949E-4,-1.091168523E-1,1.091426501E-1
8.153274292E0,2.594125981E-4,2.516419627E-3,-1.132149249E-1,1.132431847E-1
8.163230292E0,2.704486251E-3,1.603029668E-4,-1.155780554E-1,1.156098042E-1
8.173186292E0,-1.646852586E-3,1.528368331E-3,-1.121313870E-1,1.121538942E-1
8.183141292E0,1.048594422E-4,1.765948720E-3,-1.091187820E-1,1.091331212E-1
8.193097292E0,1.730985707E-3,-4.045274109E-4,-1.128685176E-1,1.128825152E-1
8.203053292E0,1.164915506E-3,1.550723799E-3,-1.138167456E-1,1.138332699E-1
8.213009292E0,8.557224646E-4,3.893773071E-3,-1.141099557E-1,1.141795767E-1
8.222964292E0,1.513187075E-3,1.152890734E-3,-1.105447710E-1,1.105611382E-1
8.232920292E0,1.007452840E-3,3.071165644E-3,-1.077718884E-1,1.078203457E-1
8.242876292E0,1.923289848E-3,8.330512792E-4,-1.068409830E-1,1.068615397E-1
8.252832292E0,3.777170787E-5,2.757451497E-3,-1.074729487E-1,1.075083237E-1
8.262787292E0,4.551977618E-4,1.092545688E-3,-1.081536412E-1,1.081601173E-1
8.272743292E0,8.560034912E-4,2.366868779E-3,-1.109134778E-1,1.109420316E-1
8.282699292E0,1.140425098E-3,3.426261246E-4,-1.098143905E-1,1.098208465E-1
8.292654417E0,2.051226329E-3,1.094968989E-3,-1.079784036E-1,1.080034357E-1
8.302609417E0,1.552490285E-3,1.428971067E-3,-1.109098792E-1,1.109299486E-1
8.312565417E0,1.400690060E-3,1.080436632E-4,-1.111983061E-1,1.112071800E-1
8.322521417E0,4.639328457E-3,1.440252177E-3,-1.158974096E-1,1.159991692E-1
8.332477417E0,2.464058343E-3,-2.169130370E-3,-1.179927886E-1,1.180384465E-1
8.342432417E0,-1.283398946E-3,7.841810584E-4,-1.134388074E-1,1.134487774E-1
8.352388417E0,4.931957228E-4,-4.600482062E-4,-1.102051958E-1,1.102072596E-1
8.362344417E0,1.598714269E-3,2.942658961E-3,-1.067443192E-1,1.067968390E-1
8.372300417E0,-2.910819603E-6,-9.985538200E-4,-1.094737947E-1,1.094783487E-1
8.382255417E0,3.009515349E-3,-9.580831975E-4,-1.107022092E-1,1.107472538E-1
8.392211417E0,6.145345978E-4,-7.588788867E-4,-1.121408492E-1,1.121451007E-1
8.402167417E0,-5.094867083E-4,8.546188474E-5,-1.118548438E-1,1.118560368E-1
8.412123417E0,3.435238032E-4,-1.136129722E-3,-1.134687215E-1,1.134749292E-1
8.422078417E0,-4.266305827E-3,-5.454365164E-4,-1.105685979E-1,1.106522196E-1
8.432034417E0,4.253845837E-4,2.694902942E-4,-1.070846543E-1,1.070858383E-1
8.441990417E0,1.078898087E-3,-2.053156495E-4,-1.080848724E-1,1.080904520E-1
8.451946417E0,2.550294390E-3,1.867022365E-4,-1.057149246E-1,1.057458470E-1
8.461901417E0,3.272312926E-3,-7.964391261E-5,-1.076442450E-1,1.076940011E-1
8.471857417E0,7.593541523E-4,1.979245804E-3,-1.059936136E-1,1.060148110E-1
8.481813417E0,-7.785737980E-4,4.564914852E-4,-1.079146713E-1,1.079184453E-1
8.491769417E0,5.735130981E-4,1.005102880E-3,-1.126854569E-1,1.126913987E-1
8.501724417E0,1.042209100E-3,-1.597622409E-3,-1.160400808E-1,1.160557579E-1
8.511680417E0,-2.611419186E-4,-8.846940473E-4,-1.154043898E-1,1.154080762E-1
8.521636417E0,-5.788101116E-4,-7.791416720E-4,-1.090949476E-1,1.090992652E-1
8.531592417E0,1.670762082E-3,-1.832421869E-3,-1.090885550E-1,1.091167359E-1
8.541547417E0,1.455474179E-3,-1.000785269E-3,-1.061008275E-1,1.061155293E-1
8.551503417E0,2.416342730E-3,-4.713488743E-4,-1.068140119E-1,1.068423794E-1
8.561459417E0,7.738521090E-4,-9.227655828E-4,-1.103966087E-1,1.104031773E-1
8.571415417E0,3.554694704E-4,-6.724288687E-4,-1.108871624E-1,1.108897710E-1
8.581370417E0,7.105179830E-4,1.810379326E-3,-1.152852103E-1,1.153016133E-1
8.591326417E0,2.511347411E-3,1.844733953E-3,-1.125951558E-1,1.126382663E-1
8.601282417E0,1.369411126E-3,7.485179231E-4,-1.088876575E-1,1.088988408E-1
8.611238417E0,-1.224507811E-3,-1.617168076E-3,-1.095377356E-1,1.095565159E-1
8.621193417E0,-1.666311640E-3,9.135147557E-4,-1.099700779E-1,1.099864952E-1
8.631149417E0,4.897834733E-4,-1.411158592E-3,-1.135192662E-1,1.135290935E-1
8.641105417E0,-3.706779098E-4,-4.117870703E-4,-1.188566163E-1,1.188579077E-1
8.651061417E0,1.135605969E-3,-4.421472549E-4,-1.200369298E-1,1.200431157E-1
8.661016417E0,6.197494222E-4,-1.106262207E-4,-1.129896790E-1,1.129914328E-1
8.670972417E0,-1.422895119E-3,1.544527709E-3,-1.069115475E-1,1.069321709E-1
8.680928417E0,2.022519941E-3,1.706425101E-4,-1.032688990E-1,1.032888436E-1
8.690884417E0,-8.243992925E-4,-3.795670345E-4,-1.058601514E-1,1.058640418E-1
8.700839417E0,7.506973343E-4,2.680908889E-3,-1.154997349E-1,1.155332834E-1
8.710795417E0,4.763917532E-4,-4.006344825E-4,-1.198795661E-1,1.198811821E-1
8.720751417E0,7.739305729E-4,-6.217872724E-4,-1.213656589E-1,1.213697193E-1
8.730707417E0,1.806438086E-3,8.701160550E-4,-1.140377074E-1,1.140553332E-1
8.740663417E0,1.347967889E-3,-1.959373243E-3,-1.044211835E-1,1.044482634E-1
8.750618417E0,-1.195350895E-3,2.731550485E-4,-9.965599328E-2,9.966353633E-2
8.760574417E0,7.268643240E-4,-2.053145319E-3,-9.950861335E-2,9.953244631E-2
8.770530417E0,9.220740176E-4,-7.255282253E-5,-1.062828898E-1,1.062869143E-1
8.780486417E0,9.019345744E-4,2.965085208E-3,-1.134659275E-1,1.135082461E-1
8.790441417E0,5.860836245E-4,4.308205098E-4,-1.164036542E-1,1.164059269E-1
8.800397417E0,2.660926548E-4,5.275756121E-5,-1.168064475E-1,1.168067625E-1
8.810353417E0,5.382677191E-4,9.180186316E-4,-1.094566584E-1,1.094618315E-1
8.820309417E0,-1.298262388E-3,3.491947427E-4,-1.080504954E-1,1.080588588E-1
8.830264417E0,1.973963808E-3,3.430694342E-4,-1.080688685E-1,1.080874395E-1
8.840220417E0,3.423413436E-4,1.133151352E-3,-1.148978844E-1,1.149039820E-1
8.850176417E0,2.587918658E-3,2.961145714E-3,-1.154446304E-1,1.155115942E-1
8.860132417E0,1.736136153E-3,-9.912736714E-4,-1.150171906E-1,1.150345640E-1
8.870087417E0,-7.469951524E-4,2.790540457E-4,-1.124919802E-1,1.124948065E-1
8.880043417E0,7.543315878E-4,-7.256548852E-4,-1.080667973E-1,1.080718662E-1
8.889999417E0,2.648969530E-5,-5.703922361E-4,-1.014046371E-1,1.014062447E-1
8.899955417E0,1.965285337E-4,3.028055653E-3,-1.050181687E-1,1.050619984E-1
8.909910417E0,1.089105208E-4,4.993835464E-4,-1.104992256E-1,1.105004077E-1
8.919866417E0,6.579846377E-4,-1.152809709E-4,-1.130613685E-1,1.130633419E-1
8.929822417E0,1.263587503E-3,1.208310015E-3,-1.161732674E-1,1.161864223E-1
8.939778417E0,-1.833550399E-3,2.051480114E-4,-1.131918058E-1,1.132068412E-1
8.949733417E0,1.853063353E-3,7.449705154E-4,-1.124423966E-1,1.124601324E-1
8.959689417E0,8.983826847E-4,1.764832996E-3,-1.096979454E-1,1.097158191E-1
8.969645417E0,-1.916312380E-3,5.522957072E-4,-1.068150774E-1,1.068336934E-1
8.979601417E0,1.293154666E-3,-1.570024528E-3,-1.111778915E-1,1.111964963E-1
8.989556417E0,1.573852031E-3,8.941981941E-4,-1.133196056E-1,1.133340620E-1
8.999512417E0,1.839721575E-3,-9.636804461E-4,-1.141460687E-1,1.141649607E-1
9.009468417E0,-1.772323623E-3,1.841959544E-3,-1.132145002E-1,1.132433531E-1
9.019424417E0,1.963299466E-3,1.882613637E-3,-1.129442826E-1,1.129770320E-1
9.029379417E0,9.140139446E-4,-1.255388372E-3,-1.107788682E-1,1.107897516E-1
9.039335417E0,4.799319140E-4,-4.813931882E-4,-1.086438075E-1,1.086459340E-1
9.049291417E0,2.706867177E-3,8.850740269E-4,-1.086861566E-1,1.087234617E-1
9.059247417E0,1.009109663E-3,-2.208259888E-3,-1.100260168E-1,1.100528014E-1
9.069203417E0,1.223494066E-3,7.949862629E-4,-1.085317135E-1,1.085415210E-1
9.079158417E0,2.491601510E-3,1.424046233E-3,-1.108930185E-1,1.109301472E-1
9.089114417E0,-1.329235733E-3,1.644289121E-3,-1.124432459E-1,1.124631233E-1
9.099070417E0,3.324435093E-3,-1.053657383E-3,-1.156529710E-1,1.157055390E-1
9.109026417E0,1.557693933E-3,4.259953275E-4,-1.135924831E-1,1.136039616E-1
9.118981417E0,-1.092784572E-3,-6.287479773E-4,-1.135198623E-1,1.135268631E-1
9.128937417E0,1.047864323E-3,-1.003188081E-3,-1.098124757E-1,1.098220571E-1
9.138893417E0,9.981337935E-4,5.698623136E-4,-1.093371138E-1,1.093431546E-1
9.148849417E0,-2.157350536E-4,6.603077054E-6,-1.098345965E-1,1.098348086E-1
9.158804417E0,1.384204021E-3,5.069188774E-4,-1.107720360E-1,1.107818440E-1
9.168760417E0,8.409192087E-4,-7.559526712E-4,-1.136674285E-1,1.136730527E-1
9.178716417E0,1.501004212E-3,1.690191217E-3,-1.150282621E-1,1.150504709E-1
9.188672417E0,-2.982272999E-4,1.046238467E-3,-1.144706011E-1,1.144757707E-1
9.198627417E0,1.509667374E-3,2.827540040E-3,-1.109743640E-1,1.110206447E-1
9.208583417E0,2.156815492E-3,-1.663614064E-3,-1.107613146E-1,1.107948026E-1
9.218539417E0,2.402317477E-3,9.255465120E-4,-1.121865809E-1,1.122161160E-1
9.228495417E0,1.814824063E-3,-2.045475878E-3,-1.090405881E-1,1.090748707E-1
9.238450417E0,5.053807981E-4,-1.629343256E-3,-1.091900021E-1,1.092033274E-1
9.248406417E0,6.481262390E-4,1.905736513E-3,-1.104683205E-1,1.104866587E-1
9.258362417E0,-1.396850857E-4,1.235573553E-3,-1.126544699E-1,1.126613321E-1
9.268318417E0,2.217058791E-4,-8.988194168E-5,-1.140670106E-1,1.140672615E-1
9.278273417E0,-4.316807026E-4,5.167154595E-4,-1.089891493E-1,1.089912291E-1
9.288229417E0,-1.830372959E-3,1.377472654E-4,-1.089108512E-1,1.089263180E-1
9.298185333E0,-7.648371975E-4,-6.164452061E-4,-1.106075794E-1,1.106119414E-1
9.308141333E0,1.583804609E-3,-9.306985885E-4,-1.088498905E-1,1.088653908E-1
9.318096333E0,-1.050222549E-3,5.651079118E-4,-1.116829962E-1,1.116893636E-1
9.328052333E0,1.222252846E-3,-1.800578088E-3,-1.143088713E-1,1.143295852E-1
9.338008333E0,1.294210088E-3,-7.110647857E-5,-1.109266728E-1,1.109342453E-1
9.347964333E0,1.967190765E-3,-1.973136328E-3,-1.112792715E-1,1.113141473E-1
9.357919333E0,-1.105916745E-4,-3.462601453E-4,-1.058986261E-1,1.058992500E-1
9.367875333E0,-1.006479026E-3,6.606811658E-4,-1.016993523E-1,1.017064784E-1
9.377831333E0,-9.741593385E-4,9.452989325E-4,-1.056538075E-1,1.056625270E-1
9.387787333E0,-3.011786030E-4,1.591115259E-3,-1.087739617E-1,1.087860152E-1
9.397742333E0,1.190027455E-3,4.855170846E-5,-1.156745553E-1,1.156806867E-1
9.407698333E0,1.106404117E-3,4.528192803E-4,-1.190232113E-1,1.190292149E-1
9.417654333E0,5.337530747E-4,6.945468485E-4,-1.161416769E-1,1.161449801E-1
9.427610333E0,5.582541926E-4,1.117456704E-3,-1.099306494E-1,1.099377462E-1
9.437565333E0,-9.688230930E-4,5.884673446E-4,-1.031050906E-1,1.031113214E-1
9.447521333E0,-4.982425598E-4,-2.242739312E-3,-1.007974595E-1,1.008236379E-1
9.457477333E0,-5.336633767E-4,-7.337369025E-4,-1.041780040E-1,1.041819547E-1
9.467433333E0,-2.773115411E-3,1.380813308E-3,-1.127509847E-1,1.127935343E-1
9.477388333E0,2.307797782E-3,1.387640834E-3,-1.199972332E-1,1.200274445E-1
9.487344333E0,-1.745347399E-4,2.701377496E-3,-1.152669266E-1,1.152987089E-1
9.497300333E0,2.476334339E-3,-9.594010189E-4,-1.094785854E-1,1.095107910E-1
9.507256333E0,6.697257049E-5,-9.852331132E-4,-1.041272357E-1,1.041319182E-1
9.517212333E0,1.499357866E-3,-1.160219312E-3,-1.030369997E-1,1.030544395E-1
9.527167333E0,6.546031218E-4,-1.027061604E-3,-1.053339764E-1,1.053410174E-1
9.537123333E0,2.495422959E-3,-7.226401940E-4,-1.112399325E-1,1.112702652E-1
9.547079333E0,-1.293189824E-3,-7.149670273E-5,-1.143872589E-1,1.143945910E-1
9.557035333E0,-1.135022147E-3,9.735664353E-4,-1.122423932E-1,1.122523538E-1
9.566990333E0,1.372610219E-3,-9.204735979E-4,-1.120362654E-1,1.120484543E-1
9.576946333E0,2.768433187E-4,-7.713306695E-4,-1.043069735E-1,1.043101928E-1
9.586902333E0,-2.144768834E-3,-2.159636468E-3,-9.967041016E-2,9.971687281E-2
9.596858333E0,-5.698222667E-4,-1.480462961E-3,-1.034973487E-1,1.035095052E-1
9.606813333E0,2.296586608E-4,-5.209259689E-4,-1.131161526E-1,1.131175852E-1
9.616769333E0,-5.515314406E-4,1.817401499E-3,-1.188630983E-1,1.188782708E-1
9.626725333E0,9.433008963E-4,-2.398900688E-4,-1.160207093E-1,1.160247919E-1
9.636681333E0,8.511991473E-4,1.928784885E-3,-1.102835163E-1,1.103036660E-1
9.646636333E0,-2.166694961E-3,5.474034697E-4,-9.979945421E-2,9.982447234E-2
9.656592333E0,-8.795208414E-4,-5.862135440E-4,-1.014795825E-1,1.014850869E-1
9.666548333E0,-1.391913043E-3,-1.254864037E-4,-1.081209704E-1,1.081300024E-1
9.676504333E0,1.600610558E-3,9.342655540E-5,-1.178191900E-1,1.178300990E-1
9.686459333E0,-2.707926906E-4,-5.294866860E-4,-1.230035648E-1,1.230050025E-1
9.696415333E0,-5.758753978E-4,1.452853903E-4,-1.191075817E-1,1.191090624E-1
9.706371333E0,-2.166149789E-4,-6.248243153E-6,-1.078163087E-1,1.078165265E-1
9.716327333E0,-9.650964057E-4,6.522210315E-4,-1.021692157E-1,1.021758554E-1
9.726282333E0,3.287172876E-3,2.077389508E-4,-9.810017049E-2,9.815544871E-2
9.736238333E0,1.432645367E-3,-8.262600750E-4,-1.060298830E-1,1.060427804E-1
9.746194333E0,9.119974566E-4,-5.647372454E-4,-1.174532473E-1,1.174581456E-1
9.756150333E0,3.550704569E-4,1.102960669E-3,-1.168236136E-1,1.168293598E-1
9.766105333E0,3.771746706E-4,-8.099880069E-4,-1.131543070E-1,1.131578346E-1
9.776061333E0,1.508310903E-3,-3.929743543E-4,-1.075116247E-1,1.075229226E-1
9.786017333E0,-2.121311380E-3,6.455648690E-5,-1.024111360E-1,1.024331241E-1
9.795973333E0,1.658062916E-3,-3.963811323E-4,-1.067068949E-1,1.067205122E-1
9.805929333E0,2.570728306E-3,1.426020637E-3,-1.118795499E-1,1.119181659E-1
9.815884333E0,1.782717445E-4,-1.522600651E-4,-1.184471697E-1,1.184474017E-1
9.825840333E0,1.164440298E-3,1.337778755E-3,-1.156319454E-1,1.156455463E-1
9.835796333E0,1.125730691E-3,4.583196715E-4,-1.099353582E-1,1.099420770E-1
9.845752333E0,3.209234274E-4,6.892150268E-4,-1.055997312E-1,1.056024680E-1
9.855707333E0,8.542098221E-4,-5.143694580E-4,-1.076807678E-1,1.076853843E-1
9.865663333E0,8.286435041E-4,2.880403772E-4,-1.111236960E-1,1.111271588E-1
9.875619333E0,-6.344489520E-5,8.029863238E-5,-1.135808602E-1,1.135809063E-1
9.885575333E0,5.141947186E-4,6.472859532E-4,-1.127925664E-1,1.127955957E-1
9.895530333E0,-5.920119584E-4,-3.215307370E-4,-1.114697158E-1,1.114717516E-1
9.905486333E0,8.942982531E-4,1.710726880E-3,-1.089338511E-1,1.089509535E-1
9.915442333E0,1.189183909E-3,-2.229347825E-3,-1.056468561E-1,1.056770664E-1
9.925398333E0,2.187280188E-4,-4.708627239E-4,-1.086868569E-1,1.086880970E-1
9.935353333E0,2.628376475E-3,-1.826211810E-4,-1.105392426E-1,1.105706375E-1
9.945309333E0,1.506386790E-3,-5.781007931E-4,-1.139004156E-1,1.139118434E-1
9.955265333E0,-3.030670341E-4,-7.644705474E-4,-1.127684638E-1,1.127714622E-1
9.965221333E0,1.125718933E-3,1.913383603E-4,-1.141439900E-1,1.141497013E-1
9.975176333E0,-7.231666241E-4,-4.982668906E-4,-1.133773997E-1,1.133808009E-1
9.985132333E0,2.167961095E-3,1.605097204E-3,-1.095262021E-1,1.095594146E-1
9.995088333E0,-4.711875226E-4,-1.594651490E-3,-1.038494036E-1,1.038627149E-1
1.000504433E1,3.499852028E-3,1.016044989E-3,-1.073639765E-1,1.074258105E-1
1.001499933E1,2.652726136E-3,-3.737676889E-5,-1.103635803E-1,1.103954628E-1
1.002495533E1,1.586928847E-3,-1.776155084E-3,-1.127734780E-1,1.127986277E-1
1.003491133E1,7.977032510E-5,3.070738167E-4,-1.136638597E-1,1.136643025E-1
1.004486733E1,1.148496871E-3,1.537454315E-3,-1.092909500E-1,1.093077974E-1
1.005482233E1,1.541695558E-3,9.054988623E-4,-1.096773148E-1,1.096918872E-1
1.006477833E1,2.405891428E-3,8.407840505E-4,-1.046159714E-1,1.046470101E-1
1.007473433E1,-1.289561624E-6,-1.061462797E-3,-1.074530184E-1,1.074582611E-1
1.008469033E1,8.107082103E-4,1.747106202E-3,-1.095113754E-1,1.095283113E-1
1.009464533E1,1.761719323E-4,5.707694218E-4,-1.143112108E-1,1.143127715E-1
1.010460133E1,3.598600160E-3,-8.686697111E-4,-1.150254756E-1,1.150850318E-1
1.011455733E1,-1.507473644E-4,-1.712674275E-3,-1.135660708E-1,1.135790844E-1
1.012451333E1,-1.208821312E-3,-5.763033405E-4,-1.085263044E-1,1.085345664E-1
1.013446933E1,-1.679394394E-3,9.362548590E-4,-1.047543138E-1,1.047719581E-1
1.014442433E1,1.055405708E-3,1.008160412E-3,-1.036118120E-1,1.036220915E-1
1.015438033E1,1.152922050E-3,1.112787984E-3,-1.085966453E-1,1.086084660E-1
1.016433633E1,-1.123814378E-3,5.117123947E-4,-1.127850041E-1,1.127917637E-1
1.017429233E1,-9.282090468E-4,4.502013326E-6,-1.182771921E-1,1.182808343E-1
1.018424733E1,1.446531736E-3,-2.852082253E-5,-1.139074787E-1,1.139166668E-1
1.019420333E1,4.529624246E-3,-1.678775065E-3,-1.112270281E-1,1.113318802E-1
1.020415933E1,-3.663179814E-5,7.819859311E-4,-1.054106876E-1,1.054135945E-1
1.021411533E1,2.571305027E-3,-1.071672887E-5,-1.078718454E-1,1.079024872E-1
1.022407033E1,4.417408258E-3,9.677279741E-4,-1.133259982E-1,1.134161887E-1
1.023402633E1,1.533477334E-3,-1.226042397E-3,-1.175818294E-1,1.175982200E-1
1.024398233E1,2.487687860E-3,-1.994097605E-3,-1.149543524E-1,1.149985572E-1
1.025393833E1,1.621762058E-3,1.969007775E-3,-1.079634354E-1,1.079935668E-1
1.026389333E1,7.082977681E-4,1.129845157E-3,-1.043798849E-1,1.043884026E-1
1.027384933E1,1.803389052E-3,8.274707943E-4,-1.053317115E-1,1.053503980E-1
1.028380533E1,-1.966448617E-4,4.727374762E-4,-1.059964374E-1,1.059976740E-1
1.029376204E1,7.360494346E-4,3.256791271E-3,-1.132261157E-1,1.132753360E-1
1.030371704E1,-1.028463012E-4,-6.862850860E-4,-1.173814461E-1,1.173834973E-1
1.031367304E1,-1.720471773E-4,8.611381054E-4,-1.203070283E-1,1.203102332E-1
1.032362904E1,-1.457288745E-3,2.960152924E-4,-1.108674556E-1,1.108774279E-1
1.033358504E1,2.757467330E-3,9.226361290E-4,-1.038171425E-1,1.038578546E-1
1.034354004E1,-3.408815712E-3,-7.327850908E-4,-9.930308908E-2,9.936428181E-2
1.035349604E1,1.296910690E-3,1.315549016E-3,-1.017351821E-1,1.017519529E-1
1.036345204E1,1.767757349E-3,-2.653360367E-3,-1.092958972E-1,1.093423908E-1
1.037340804E1,5.217517610E-4,-1.664841548E-3,-1.155948266E-1,1.156079922E-1
1.038336404E1,4.153238144E-3,8.648950607E-4,-1.168904528E-1,1.169674116E-1
1.039331904E1,9.408885380E-4,-3.305329010E-4,-1.134701222E-1,1.134745044E-1
1.040327504E1,-1.636785106E-3,8.772099391E-4,-1.084852144E-1,1.085011074E-1
1.041323104E1,1.117308857E-3,-2.241721377E-4,-1.065243706E-1,1.065304659E-1