"Time (s)","Gyroscope x (rad/s)","Gyroscope y (rad/s)","Gyroscope z (rad/s)","Absolute (rad/s)"
3.105874999E-3,-2.291875193E-3,-9.074527770E-5,1.805764884E-1,1.805910548E-1
1.306187500E-2,-3.795762314E-3,1.754025929E-3,1.835959852E-1,1.836435956E-1
2.301787500E-2,-8.457517251E-4,2.814969048E-4,1.887571365E-1,1.887592411E-1
3.297387500E-2,-3.450855613E-3,1.441037282E-3,1.879555136E-1,1.879927128E-1
4.292987500E-2,-1.745541464E-3,3.937345929E-3,1.895919740E-1,1.896408875E-1
5.288587500E-2,-4.293920007E-3,2.995385788E-3,1.929358244E-1,1.930068455E-1
6.284187500E-2,-2.619367093E-3,2.741362900E-3,1.979792714E-1,1.980155753E-1
7.279787500E-2,-1.682999893E-3,1.744541340E-3,2.028797567E-1,2.028942374E-1
8.275387500E-2,1.545351697E-4,4.704611376E-3,2.015252560E-1,2.015802224E-1
9.270987500E-2,-2.099031582E-3,8.592735976E-4,2.028246224E-1,2.028373036E-1
1.026658750E-1,-8.945772424E-4,3.490731586E-3,2.012491822E-1,2.012814418E-1
1.126218750E-1,-3.244284075E-3,-4.142615944E-4,2.083347887E-1,2.083604597E-1
1.225778750E-1,-2.890546806E-3,3.593199886E-3,2.173058540E-1,2.173547803E-1
1.325338750E-1,-2.372295596E-3,1.622993499E-3,2.208814025E-1,2.209001038E-1
1.424898750E-1,-1.022742363E-3,2.864515409E-3,2.221055329E-1,2.221263586E-1
1.524458750E-1,-1.238991041E-3,3.952949774E-3,2.249295563E-1,2.249677003E-1
1.624018750E-1,-4.308943171E-3,3.073628061E-3,2.234841585E-1,2.235468257E-1
1.723578750E-1,1.158526284E-3,1.900238916E-3,2.243105173E-1,2.243215577E-1
1.823138750E-1,-8.261572802E-4,3.415808082E-3,2.261158973E-1,2.261432053E-1
1.922698750E-1,-1.324701007E-3,3.778796643E-3,2.271183133E-1,2.271536097E-1
2.022258750E-1,-2.659369027E-3,2.763549797E-3,2.318645418E-1,2.318962595E-1
2.121818750E-1,-3.140069311E-3,5.945228040E-3,2.357452810E-1,2.358411399E-1
2.221378750E-1,-1.783238142E-3,2.388282679E-3,2.416878939E-1,2.417062719E-1
2.320938750E-1,-2.550494857E-3,3.581911325E-3,2.435086966E-1,2.435483944E-1
2.420498750E-1,-3.608462401E-3,1.787856221E-3,2.463285178E-1,2.463614339E-1
2.520058750E-1,-3.133354709E-3,2.450717613E-3,2.444395423E-1,2.444719079E-1
2.619618750E-1,-6.471384317E-3,4.245555494E-3,2.460447401E-1,2.461664430E-1
2.719178750E-1,-3.491572803E-3,7.104752585E-4,2.470623404E-1,2.470880327E-1
2.818738750E-1,-3.072670428E-3,9.311232716E-4,2.540290356E-1,2.540493244E-1
2.918298750E-1,-3.993058577E-3,2.832087688E-3,2.564519644E-1,2.564986847E-1
3.017858750E-1,-4.238879774E-3,1.936424524E-4,2.614846230E-1,2.615190502E-1
3.117418750E-1,-1.439364511E-3,2.534294501E-3,2.651278377E-1,2.651438567E-1
3.216978750E-1,-4.373661708E-3,3.462013323E-3,2.686374485E-1,2.686953539E-1
3.316538750E-1,-2.484415192E-3,2.990633249E-3,2.701109648E-1,2.701389448E-1
3.416098750E-1,-1.982396236E-3,1.455456018E-3,2.668435276E-1,2.668548603E-1
3.515658750E-1,-3.255387302E-3,3.107946832E-3,2.683476806E-1,2.683854216E-1
3.615218750E-1,-3.082222538E-3,3.154783044E-3,2.681494653E-1,2.681857351E-1
3.714778750E-1,-1.824677689E-3,2.295647748E-3,2.723892331E-1,2.724050179E-1
3.814338750E-1,-7.106108824E-4,5.182697903E-3,2.748558819E-1,2.749056586E-1
3.913898750E-1,-4.154877272E-3,1.185559668E-3,2.760249972E-1,2.760588119E-1
4.013458750E-1,-1.690901117E-3,3.079352435E-3,2.681607008E-1,2.681837113E-1
4.113018750E-1,-4.349534400E-3,2.214357257E-3,2.663151324E-1,2.663598535E-1
4.212578750E-1,-5.361603107E-3,-4.562316462E-4,2.644582987E-1,2.645130369E-1
4.312138750E-1,-1.309337327E-3,1.429553144E-3,2.664287686E-1,2.664358211E-1
4.411698750E-1,-3.045719583E-3,2.163835801E-3,2.667128742E-1,2.667390407E-1
4.511258750E-1,-6.603968795E-3,3.261590376E-3,2.694236934E-1,2.695243532E-1
4.610818750E-1,-2.719614888E-3,4.692597780E-3,2.666657269E-1,2.667208779E-1
4.710378750E-1,-4.034949467E-3,1.991087571E-3,2.683336735E-1,2.683713948E-1
4.809938750E-1,-2.080992563E-3,2.059551887E-3,2.681863904E-1,2.682023719E-1
4.909498750E-1,-3.927362151E-3,6.765723228E-4,2.667776048E-1,2.668073694E-1
5.009058750E-1,-2.038314240E-3,1.261988655E-3,2.667981386E-1,2.668089094E-1
5.108618750E-1,-1.376252389E-3,2.318730578E-3,2.661933303E-1,2.662069865E-1
5.208178750E-1,-1.672696904E-3,3.385683987E-3,2.642957866E-1,2.643227641E-1
5.307738750E-1,-3.034637310E-3,1.155020669E-3,2.622360885E-1,2.622561900E-1
5.407298750E-1,-3.976195585E-3,2.106836066E-3,2.640942335E-1,2.641325672E-1
5.506858750E-1,-1.482411404E-3,1.959563233E-3,2.678042948E-1,2.678155667E-1
5.606418750E-1,7.001539925E-4,2.134102397E-3,2.677409351E-1,2.677503556E-1
5.705978750E-1,-1.050608233E-3,2.381243743E-3,2.729695141E-1,2.729819220E-1
5.805538750E-1,-1.830890542E-3,3.497074358E-3,2.724758387E-1,2.725044300E-1
5.905108750E-1,-4.261824302E-3,1.914357767E-3,2.748260796E-1,2.748657890E-1
6.004668750E-1,-3.069194034E-3,3.619659692E-4,2.726453543E-1,2.726628691E-1
6.104228750E-1,-2.401539590E-3,2.720461227E-3,2.718179226E-1,2.718421442E-1
6.203788750E-1,-5.715782754E-4,1.736294478E-3,2.689205706E-1,2.689267832E-1
6.303348750E-1,-2.520479728E-3,6.438652053E-4,2.656100094E-1,2.656227484E-1
6.402908750E-1,-4.407277331E-3,3.405573778E-3,2.672751546E-1,2.673331822E-1
6.502468750E-1,-2.230143175E-3,1.825520769E-3,2.627368569E-1,2.627526633E-1
6.602028750E-1,-2.748544794E-3,5.301728845E-3,2.661353350E-1,2.662023278E-1
6.701588750E-1,-3.349620383E-3,3.041237593E-3,2.685928941E-1,2.686309957E-1
6.801148750E-1,-1.976719592E-3,7.274914533E-4,2.669358850E-1,2.669441952E-1
6.900708750E-1,-1.276841038E-3,2.173854038E-3,2.682381868E-1,2.682500342E-1
7.000268750E-1,-2.902259119E-3,3.027338535E-3,2.695381343E-1,2.695707583E-1
7.099828750E-1,-5.687972298E-4,-1.012144610E-3,2.672672570E-1,2.672697787E-1
7.199388750E-1,-2.417198848E-3,3.431295045E-3,2.716383040E-1,2.716707287E-1
7.298948750E-1,-2.636110410E-3,2.905054484E-3,2.721749246E-1,2.722031925E-1
7.398504583E-1,-3.292725887E-5,5.864957348E-4,2.689796388E-1,2.689802802E-1
7.498064583E-1,-2.259862609E-3,1.729790121E-3,2.712092400E-1,2.712241711E-1
7.597624583E-1,-2.484611701E-3,3.399603534E-3,2.750513554E-1,2.750835849E-1
7.697184583E-1,-2.752792090E-3,4.134010524E-4,2.700715065E-1,2.700858519E-1
7.796744583E-1,-5.323827267E-3,3.511640243E-3,2.684147358E-1,2.684904936E-1
7.896304583E-1,-4.218881484E-3,2.701773308E-3,2.674754262E-1,2.675223396E-1
7.995864583E-1,-3.036008915E-3,1.961954869E-3,2.651004791E-1,2.651251226E-1
8.095424583E-1,-4.383614287E-4,4.510067403E-3,2.636953890E-1,2.637343191E-1
8.194984583E-1,-3.584293183E-3,2.018693835E-3,2.603046000E-1,2.603371027E-1
8.294544583E-1,-5.257823970E-3,3.054929432E-3,2.630812228E-1,2.631514907E-1
8.394104583E-1,-1.716880011E-3,1.308545470E-3,2.653132379E-1,2.653220198E-1
8.493664583E-1,-4.623986315E-3,3.912318032E-3,2.637291849E-1,2.637987309E-1
8.593224583E-1,-2.600122709E-3,1.120534725E-3,2.636803389E-1,2.636955391E-1
8.692784583E-1,-3.055789508E-3,1.504030079E-3,2.626100183E-1,2.626321032E-1
8.792344583E-1,-4.439924378E-3,3.480381798E-3,2.609668374E-1,2.610278074E-1
8.891904583E-1,-4.146444146E-3,-5.460511893E-4,2.616571188E-1,2.616905405E-1
8.991464583E-1,-1.457234262E-3,2.614497207E-3,2.643103004E-1,2.643272479E-1
9.091024583E-1,-2.748068888E-3,2.143117599E-3,2.612058520E-1,2.612290986E-1
9.190584583E-1,-2.483357675E-3,4.120214377E-3,2.647357285E-1,2.647794350E-1
9.290144583E-1,-2.002923284E-3,2.328173257E-3,2.606794834E-1,2.606975741E-1
9.389704583E-1,-4.085964058E-3,1.463028602E-3,2.628251016E-1,2.628609320E-1
9.489264583E-1,2.326181857E-4,1.211092807E-3,2.631156445E-1,2.631185345E-1
9.588824583E-1,-2.132622292E-3,2.115602605E-3,2.623890638E-1,2.624062588E-1
9.688384583E-1,-1.761111431E-3,4.383816849E-3,2.653387785E-1,2.653808334E-1
9.787944583E-1,-9.640349308E-4,2.932994626E-3,2.673060000E-1,2.673238288E-1
9.887504583E-1,-4.421084188E-3,1.582505181E-3,2.684372962E-1,2.684783646E-1
9.987064583E-1,-1.033992390E-3,9.158020839E-4,2.653327286E-1,2.653363238E-1
1.008662458E0,-3.520586062E-3,4.564067349E-4,2.649020851E-1,2.649258717E-1
1.018618458E0,-2.068969654E-3,2.424257807E-3,2.665441632E-1,2.665632169E-1
1.028574458E0,-3.716401057E-3,1.958737150E-3,2.684086561E-1,2.684415299E-1
1.038530458E0,-3.432752565E-4,4.842143506E-3,2.668737471E-1,2.669178920E-1
1.048486458E0,-4.050928168E-3,7.786927745E-4,2.666639090E-1,2.666958131E-1
1.058442458E0,-1.959162764E-3,3.538423683E-3,2.653577626E-1,2.653885848E-1
1.068398458E0,-2.245186362E-3,3.004193772E-3,2.637516260E-1,2.637782900E-1
1.078354458E0,-2.211673884E-3,-9.586783126E-4,2.638281286E-1,2.638391404E-1
1.088310458E0,-3.031394677E-3,1.146550290E-3,2.642374635E-1,2.642573387E-1
1.098266458E0,-2.246733056E-4,3.548509441E-3,2.660103440E-1,2.660341059E-1
1.108222458E0,-1.885953126E-3,1.970586367E-3,2.654926181E-1,2.655066295E-1
1.118178458E0,-1.534634270E-3,2.105359919E-3,2.625515461E-1,2.625644721E-1
1.128134458E0,-3.030265449E-3,4.132025409E-3,2.616591156E-1,2.617092832E-1
1.138090458E0,-2.918117680E-4,2.963518724E-3,2.617599964E-1,2.617769343E-1
1.148046458E0,-4.112116061E-3,2.047924325E-3,2.606915236E-1,2.607319964E-1
1.158002458E0,-2.335017547E-3,1.046191901E-3,2.619928420E-1,2.620053359E-1
1.167958458E0,2.277843654E-3,1.940215006E-3,2.639071047E-1,2.639240666E-1
1.177914458E0,-4.241760820E-3,2.269697376E-3,2.627648115E-1,2.628088473E-1
1.187870458E0,-1.858231379E-3,1.758636907E-3,2.630684376E-1,2.630808786E-1
1.197826458E0,-4.298312124E-3,4.759446718E-3,2.615802884E-1,2.616588907E-1
1.207782458E0,-2.996559255E-3,7.617752999E-4,2.593067288E-1,2.593251613E-1
1.217738458E0,-3.650947707E-3,8.345739916E-4,2.584765851E-1,2.585037156E-1
1.227694458E0,-3.050671192E-3,4.468020052E-5,2.574824095E-1,2.575004850E-1
1.237650458E0,-2.427510684E-3,-6.102919579E-4,2.571388185E-1,2.571510009E-1
1.247606458E0,-2.448282903E-3,4.921093583E-3,2.526558936E-1,2.527156738E-1
1.257562458E0,-3.061141120E-3,-1.502531581E-3,2.557755411E-1,2.557982713E-1
1.267518458E0,-3.111474914E-3,-2.086295746E-3,2.521965206E-1,2.522243424E-1
1.277474458E0,-1.976893749E-3,1.127138734E-3,2.506875396E-1,2.506978681E-1
1.287430458E0,-4.233123735E-3,1.034993678E-3,2.517057061E-1,2.517434270E-1
1.297386458E0,-1.150294207E-3,2.158107236E-3,2.502533793E-1,2.502653282E-1
1.307342458E0,-3.733560443E-3,2.543999813E-3,2.484333813E-1,2.484744582E-1
1.317298458E0,-7.384715136E-4,4.276081920E-3,2.501355410E-1,2.501731782E-1
1.327254458E0,-1.557127340E-3,2.837708686E-3,2.494609654E-1,2.494819643E-1
1.337210458E0,-4.130675457E-3,3.112473525E-3,2.473207265E-1,2.473748001E-1
1.347166458E0,-4.023349844E-3,4.587065894E-3,2.460333556E-1,2.461090014E-1
1.357122458E0,-2.984721679E-3,2.594354562E-3,2.407718599E-1,2.408043350E-1
1.367078458E0,-3.340777475E-4,6.092339754E-4,2.460020483E-1,2.460030295E-1
1.377034458E0,-4.148160107E-3,4.894471262E-3,2.627323568E-1,2.628106816E-1
1.386990458E0,-2.169697778E-3,-1.245712861E-3,2.831777334E-1,2.831887853E-1
1.396946458E0,1.005701022E-3,2.697013319E-3,2.945447564E-1,2.945588207E-1
1.406902458E0,4.541602684E-4,-3.216269426E-3,2.928182185E-1,2.928362336E-1
1.416858458E0,-2.136417665E-3,2.726058476E-3,2.927967608E-1,2.928172447E-1
1.426814458E0,-1.665038290E-3,3.255494870E-3,2.856091559E-1,2.856325621E-1
1.436770458E0,-1.654137159E-3,7.568961009E-4,2.808031142E-1,2.808090063E-1
1.446726458E0,-1.591552747E-3,1.046381891E-3,2.756166160E-1,2.756231975E-1
1.456682458E0,-4.756736569E-3,4.008782096E-3,2.725455463E-1,2.726165286E-1
1.466638458E0,-9.420244023E-4,1.543493941E-3,2.707175612E-1,2.707236003E-1
1.476594458E0,-4.982279614E-3,3.458198160E-3,2.673764825E-1,2.674452573E-1
1.486550458E0,-1.944944495E-3,3.218779806E-3,2.635321915E-1,2.635590244E-1
1.496506458E0,-3.958938178E-3,1.552198082E-3,2.590731978E-1,2.591080939E-1
1.506462458E0,2.272845013E-4,1.210151240E-4,2.582524121E-1,2.582525404E-1
1.516418458E0,-6.358181126E-4,2.899039071E-3,2.606720328E-1,2.606889284E-1
1.526374458E0,-2.174326451E-3,1.016982831E-3,2.639405131E-1,2.639514282E-1
1.536330458E0,5.883794511E-4,1.776707359E-3,2.638821602E-1,2.638887973E-1
1.546286458E0,-5.120106507E-3,3.277132753E-3,2.652648985E-1,2.653345463E-1
1.556242458E0,-3.528903704E-3,1.454851590E-3,2.689525187E-1,2.689796034E-1
1.566198458E0,4.386737710E-4,9.219534695E-4,2.696798146E-1,2.696817473E-1
1.576154458E0,-4.780131392E-3,1.031961292E-4,2.718944848E-1,2.719365204E-1
1.586110458E0,-1.988339704E-3,2.364486456E-3,2.720324397E-1,2.720499817E-1
1.596066458E0,-3.462117398E-3,4.536518827E-4,2.713529766E-1,2.713754409E-1
1.606022458E0,9.214455495E-4,1.793755218E-3,2.696914375E-1,2.696989768E-1
1.615978458E0,-4.554272629E-3,4.147633445E-3,2.708935440E-1,2.709635703E-1
1.625934458E0,-3.415504936E-3,4.013646394E-4,2.691563666E-1,2.691783358E-1
1.635890458E0,-2.705734689E-3,2.992322203E-3,2.676247060E-1,2.676551107E-1
1.645846458E0,-9.046386695E-4,3.729751334E-3,2.672766447E-1,2.673041979E-1
1.655802458E0,-2.520596609E-3,1.330623403E-3,2.685112655E-1,2.685263929E-1
1.665758458E0,-4.642869812E-3,1.713053323E-3,2.666063309E-1,2.666522575E-1
1.675714458E0,-1.185649307E-3,2.626982518E-3,2.656798363E-1,2.656954689E-1
1.685670458E0,-4.611539654E-3,3.983064089E-3,2.683131695E-1,2.683823541E-1
1.695626458E0,-3.910688218E-3,6.044141483E-3,2.689778507E-1,2.690741706E-1
1.705582458E0,-1.224890002E-3,-1.037736423E-3,2.735901773E-1,2.735948873E-1
1.715538458E0,-5.795110483E-4,1.914807595E-3,2.696262598E-1,2.696336817E-1
1.725494458E0,3.675089683E-4,1.894567162E-3,2.688017488E-1,2.688086765E-1
1.735451000E0,-1.594801433E-3,2.740565687E-4,2.713596523E-1,2.713644770E-1
1.745407000E0,-3.366335994E-3,1.034122892E-3,2.768428326E-1,2.768652300E-1
1.755363000E0,-3.485786729E-4,1.948527060E-3,2.724462450E-1,2.724534358E-1
1.765319000E0,-2.329171402E-3,1.748257317E-3,2.736952603E-1,2.737107542E-1
1.775275000E0,-9.122807533E-4,-5.586277694E-4,2.708202600E-1,2.708223727E-1
1.785231000E0,-9.098837618E-4,1.447265036E-3,2.719774246E-1,2.719827972E-1
1.795187000E0,-1.141431741E-3,6.768405437E-4,2.702772319E-1,2.702804896E-1
1.805143000E0,-3.679424291E-3,2.657433040E-3,2.728114724E-1,2.728492250E-1
1.815100000E0,-5.927747581E-3,2.131665125E-3,2.722490132E-1,2.723218819E-1
1.825056000E0,-5.040382501E-3,1.308215782E-3,2.728485167E-1,2.728982044E-1
1.835011000E0,-2.431234811E-3,7.002260536E-4,2.707215846E-1,2.707334068E-1
1.844968000E0,-2.781706862E-3,5.103424191E-4,2.723623514E-1,2.723770343E-1
1.854924000E0,-3.774085781E-4,1.467525959E-3,2.701934278E-1,2.701976767E-1
1.864880000E0,-3.414743580E-3,4.330423661E-3,2.753218710E-1,2.753770973E-1
1.874836000E0,-2.202523872E-3,2.477768809E-3,2.731150389E-1,2.731351587E-1
1.884792000E0,-4.426263273E-3,1.751524396E-3,2.753326297E-1,2.753737762E-1
1.894748000E0,9.060660377E-4,3.925373778E-3,2.742222548E-1,2.742518451E-1
1.904704000E0,-4.589366727E-3,1.979668625E-3,2.750954926E-1,2.751408938E-1
1.914660000E0,-2.493686043E-3,3.126682714E-4,2.800450027E-1,2.800562796E-1
1.924616000E0,-3.129382618E-3,-1.200007275E-3,2.783706784E-1,2.783908541E-1
1.934572000E0,-3.249784932E-3,1.091578975E-3,2.796835899E-1,2.797045998E-1
1.944528000E0,-1.670263824E-3,8.052885532E-4,2.824785709E-1,2.824846568E-1
1.954484000E0,-7.126941346E-4,3.307091072E-3,2.836949527E-1,2.837151229E-1
1.964440000E0,-2.196607646E-3,1.736625098E-3,2.852737010E-1,2.852874435E-1
1.974396000E0,-3.109277925E-3,4.995672032E-3,2.870841026E-1,2.871443998E-1
1.984352000E0,-3.639247036E-3,1.615321264E-3,2.901438177E-1,2.901711362E-1
1.994308000E0,-4.492674023E-3,1.955104060E-3,2.899549901E-1,2.899963842E-1
2.004264000E0,6.602765061E-4,3.621976823E-3,2.899968028E-1,2.900201723E-1
2.014220000E0,-5.010004621E-3,-1.295963302E-4,2.883300781E-1,2.883736307E-1
2.024176000E0,5.011409521E-4,4.726145416E-3,2.896361053E-1,2.896750957E-1
2.034132000E0,-3.061084542E-3,9.727468714E-4,2.909023762E-1,2.909201075E-1
2.044088000E0,-1.678264234E-4,2.355460543E-3,2.907947600E-1,2.908043480E-1
2.054044000E0,-3.247801447E-3,2.016962506E-3,2.914298177E-1,2.914548936E-1
2.064000000E0,-3.952474333E-3,2.710449975E-3,2.916852236E-1,2.917245931E-1
2.073956000E0,-2.021861030E-3,3.073246218E-3,2.889912724E-1,2.890146853E-1
2.083912000E0,-3.294053255E-3,3.499618266E-3,2.923505902E-1,2.923900917E-1
2.093868000E0,-1.279039774E-3,2.932963427E-3,2.920717597E-1,2.920892861E-1
2.103824000E0,-1.489429502E-3,2.421902493E-3,2.938675284E-1,2.938812826E-1
2.113780000E0,2.724030055E-4,1.287618652E-4,2.863160074E-1,2.863161659E-1
2.123736000E0,-1.393404324E-3,1.689907163E-3,2.735863626E-1,2.735951300E-1
2.133692000E0,-2.888605930E-3,2.842338290E-3,2.598642409E-1,2.598958380E-1
2.143648000E0,-4.273183644E-3,9.517604485E-4,2.558196783E-1,2.558571354E-1
2.153604000E0,-2.479862887E-3,2.283695154E-3,2.576008439E-1,2.576229023E-1
2.163560000E0,-1.126178075E-3,1.809385605E-3,2.590115070E-1,2.590202751E-1
2.173516000E0,8.161317091E-4,1.981318928E-3,2.656961381E-1,2.657047789E-1
2.183472000E0,-8.312996943E-4,2.154158428E-3,2.692943513E-1,2.693042501E-1
2.193428000E0,-9.665389080E-4,1.365474425E-3,2.722643316E-1,2.722694712E-1
2.203384000E0,-1.665352378E-3,1.631524414E-3,2.745764852E-1,2.745863825E-1
2.213340000E0,1.255422831E-5,3.571198788E-3,2.725297213E-1,2.725531188E-1
2.223296000E0,-2.223968273E-3,2.079029568E-3,2.779109180E-1,2.779275926E-1
2.233252000E0,-2.427921398E-3,8.236179128E-4,2.771759629E-1,2.771878200E-1
2.243208000E0,-3.509963630E-3,7.788771763E-4,2.749445438E-1,2.749680503E-1
2.253164000E0,-3.698538989E-3,1.007757150E-3,2.668629289E-1,2.668904599E-1
2.263120000E0,-3.438614774E-3,2.079147380E-3,2.670834363E-1,2.671136628E-1
2.273076000E0,-9.382371791E-4,2.536131069E-3,2.655522823E-1,2.655660500E-1
2.283032000E0,-4.144416656E-3,2.236791886E-3,2.696431279E-1,2.696842522E-1
2.292988000E0,-3.747025039E-3,2.362262458E-4,2.696064711E-1,2.696326116E-1
2.302944000E0,-2.082815859E-3,1.423995942E-3,2.683973908E-1,2.684092496E-1
2.312900000E0,5.767913535E-5,2.752518747E-3,2.715216875E-1,2.715356449E-1
2.322856000E0,-7.753574755E-4,2.010295633E-3,2.740314603E-1,2.740399308E-1
2.332812000E0,-4.866088275E-4,3.647571430E-4,2.728071809E-1,2.728078587E-1
2.342768000E0,-9.904790204E-4,-9.010434151E-4,2.682803273E-1,2.682836688E-1
2.352724000E0,-8.396375924E-4,2.283439040E-3,2.636376619E-1,2.636488875E-1
2.362680000E0,-7.376386784E-4,-2.705324441E-4,2.627814710E-1,2.627826456E-1
2.372636000E0,-2.205515746E-3,1.762126572E-3,2.639254332E-1,2.639405305E-1
2.382592000E0,-1.459564315E-3,-3.803865984E-4,2.636995912E-1,2.637039048E-1
2.392548000E0,-2.956004115E-3,3.888211679E-3,2.684333622E-1,2.684777945E-1
2.402504000E0,-2.054914366E-4,3.533978015E-4,2.660847306E-1,2.660850447E-1
2.412460000E0,-3.475502133E-3,2.709391527E-3,2.679886520E-1,2.680248823E-1
2.422416000E0,1.499282662E-3,1.302976161E-3,2.656703591E-1,2.656777848E-1
2.432372000E0,-4.884730093E-3,2.107983921E-3,2.614173591E-1,2.614714895E-1
2.442328000E0,-3.726521507E-3,2.379359677E-3,2.620951235E-1,2.621324133E-1
2.452284000E0,-3.715092316E-3,-8.993688971E-5,2.629114091E-1,2.629376714E-1
2.462240000E0,-1.530235168E-3,2.532743849E-3,2.642405927E-1,2.642571612E-1
2.472196000E0,-1.958668232E-3,3.416798078E-3,2.693921328E-1,2.694209199E-1
2.482152000E0,-4.294526763E-3,1.170688309E-3,2.714574039E-1,2.714938961E-1
2.492108000E0,-3.301040037E-3,2.181355841E-3,2.743572891E-1,2.743858182E-1
2.502064000E0,-1.491955016E-3,1.240993850E-3,2.742276192E-1,2.742344856E-1
2.512020000E0,1.471802592E-3,1.721589826E-3,2.730636597E-1,2.730730531E-1
2.521976000E0,-2.363149542E-3,2.315741032E-3,2.725992203E-1,2.726192987E-1
2.531932000E0,-3.589462955E-3,3.457394429E-3,2.679695785E-1,2.680159190E-1
2.541888000E0,-7.073897868E-4,-3.383494914E-6,2.679860890E-1,2.679870226E-1
2.551844000E0,-7.132301107E-4,1.192352735E-3,2.628344297E-1,2.628381020E-1
2.561800000E0,1.065495191E-3,2.565478906E-3,2.626434863E-1,2.626581768E-1
2.571756000E0,-1.575657399E-3,-3.310628235E-4,2.659392953E-1,2.659441691E-1
2.581712000E0,-2.537324792E-3,-1.441068016E-3,2.688549161E-1,2.688707507E-1
2.591668000E0,-4.850905854E-3,1.742249355E-3,2.733170986E-1,2.733656948E-1
2.601624000E0,-2.388280816E-3,2.824291121E-3,2.781195939E-1,2.781441874E-1
2.611580000E0,-1.579192467E-4,6.939740852E-4,2.716719508E-1,2.716728831E-1
2.621536000E0,-1.416262938E-3,1.535799354E-3,2.677704096E-1,2.677785591E-1
2.631492000E0,-2.480310854E-3,9.613623843E-4,2.662392855E-1,2.662525742E-1
2.641448000E0,-3.649704624E-3,-3.625825047E-5,2.661449909E-1,2.661700168E-1
2.651404000E0,-1.037426759E-3,3.935862333E-4,2.661263943E-1,2.661287074E-1
2.661360000E0,-6.494042464E-4,-2.900473773E-4,2.668222785E-1,2.668232264E-1
2.671316000E0,-3.413102590E-3,9.936857969E-4,2.661516666E-1,2.661754052E-1
2.681272000E0,-1.646095188E-3,2.613686956E-3,2.650911808E-1,2.651091759E-1
2.691228000E0,-2.096627140E-3,2.700384241E-3,2.679411471E-1,2.679629568E-1
2.701184000E0,-4.217036068E-3,2.092651092E-3,2.687726021E-1,2.688138282E-1
2.711140000E0,-3.671562532E-3,2.935325261E-3,2.683157027E-1,2.683568758E-1
2.721096000E0,-2.338384045E-3,3.338794224E-3,2.696496844E-1,2.696804922E-1
2.731052000E0,-1.551602269E-3,1.851792447E-3,2.652009428E-1,2.652119466E-1
2.741007250E0,-1.340946415E-3,3.422524314E-3,2.649641931E-1,2.649896893E-1
2.750963250E0,-4.626119509E-3,3.173645120E-3,2.659387887E-1,2.659979555E-1
2.760919250E0,-7.972926833E-4,2.226891462E-3,2.700517774E-1,2.700621358E-1
2.770875250E0,-4.687776789E-3,-4.750518128E-4,2.726902962E-1,2.727310004E-1
2.780831250E0,-2.159371972E-3,8.067283779E-4,2.667748630E-1,2.667848220E-1
2.790787250E0,-2.524944954E-3,3.834162839E-3,2.696866095E-1,2.697256819E-1
2.800743250E0,-1.843708567E-3,2.608576324E-3,2.695683837E-1,2.695873095E-1
2.810699250E0,-1.627249876E-3,2.531677950E-3,2.662203908E-1,2.662374012E-1
2.820655250E0,-1.531908754E-3,2.059499733E-3,2.637705505E-1,2.637830389E-1
2.830611250E0,-3.910263535E-3,9.785434231E-4,2.637259066E-1,2.637567090E-1
2.840567250E0,-2.726516686E-4,1.493331976E-3,2.641999424E-1,2.642043034E-1
2.850523250E0,-1.007682411E-3,3.299177159E-3,2.665818930E-1,2.666042116E-1
2.860479250E0,-1.954436302E-3,1.547615975E-3,2.679699361E-1,2.679815322E-1
2.870435250E0,-1.008727355E-3,7.953848690E-4,2.676392496E-1,2.676423324E-1
2.880391250E0,-2.078519203E-3,6.925873458E-4,2.701167762E-1,2.701256610E-1
2.890347250E0,-4.334439989E-3,3.529152833E-3,2.733053267E-1,2.733624771E-1
2.900303250E0,-4.781318363E-3,2.510493621E-3,2.726863921E-1,2.727398614E-1
2.910259250E0,-2.145438455E-3,1.946790610E-3,2.705562413E-1,2.705717513E-1
2.920215250E0,-7.142554969E-4,2.700465266E-3,2.727605402E-1,2.727748430E-1
2.930171250E0,1.931106672E-4,9.332522750E-4,2.689672709E-1,2.689689593E-1
2.940127250E0,-2.985904459E-3,2.347923815E-3,2.691600919E-1,2.691868931E-1
2.950083250E0,-1.603197074E-3,1.062163152E-3,2.661165893E-1,2.661235381E-1
2.960039250E0,-3.397634951E-3,6.347252056E-4,2.614632547E-1,2.614860997E-1
2.969995250E0,-9.551199619E-4,-5.648666993E-4,2.632739544E-1,2.632762929E-1
2.979951250E0,-3.108552191E-3,1.842098311E-3,2.673214376E-1,2.673458573E-1
2.989907250E0,-1.909647370E-3,2.358322032E-3,2.663557827E-1,2.663730682E-1
2.999863250E0,-2.341612009E-3,7.867906243E-4,2.702690363E-1,2.702803252E-1
3.009819250E0,-1.867456362E-3,4.416930024E-3,2.709579766E-1,2.710004091E-1
3.019775250E0,-2.628055401E-3,2.841936424E-3,2.713100612E-1,2.713376726E-1
3.029731250E0,-1.604473451E-3,4.254247528E-3,2.705887854E-1,2.706269827E-1
3.039687250E0,-1.404470066E-3,-1.017213799E-3,2.690491974E-1,2.690547861E-1
3.049643250E0,-1.000546617E-3,9.875316173E-4,2.673971951E-1,2.674008905E-1
3.059599250E0,-5.336944014E-4,2.393148374E-3,2.691548765E-1,2.691660445E-1
3.069555250E0,-1.924529206E-4,1.098400913E-3,2.653574646E-1,2.653598077E-1
3.079511250E0,-5.248154048E-4,1.939693000E-3,2.638831139E-1,2.638907646E-1
3.089467250E0,-6.976095028E-4,3.374421969E-3,2.656090856E-1,2.656314359E-1
3.099423250E0,-3.712307662E-3,-5.817040801E-4,2.643275857E-1,2.643542929E-1
3.109379250E0,-1.794659533E-3,-4.765102640E-4,2.678180039E-1,2.678244408E-1
3.119335250E0,-2.798404545E-3,-1.090369187E-3,2.711541355E-1,2.711707675E-1
3.129291250E0,5.185917253E-4,-1.420741901E-4,2.730340064E-1,2.730345358E-1
3.139247250E0,-3.320218530E-4,-1.430511475E-3,2.736550570E-1,2.736589973E-1
3.149203250E0,-4.675006960E-3,2.809553407E-3,2.689420581E-1,2.689973604E-1
3.159159250E0,-2.487486228E-3,1.956606284E-4,2.634402514E-1,2.634520676E-1
3.169115250E0,-2.519994974E-3,2.856982872E-3,2.639287710E-1,2.639562632E-1
3.179071250E0,-2.712218557E-4,3.225298133E-3,2.636297047E-1,2.636495730E-1
3.189027250E0,-1.179898391E-3,1.110100187E-3,2.651992142E-1,2.652041623E-1
3.198983250E0,3.628707491E-4,7.439684123E-5,2.682267129E-1,2.682269687E-1
3.208939250E0,-1.002398320E-3,1.679718960E-3,2.690677047E-1,2.690748148E-1
3.218895250E0,-1.015714137E-3,2.220873255E-3,2.730858922E-1,2.730968115E-1
3.228851250E0,2.003549598E-4,2.150153276E-3,2.731557190E-1,2.731642549E-1
3.238807250E0,-1.765590860E-3,-3.308476880E-4,2.734744847E-1,2.734803842E-1
3.248763250E0,4.455700982E-4,1.046814956E-3,2.738207877E-1,2.738231512E-1
3.258719250E0,-2.636297140E-4,1.840436831E-3,2.765811682E-1,2.765874171E-1
3.268675250E0,-2.509250073E-3,1.017633826E-3,2.731081545E-1,2.731215773E-1
3.278631250E0,-1.979547320E-3,1.667178236E-3,2.704306245E-1,2.704430083E-1
3.288587250E0,-1.194398385E-3,9.478116408E-4,2.637397349E-1,2.637441425E-1
3.298543250E0,-2.274310449E-3,1.360335387E-3,2.651940882E-1,2.652073291E-1
3.308499250E0,-1.579277217E-3,1.689369790E-3,2.644867301E-1,2.644968402E-1
3.318455250E0,-1.399247674E-3,-1.205131412E-6,2.676228881E-1,2.676265460E-1
3.328411250E0,6.204039091E-4,4.932507873E-4,2.706865072E-1,2.706876676E-1
3.338367250E0,-4.853457212E-3,-6.548380479E-4,2.733595371E-1,2.734034041E-1
3.348323250E0,-3.118770896E-3,1.388294622E-4,2.720526755E-1,2.720705869E-1
3.358279250E0,-3.437569831E-4,2.163897734E-3,2.707850039E-1,2.707938680E-1
3.368235250E0,8.643302135E-5,2.825946081E-3,2.733521760E-1,2.733667967E-1
3.378191250E0,-5.451078061E-3,1.636578701E-3,2.753210366E-1,2.753798573E-1
3.388147250E0,-2.713935683E-3,-6.522657350E-4,2.737930417E-1,2.738072690E-1
3.398103250E0,-4.481179640E-4,1.718214247E-3,2.746676207E-1,2.746733604E-1
3.408059250E0,-3.015513066E-3,2.256105188E-3,2.713942528E-1,2.714203820E-1
3.418015250E0,-2.111103386E-3,2.785008866E-3,2.695116401E-1,2.695342968E-1
3.427971250E0,-1.339495415E-3,2.635377925E-3,2.665283680E-1,2.665447625E-1
3.437927250E0,-1.946962439E-3,2.013263293E-3,2.670053542E-1,2.670200424E-1
3.447883250E0,-1.787019661E-3,1.667924225E-3,2.666312754E-1,2.666424806E-1
3.457839250E0,-9.976585861E-4,-1.330528408E-3,2.691144049E-1,2.691195433E-1
3.467795250E0,-2.702320227E-3,1.881918870E-3,2.694681287E-1,2.694882493E-1
3.477751250E0,-2.012827666E-3,-1.972112805E-4,2.700724006E-1,2.700799732E-1
3.487707250E0,-1.860165503E-4,-3.086002544E-4,2.680117190E-1,2.680119612E-1
3.497663250E0,-1.478448743E-3,-4.787761718E-4,2.675040960E-1,2.675086100E-1
3.507619250E0,-1.584109385E-3,8.282279596E-4,2.699660361E-1,2.699719541E-1
3.517575250E0,-7.303000893E-4,7.454035804E-4,2.703364789E-1,2.703384930E-1
3.527531250E0,-1.133675687E-3,1.237118151E-3,2.668549418E-1,2.668602175E-1
3.537487250E0,-3.596833441E-3,1.841921825E-3,2.616487145E-1,2.616799184E-1
3.547443250E0,-2.077415586E-3,2.770179417E-3,2.604999244E-1,2.605229360E-1
3.557399250E0,-2.880624961E-3,-2.631610259E-4,2.651886940E-1,2.652044696E-1
3.567355250E0,-1.776355784E-4,2.231804188E-3,2.670338750E-1,2.670432603E-1
3.577311250E0,6.681843661E-4,8.682655171E-4,2.696855962E-1,2.696878217E-1
3.587267250E0,-9.072597604E-4,2.498949412E-3,2.714212835E-1,2.714343033E-1
3.597223250E0,-3.095313208E-3,2.008661162E-3,2.733494043E-1,2.733743085E-1
3.607179250E0,-3.345700679E-3,2.958318219E-4,2.694855630E-1,2.695064933E-1
3.617135250E0,-4.366223700E-3,2.546202857E-3,2.724501789E-1,2.724970587E-1
3.627091250E0,-1.082256204E-3,-2.224184573E-5,2.705617547E-1,2.705639201E-1
3.637047250E0,-9.035579860E-4,1.260602847E-3,2.689183056E-1,2.689227782E-1
3.647003250E0,-1.024225261E-3,2.206012607E-3,2.671009302E-1,2.671120036E-1
3.656959250E0,-2.199478447E-3,2.715741750E-3,2.701923251E-1,2.702149247E-1
3.666915250E0,-3.025961807E-3,1.504649408E-3,2.714877427E-1,2.715087749E-1
3.676871250E0,-1.215811120E-3,2.432494890E-3,2.720669806E-1,2.720805711E-1
3.686827250E0,-9.093447588E-4,-1.242086291E-3,2.701865435E-1,2.701909287E-1
3.696783250E0,-2.920031548E-3,2.592599485E-3,2.730137706E-1,2.730416948E-1
3.706739250E0,-2.721033990E-3,1.608934253E-3,2.721189857E-1,2.721373459E-1
3.716695250E0,-2.383345272E-3,-4.536835477E-4,2.680986524E-1,2.681096297E-1
3.726651250E0,-2.398865065E-3,2.358971164E-3,2.679574788E-1,2.679785994E-1
3.736607375E0,1.284750178E-4,1.187979244E-3,2.638309300E-1,2.638336359E-1
3.746563375E0,-3.335649613E-3,1.308533829E-3,2.643880546E-1,2.644123338E-1
3.756519375E0,-8.173643146E-4,1.139422879E-3,2.636343837E-1,2.636381130E-1
3.766475375E0,-4.403735045E-3,1.291676890E-3,2.675364614E-1,2.675758200E-1
3.776431375E0,6.421563448E-4,1.334554050E-3,2.690315545E-1,2.690356309E-1
3.786387375E0,-4.100694787E-3,6.863716990E-4,2.711032033E-1,2.711350838E-1
3.796343375E0,-2.582693007E-3,5.388325080E-4,2.733224332E-1,2.733351663E-1
3.806299375E0,-6.691087037E-4,-1.554734074E-3,2.731741667E-1,2.731794104E-1
3.816255375E0,-7.183770649E-4,-3.919983283E-4,2.719083726E-1,2.719096042E-1
3.826211375E0,-6.224373356E-4,3.581466153E-4,2.722554505E-1,2.722563976E-1
3.836167375E0,-5.513310898E-4,1.466916874E-4,2.688503265E-1,2.688509319E-1
3.846123375E0,-3.425441217E-3,1.012980472E-3,2.708349228E-1,2.708584781E-1
3.856079375E0,-1.979344990E-3,2.970403992E-3,2.696460783E-1,2.696697029E-1
3.866035375E0,-2.656206489E-3,1.917426474E-3,2.684065104E-1,2.684265016E-1
3.875991375E0,6.852619117E-4,2.838438377E-4,2.683090270E-1,2.683100522E-1
3.885947375E0,-2.781317336E-3,2.422817517E-3,2.676995993E-1,2.677250104E-1
3.895903375E0,-2.442030469E-3,1.329589635E-3,2.711201608E-1,2.711344186E-1
3.905859375E0,-2.273078077E-3,2.689009067E-3,2.708183825E-1,2.708412708E-1
3.915815375E0,-1.385712763E-3,-5.400739610E-4,2.704654932E-1,2.704695822E-1
3.925771375E0,-2.516713925E-3,1.632753760E-3,2.698905766E-1,2.699072490E-1
3.935727375E0,-1.078873407E-3,8.575078100E-4,2.691848278E-1,2.691883556E-1
3.945683375E0,-2.398230135E-3,3.940388560E-4,2.687900960E-1,2.688010835E-1
3.955639375E0,-1.584368292E-3,2.063041553E-3,2.695765197E-1,2.695890694E-1
3.965595375E0,6.748462329E-4,1.133655664E-3,2.681104541E-1,2.681137001E-1
3.975551375E0,1.624645665E-5,2.795802429E-4,2.648539245E-1,2.648540726E-1
3.985507375E0,-1.836912241E-3,2.280515153E-3,2.608410418E-1,2.608574785E-1
3.995463375E0,6.403599400E-4,5.244268104E-4,2.604442537E-1,2.604455689E-1
4.005419375E0,-1.942921896E-3,1.794122159E-3,2.615169883E-1,2.615303596E-1
4.015375375E0,-2.203645185E-3,2.136338502E-3,2.633487284E-1,2.633666128E-1
4.025331375E0,3.425267059E-4,-7.488066331E-4,2.677050829E-1,2.677063493E-1
4.035287375E0,-1.647919882E-3,-9.892899543E-4,2.695978284E-1,2.696046799E-1
4.045243375E0,7.611963665E-4,4.065074027E-4,2.751055062E-1,2.751068596E-1
4.055199375E0,-2.027133480E-3,2.155583352E-4,2.703432441E-1,2.703509300E-1
4.065155375E0,-3.632711479E-3,1.276778057E-4,2.708292902E-1,2.708536825E-1
4.075111375E0,-1.220686361E-3,-8.853888139E-4,2.686441839E-1,2.686484162E-1
4.085067375E0,-1.923867967E-3,-4.240982234E-4,2.673760653E-1,2.673833230E-1
4.095023375E0,-3.360643517E-3,6.867060438E-4,2.678911090E-1,2.679130676E-1
4.104979375E0,-6.165963132E-4,-1.493721269E-3,2.680533528E-1,2.680582238E-1
4.114935375E0,-3.863788676E-3,-1.254836097E-3,2.701186240E-1,2.701491708E-1
4.124891375E0,-8.126688190E-4,-1.188843511E-3,2.705745995E-1,2.705784317E-1
4.134847375E0,-3.765048925E-3,-7.227901369E-4,2.672080994E-1,2.672356009E-1
4.144803375E0,1.574726775E-5,-6.884336472E-6,2.670323849E-1,2.670323854E-1
4.154759375E0,-2.028495306E-3,2.346018795E-3,2.683335841E-1,2.683515063E-1
4.164715375E0,-5.756441969E-4,1.905849203E-3,2.665804923E-1,2.665879264E-1
4.174671375E0,-7.351676468E-4,5.681430921E-4,2.681546807E-1,2.681562904E-1
4.184627375E0,-2.047584159E-3,2.316737548E-3,2.705338001E-1,2.705514681E-1
4.194583375E0,-7.788543589E-4,-1.623993739E-4,2.715750933E-1,2.715762587E-1
4.204539375E0,6.265790435E-4,3.502881154E-4,2.728811502E-1,2.728820944E-1
4.214495375E0,-4.049931653E-3,7.359134033E-4,2.712616622E-1,2.712928914E-1
4.224451375E0,-3.069524188E-3,-5.304524675E-4,2.678499818E-1,2.678680946E-1
4.234407375E0,-1.381346490E-3,2.714255825E-4,2.644944191E-1,2.644981654E-1
4.244363375E0,-4.331738222E-3,-1.363491639E-3,2.640950680E-1,2.641341099E-1
4.254319375E0,-2.203340176E-3,-3.650719300E-4,2.658730149E-1,2.658823952E-1
4.264275375E0,-3.943710588E-3,2.343902830E-3,2.666021287E-1,2.666415980E-1
4.274231375E0,-1.930095023E-3,-1.554965042E-3,2.703494430E-1,2.703608043E-1
4.284187375E0,-1.525704982E-3,1.608107705E-3,2.709311247E-1,2.709401929E-1
4.294143375E0,-2.058869926E-3,3.758631647E-4,2.709487081E-1,2.709567911E-1
4.304099375E0,-6.543872878E-4,3.240802325E-3,2.708887458E-1,2.709089213E-1
4.314055375E0,-9.755643550E-4,2.116682008E-3,2.692522407E-1,2.692623278E-1
4.324011375E0,-1.356514869E-3,1.077879686E-3,2.673266530E-1,2.673322677E-1
4.333967375E0,7.026413223E-4,2.273638733E-3,2.680680752E-1,2.680786378E-1
4.343923375E0,2.271388657E-4,-1.740518026E-3,2.642565668E-1,2.642623963E-1
4.353879375E0,-7.640896365E-4,-1.739719883E-3,2.639454901E-1,2.639523294E-1
4.363835375E0,-3.099257592E-4,-1.469712704E-3,2.657047510E-1,2.657089965E-1
4.373791375E0,-1.881456934E-3,3.076810390E-4,2.676419318E-1,2.676487216E-1
4.383747375E0,1.727292896E-3,-1.259091310E-3,2.667183876E-1,2.667269524E-1
4.393703375E0,-3.216066631E-3,1.135012135E-4,2.695211172E-1,2.695403283E-1
4.403659375E0,-1.908008009E-3,-5.848892033E-4,2.699581385E-1,2.699655147E-1
4.413615375E0,-2.360213082E-3,-9.052678943E-4,2.701200843E-1,2.701319123E-1
4.423571375E0,-7.750156801E-4,-1.147482544E-5,2.661954165E-1,2.661965449E-1
4.433527375E0,-1.264504623E-3,-6.876513362E-4,2.665589452E-1,2.665628314E-1
4.443483375E0,-1.154947327E-3,-4.066713154E-5,2.650141120E-1,2.650166318E-1
4.453439375E0,-1.247092616E-3,2.133271657E-3,2.686165571E-1,2.686279227E-1
4.463395375E0,-1.784163527E-3,-5.599232391E-4,2.640079856E-1,2.640146079E-1
4.473351375E0,-1.683229581E-3,8.321106434E-4,2.647075653E-1,2.647142248E-1
4.483307375E0,-1.004155260E-3,2.387336921E-3,2.717442214E-1,2.717565631E-1
4.493263375E0,-6.036160048E-4,5.018189549E-4,2.721665800E-1,2.721677119E-1
4.503219375E0,-7.039690390E-4,5.180668086E-4,2.733325064E-1,2.733339039E-1
4.513175375E0,-7.162196562E-4,9.487001225E-4,2.741751373E-1,2.741777141E-1
4.523131375E0,-1.705234870E-3,-1.804854721E-3,2.736521959E-1,2.736634606E-1
4.533087375E0,-4.359723534E-4,8.905301802E-4,2.688347995E-1,2.688366280E-1
4.543043375E0,-1.173630822E-3,1.068645157E-3,2.629108429E-1,2.629156342E-1
4.552999375E0,-1.777103404E-3,2.279052045E-3,2.641750276E-1,2.641908352E-1
4.562955375E0,3.051673993E-4,1.107457094E-3,2.644833028E-1,2.644857975E-1
4.572911375E0,-2.327101072E-3,1.149534713E-3,2.681749761E-1,2.681875363E-1
4.582867375E0,-3.044064157E-3,-3.189407289E-5,2.730230987E-1,2.730400699E-1
4.592823375E0,-3.319007810E-4,4.325062037E-6,2.717415690E-1,2.717417718E-1
4.602779375E0,-2.489972394E-3,-1.789206639E-3,2.746821642E-1,2.746992766E-1
4.612735375E0,-2.084106673E-3,-6.294529885E-5,2.755985558E-1,2.756064430E-1
4.622691375E0,-1.835478935E-3,1.770446077E-3,2.726352215E-1,2.726471483E-1
4.632647375E0,-7.592863403E-5,2.977177501E-4,2.685328722E-1,2.685330480E-1
4.642603375E0,-1.873621717E-3,5.885758437E-4,2.630191445E-1,2.630264764E-1
4.652559375E0,-1.385197975E-3,2.188869286E-3,2.627608180E-1,2.627735858E-1
4.662515375E0,-1.882980345E-3,5.275765434E-4,2.671340704E-1,2.671412277E-1
4.672471375E0,-2.683260245E-3,1.772603951E-3,2.705205381E-1,2.705396524E-1
4.682427375E0,-1.656613778E-3,-4.882095382E-4,2.737958431E-1,2.738012900E-1
4.692383375E0,-2.333323006E-3,2.982215956E-4,2.765106857E-1,2.765206911E-1
4.702339375E0,-2.156766597E-3,-8.998904377E-5,2.713762522E-1,2.713848374E-1
4.712295375E0,-4.259065725E-3,1.331073232E-3,2.697192430E-1,2.697561519E-1
4.722251375E0,-4.252832849E-3,1.042196061E-3,2.664494812E-1,2.664854570E-1
4.732207375E0,-1.764374785E-3,-6.848638877E-4,2.654998004E-1,2.655065462E-1
4.742163875E0,-3.734186757E-4,1.136585604E-3,2.696961462E-1,2.696987997E-1
4.752119875E0,-4.322886467E-3,1.717228442E-4,2.716847360E-1,2.717191797E-1
4.762075875E0,-1.301971031E-3,-1.226538792E-3,2.727736533E-1,2.727795180E-1
4.772031875E0,-1.316352049E-3,-1.169014722E-3,2.721350193E-1,2.721407138E-1
4.781987875E0,-1.058905618E-3,-1.514713280E-3,2.717127800E-1,2.717190653E-1
4.791943875E0,-2.303961664E-4,1.348489895E-4,2.684618533E-1,2.684619860E-1
4.801899875E0,-7.901897188E-4,1.023818273E-3,2.646464407E-1,2.646496008E-1
4.811855875E0,-7.542371750E-4,3.266732674E-3,2.650379241E-1,2.650591285E-1
4.821811875E0,5.321134813E-5,2.833989915E-3,2.666781843E-1,2.666932476E-1
4.831767875E0,-1.639760332E-3,-7.471628487E-4,2.690862417E-1,2.690922752E-1
4.841723875E0,-1.681460533E-3,-1.162156463E-3,2.722454369E-1,2.722531099E-1
4.851679875E0,-5.794442259E-4,-4.992950708E-4,2.723011076E-1,2.723021819E-1
4.861635875E0,-1.433467958E-3,-9.386697784E-4,2.678330839E-1,2.678385647E-1
4.871591875E0,-2.461181488E-3,9.604301304E-4,2.648900449E-1,2.649032196E-1
4.881547875E0,-4.252540879E-3,1.864612568E-3,2.650099099E-1,2.650505861E-1
4.891503875E0,-6.764940917E-5,2.328002360E-3,2.678536177E-1,2.678637427E-1
4.901459875E0,-1.855725888E-3,-2.894718200E-4,2.672817707E-1,2.672883695E-1
4.911415875E0,-1.915380824E-3,1.104427036E-3,2.687182724E-1,2.687273681E-1
4.921371875E0,1.250981470E-3,2.294105943E-3,2.698283792E-1,2.698410311E-1
4.931327875E0,-3.157881554E-3,3.286935389E-4,2.722729146E-1,2.722914253E-1
4.941283875E0,-3.527206602E-3,4.776958376E-4,2.718932629E-1,2.719165603E-1
4.951239875E0,-2.138634445E-3,-1.505826600E-3,2.685355544E-1,2.685482922E-1
4.961195875E0,-5.046953447E-4,-2.007668838E-3,2.635381818E-1,2.635463123E-1
4.971151875E0,-1.739869360E-3,-3.511821851E-4,2.655376792E-1,2.655436114E-1
4.981107875E0,-1.630971674E-3,1.637653913E-3,2.657435536E-1,2.657536045E-1
4.991063875E0,-2.192099579E-3,-1.200743020E-3,2.725042701E-1,2.725157322E-1
5.001019875E0,-2.915720223E-3,7.602418773E-4,2.738149762E-1,2.738315551E-1
5.010975875E0,-1.821959624E-3,-2.762055025E-3,2.747127116E-1,2.747326380E-1
5.020931875E0,-6.565391086E-4,4.905061796E-4,2.726348639E-1,2.726360956E-1
5.030887875E0,6.907540374E-4,8.463049307E-4,2.686638236E-1,2.686660445E-1
5.040843875E0,-1.923896372E-3,7.483828813E-5,2.661808431E-1,2.661878063E-1
5.050799875E0,-1.434140839E-3,-2.237018198E-4,2.662990987E-1,2.663030544E-1
5.060755875E0,-3.044249257E-3,-3.453735262E-4,2.656288743E-1,2.656465426E-1
5.070711875E0,-2.124393592E-3,-6.327284500E-4,2.679996192E-1,2.680087859E-1
5.080667875E0,1.571486238E-3,-5.184216425E-4,2.722343206E-1,2.722393500E-1
5.090623875E0,-2.216860186E-3,1.178067178E-4,2.716713250E-1,2.716803952E-1
5.100579875E0,1.927495468E-4,6.434973329E-5,2.711710632E-1,2.711711393E-1
5.110535875E0,-3.518667072E-4,1.026997343E-4,2.659201324E-1,2.659203850E-1
5.120491875E0,-1.810408430E-3,-2.887146547E-4,2.623623312E-1,2.623687362E-1
5.130447875E0,1.936925342E-3,-5.710097030E-4,2.633335888E-1,2.633413312E-1
5.140403875E0,2.190130763E-4,-7.457556203E-4,2.668270469E-1,2.668281789E-1
5.150359875E0,-9.602345526E-4,-1.260278746E-3,2.718758583E-1,2.718804750E-1
5.160315875E0,-2.610962838E-3,-1.283604652E-3,2.739397287E-1,2.739551784E-1
5.170271875E0,-1.524126623E-3,5.752816796E-4,2.749911249E-1,2.749959503E-1
5.180227875E0,-3.626495600E-4,-6.753318012E-4,2.756425738E-1,2.756436397E-1
5.190183875E0,-1.354676904E-3,-4.103472456E-4,2.691050470E-1,2.691087695E-1
5.200139875E0,-2.102048602E-3,2.339608967E-3,2.621099353E-1,2.621288053E-1
5.210095875E0,-2.500864211E-4,3.250676207E-3,2.592158616E-1,2.592363638E-1
5.220051875E0,1.174034202E-3,-3.633229062E-4,2.633621693E-1,2.633650367E-1
5.230007875E0,8.872117614E-4,5.618594587E-4,2.711801529E-1,2.711821863E-1
5.239963875E0,-6.246918347E-4,-1.693993807E-3,2.730913758E-1,2.730973442E-1
5.249919875E0,6.293905899E-4,-2.662735060E-4,2.745294869E-1,2.745303375E-1
5.259875875E0,-1.772483811E-3,-1.329027116E-3,2.739022374E-1,2.739111967E-1
5.269831875E0,-2.814312465E-3,1.203106251E-3,2.682816386E-1,2.682990970E-1
5.279787875E0,7.666038582E-4,-1.781263389E-3,2.629170120E-1,2.629241635E-1
5.289743875E0,-1.278969925E-3,-1.812363043E-4,2.626610696E-1,2.626642460E-1
5.299699875E0,-2.167445607E-3,-1.012135297E-3,2.653503120E-1,2.653610942E-1
5.309655875E0,-1.117361477E-3,-2.344921231E-4,2.733381987E-1,2.733405830E-1
5.319611875E0,6.378239486E-4,7.746084593E-4,2.754783332E-1,2.754801607E-1
5.329567875E0,-1.241302351E-3,2.300600056E-3,2.779297829E-1,2.779420763E-1
5.339522875E0,3.922306933E-4,-3.805216402E-3,2.718173563E-1,2.718442729E-1
5.349479875E0,-1.958807930E-3,-7.167477161E-4,2.629615664E-1,2.629698387E-1
5.359435875E0,-1.297410578E-3,2.033568919E-3,2.556598186E-1,2.556711981E-1
5.369391875E0,-3.071075771E-3,-1.452509314E-3,2.586460114E-1,2.586683214E-1
5.379347875E0,-2.459061798E-3,-2.514432184E-3,2.649814785E-1,2.650048175E-1
5.389303875E0,-2.504601609E-3,1.352477353E-3,2.716569602E-1,2.716718724E-1
5.399259875E0,-1.928480342E-3,-8.116289973E-4,2.712846696E-1,2.712927381E-1
5.409215875E0,-3.481605090E-4,2.238489687E-3,2.755678296E-1,2.755771412E-1
5.419171875E0,-2.805490512E-3,-2.193432301E-4,2.770669162E-1,2.770812064E-1
5.429126875E0,-1.417184714E-3,1.617548987E-4,2.697898448E-1,2.697936154E-1
5.439083875E0,-1.546010841E-3,1.934133936E-3,2.599878907E-1,2.599996814E-1
5.449039875E0,-3.310355358E-3,6.946986541E-4,2.586427331E-1,2.586648496E-1
5.458994875E0,-1.107842196E-3,2.963101491E-3,2.623135448E-1,2.623326191E-1
5.468951875E0,-3.164867871E-3,7.623527199E-5,2.673178911E-1,2.673366363E-1
5.478906875E0,1.084723510E-3,1.590704545E-3,2.678659260E-1,2.678728454E-1
5.488863875E0,-2.501489362E-3,9.310394526E-4,2.726833224E-1,2.726963854E-1
5.498819875E0,-3.055212786E-3,9.597330354E-4,2.713523209E-1,2.713712171E-1
5.508774875E0,-4.551687744E-4,-1.113271341E-3,2.714607120E-1,2.714633763E-1
5.518730875E0,-4.177909344E-3,-4.302076995E-4,2.691153586E-1,2.691481307E-1
5.528687875E0,-1.432989491E-3,7.525016554E-4,2.666252851E-1,2.666301978E-1
5.538642875E0,1.531894202E-3,-4.144916311E-4,2.665849924E-1,2.665897160E-1
5.548599875E0,4.826087970E-4,-2.446483821E-3,2.653617859E-1,2.653735021E-1
5.558554875E0,-9.853539523E-4,1.314236317E-3,2.676482797E-1,2.676533201E-1
5.568510875E0,-2.695103176E-3,1.861210912E-4,2.677582502E-1,2.677718783E-1
5.578466875E0,-1.970025478E-3,-1.349361613E-3,2.710882127E-1,2.710987290E-1
5.588422875E0,-1.050140709E-4,2.189180348E-3,2.735492289E-1,2.735580088E-1
5.598378875E0,-1.767356414E-3,1.296401490E-3,2.688661814E-1,2.688751154E-1
5.608334875E0,-1.550308429E-3,7.608397864E-4,2.660237849E-1,2.660293902E-1
5.618290875E0,-3.939498216E-3,2.374409698E-3,2.684913874E-1,2.685307851E-1
5.628246875E0,1.063516364E-3,-1.465336420E-3,2.687747478E-1,2.687808463E-1
5.638202875E0,-1.615842571E-3,4.106219858E-4,2.705318034E-1,2.705369405E-1
5.648158875E0,-8.432595059E-4,-1.926833764E-3,2.727448642E-1,2.727529738E-1
5.658114875E0,-2.654519165E-3,1.432292163E-3,2.731988728E-1,2.732155230E-1
5.668070875E0,-5.761883222E-4,1.146801282E-3,2.728627622E-1,2.728657805E-1
5.678026875E0,-3.662118223E-3,-6.653899327E-4,2.693357170E-1,2.693614343E-1
5.687982875E0,-7.776482962E-4,2.716824412E-3,2.676336765E-1,2.676485955E-1
5.697938875E0,-1.923425822E-3,3.586011007E-4,2.669956386E-1,2.670028075E-1
5.707894875E0,-8.126215544E-4,-1.664868556E-3,2.703267336E-1,2.703330816E-1
5.717850875E0,-1.040091040E-3,5.358522758E-4,2.727701664E-1,2.727726757E-1
5.727806875E0,-4.070235416E-3,3.339843825E-4,2.711997032E-1,2.712304507E-1
5.737762833E0,-3.859598655E-3,-1.882826909E-4,2.708894610E-1,2.709170206E-1
5.747718833E0,-1.437719911E-3,1.920142211E-3,2.698747814E-1,2.698854416E-1
5.757674833E0,1.181747299E-3,1.744026784E-3,2.656849325E-1,2.656932846E-1
5.767630833E0,-2.222305164E-3,4.691714421E-4,2.670476735E-1,2.670573322E-1
5.777586833E0,-2.925178502E-3,-8.517615497E-4,2.686525285E-1,2.686698034E-1
5.787542833E0,-2.120105084E-3,-9.010303766E-4,2.701904774E-1,2.702002975E-1
5.797498833E0,-1.725238282E-3,-6.543016061E-4,2.702011168E-1,2.702074168E-1
5.807454833E0,-2.371587325E-3,-4.862565547E-4,2.722581327E-1,2.722688959E-1
5.817410833E0,-8.499864489E-4,1.050525811E-3,2.744875252E-1,2.744908516E-1
5.827366833E0,-1.080083661E-3,3.423914313E-4,2.704808116E-1,2.704831848E-1
5.837322833E0,2.794198226E-4,-9.176880121E-4,2.687479258E-1,2.687496378E-1
5.847278833E0,-7.568160072E-4,8.925329894E-5,2.658882141E-1,2.658893062E-1
5.857234833E0,-8.364750538E-4,2.335797995E-3,2.637750506E-1,2.637867187E-1
5.867190833E0,-2.228775527E-3,2.851635218E-4,2.669098675E-1,2.669193252E-1
5.877146833E0,-2.365573309E-4,5.747736432E-4,2.706172764E-1,2.706179902E-1
5.887102833E0,-2.599931322E-4,5.934159271E-4,2.716628313E-1,2.716636038E-1
5.897058833E0,-2.016579267E-3,1.224778127E-3,2.729605436E-1,2.729707403E-1
5.907014833E0,-2.176142298E-4,3.158412874E-4,2.721951306E-1,2.721954008E-1
5.916970833E0,-1.159458887E-3,1.110361889E-3,2.690939009E-1,2.690986896E-1
5.926926833E0,-1.944825053E-3,1.037924085E-3,2.704553008E-1,2.704642848E-1
5.936882833E0,-2.240513917E-3,2.212025225E-3,2.680398524E-1,2.680583433E-1
5.946838833E0,-1.871932298E-3,4.692524672E-4,2.675152123E-1,2.675221732E-1
5.956794833E0,-3.984778654E-3,1.018987969E-4,2.692466974E-1,2.692762019E-1
5.966750833E0,-8.390529547E-4,-1.356980763E-3,2.715862989E-1,2.715909851E-1
5.976706833E0,9.479433065E-4,-2.562203445E-3,2.727502584E-1,2.727639400E-1
5.986662833E0,-2.438211814E-4,-1.825040206E-3,2.732775807E-1,2.732837836E-1
5.996618833E0,-1.771688461E-3,-1.755392179E-3,2.661696970E-1,2.661813816E-1
6.006574833E0,4.168970045E-4,-1.552193426E-3,2.574603558E-1,2.574653722E-1
6.016530833E0,-7.531354204E-4,2.693530172E-3,2.586660683E-1,2.586811884E-1
6.026486833E0,1.049025566E-3,-7.941462100E-4,2.604187131E-1,2.604220368E-1
6.036442833E0,-2.380858175E-3,8.795112371E-4,2.636482418E-1,2.636604586E-1
6.046398833E0,-1.695360057E-3,2.933489159E-4,2.667441666E-1,2.667497155E-1
6.056354833E0,8.719672915E-4,9.812340140E-4,2.684031129E-1,2.684063229E-1
6.066310833E0,-1.945390832E-3,-8.773859590E-4,2.703514993E-1,2.703599222E-1
6.076266833E0,-2.759438474E-3,-5.540279672E-4,2.709830403E-1,2.709976561E-1
6.086222833E0,-2.192984335E-3,7.320130244E-4,2.700126171E-1,2.700225147E-1
6.096178833E0,-1.494880300E-3,2.204434015E-3,2.690148056E-1,2.690279907E-1
6.106134833E0,6.478987634E-4,1.215868630E-3,2.669713497E-1,2.669749046E-1
6.116090833E0,1.159503940E-3,-1.627733000E-3,2.682583928E-1,2.682658370E-1
6.126046833E0,-1.057637855E-4,3.749644384E-4,2.689646780E-1,2.689649602E-1
6.136002833E0,-1.891941065E-3,-7.473155856E-4,2.698715031E-1,2.698791695E-1
6.145958833E0,1.202651998E-3,3.483090550E-4,2.717735171E-1,2.717764013E-1
6.155914833E0,-2.249247860E-3,-1.574043185E-3,2.715056539E-1,2.715195330E-1
6.165870833E0,-5.735869054E-4,1.165550202E-3,2.708020508E-1,2.708051666E-1
6.175826833E0,-2.724850085E-3,-1.150657423E-3,2.682243288E-1,2.682406370E-1
6.185782833E0,-8.505170699E-4,-1.055848785E-3,2.685921192E-1,2.685955411E-1
6.195738833E0,-3.447660711E-4,-2.757391892E-3,2.665025592E-1,2.665170466E-1
6.205694833E0,-3.911803942E-3,-7.973052561E-4,2.691598535E-1,2.691894586E-1
6.215650833E0,-2.306353999E-3,1.130242832E-3,2.656096816E-1,2.656220994E-1
6.225606833E0,-1.515128883E-3,7.350295782E-4,2.679101229E-1,2.679154154E-1
6.235562833E0,-3.447323106E-4,9.742374532E-4,2.678360939E-1,2.678380876E-1
6.245518833E0,-9.806950111E-4,-8.468516171E-6,2.703578174E-1,2.703595962E-1
6.255474833E0,-1.126019284E-3,8.222679608E-4,2.705397606E-1,2.705433535E-1
6.265430833E0,-1.034406712E-3,-3.963941708E-4,2.691463828E-1,2.691486625E-1
6.275386833E0,-1.489983872E-3,-1.713823527E-3,2.639970183E-1,2.640067858E-1
6.285342833E0,1.287427032E-3,5.397433415E-4,2.639722526E-1,2.639759439E-1
6.295298833E0,8.486721199E-4,2.481412608E-3,2.636114955E-1,2.636245402E-1
6.305254833E0,1.943332609E-4,5.769859999E-4,2.636432052E-1,2.636439082E-1
6.315210833E0,7.513379678E-4,-1.470619813E-3,2.659042776E-1,2.659094057E-1
6.325166833E0,1.997431042E-3,-5.166754127E-4,2.698638737E-1,2.698717603E-1
6.335122833E0,4.476238973E-5,-5.795927718E-4,2.686022222E-1,2.686028513E-1
6.345078833E0,3.863708116E-5,-1.142318361E-3,2.674176395E-1,2.674200821E-1
6.355034833E0,1.261413796E-3,3.297077492E-4,2.678077221E-1,2.678108958E-1
6.364990833E0,-1.342092641E-3,7.432969287E-4,2.723952830E-1,2.723996033E-1
6.374946833E0,-2.777250018E-3,7.911105640E-4,2.710985839E-1,2.711139635E-1
6.384902833E0,-1.645406708E-3,3.101434559E-4,2.730352283E-1,2.730403623E-1
6.394858833E0,-2.842139453E-3,-4.132436588E-4,2.726820409E-1,2.726971653E-1
6.404814833E0,2.476600930E-4,-9.131189436E-4,2.696945071E-1,2.696961666E-1
6.414770833E0,1.186938607E-3,1.152848825E-3,2.657712102E-1,2.657763610E-1
6.424726833E0,-1.430682139E-3,2.449769527E-4,2.665973306E-1,2.666012819E-1
6.434682833E0,-5.842340179E-4,-1.751209609E-3,2.705179453E-1,2.705242444E-1
6.444638833E0,-3.724100767E-3,1.641362906E-4,2.703493834E-1,2.703750820E-1
6.454594833E0,-1.641601790E-3,1.060127281E-3,2.726242840E-1,2.726312876E-1
6.464550833E0,-6.005722098E-4,-1.614751294E-3,2.718019187E-1,2.718073787E-1
6.474506833E0,-2.021252178E-3,-4.322938621E-4,2.735726833E-1,2.735804916E-1
6.484462833E0,1.233397168E-3,-1.332708634E-3,2.687979043E-1,2.688040378E-1
6.494418833E0,-2.814437961E-3,1.038444228E-3,2.707210481E-1,2.707376688E-1
6.504374833E0,1.081151422E-4,-1.303006895E-3,2.638514340E-1,2.638546735E-1
6.514330833E0,-7.383117918E-4,-7.106559351E-4,2.635525167E-1,2.635545090E-1
6.524286833E0,-2.852062462E-3,-7.681800053E-4,2.669110000E-1,2.669273427E-1
6.534242833E0,-2.937770449E-3,-1.713252626E-3,2.653681040E-1,2.653898949E-1
6.544198833E0,-9.795483202E-4,7.890537381E-4,2.679266036E-1,2.679295561E-1
6.554154833E0,1.137942541E-3,1.934593543E-3,2.696164548E-1,2.696257968E-1
6.564110833E0,6.926620845E-4,-1.195026562E-4,2.679618299E-1,2.679627518E-1
6.574066833E0,8.745319210E-4,2.237054054E-3,2.664695382E-1,2.664803633E-1
6.584022833E0,4.469091073E-5,8.410247974E-4,2.649382055E-1,2.649395441E-1
6.593978833E0,-2.127988264E-4,2.425405197E-3,2.654600143E-1,2.654711794E-1
6.603934833E0,-2.811777871E-3,2.426784486E-4,2.675047815E-1,2.675196686E-1
6.613890833E0,-9.661926888E-4,1.964091789E-3,2.671598494E-1,2.671688161E-1
6.623846833E0,-1.283375546E-3,1.603327692E-4,2.693782747E-1,2.693813795E-1
6.633802833E0,3.356653731E-3,-8.574621752E-4,2.662889957E-1,2.663115311E-1
6.643758833E0,-1.847163076E-3,1.462837681E-4,2.667414546E-1,2.667478904E-1
6.653714833E0,8.694126736E-4,4.529897124E-4,2.699728012E-1,2.699745812E-1
6.663670833E0,4.969188012E-5,-6.508901715E-4,2.679392099E-1,2.679400051E-1
6.673626833E0,5.793953314E-4,-1.953036524E-3,2.666660547E-1,2.666738360E-1
6.683582833E0,-1.093070023E-3,1.388165634E-3,2.663648725E-1,2.663707324E-1
6.693538833E0,-2.746612299E-3,-3.696084023E-4,2.659896016E-1,2.660040388E-1
6.703494833E0,-2.824110445E-3,5.142949522E-4,2.707276344E-1,2.707428524E-1
6.713450833E0,8.686936926E-4,3.384454176E-4,2.675895989E-1,2.675912230E-1
6.723406833E0,-2.760928590E-3,2.659922466E-3,2.691991925E-1,2.692264905E-1
6.733362833E0,1.002877718E-3,-5.845408887E-4,2.675119638E-1,2.675144823E-1
6.743319208E0,-6.141937338E-4,2.053529024E-4,2.672046423E-1,2.672054271E-1
6.753275208E0,-1.623912249E-3,3.153005615E-3,2.671440244E-1,2.671675659E-1
6.763231208E0,-2.499559429E-3,6.264648400E-4,2.696063817E-1,2.696186961E-1
6.773187208E0,-2.100823913E-3,-5.780830979E-4,2.682650387E-1,2.682738874E-1
6.783143208E0,-2.463280223E-3,1.061358489E-3,2.655973434E-1,2.656108866E-1
6.793099208E0,1.304273144E-3,-1.854902133E-3,2.663871646E-1,2.663968154E-1
6.803055208E0,-5.940856412E-3,2.186178230E-3,2.678343356E-1,2.679091347E-1
6.813011208E0,-2.605223795E-3,1.640870702E-3,2.693641484E-1,2.693817441E-1
6.822967208E0,1.033985987E-3,3.870548680E-4,2.677047253E-1,2.677070019E-1
6.832923208E0,-1.338935923E-3,-2.370215952E-5,2.682672739E-1,2.682706163E-1
6.842879208E0,-2.228165511E-3,-9.867008775E-4,2.700241804E-1,2.700351761E-1
6.852835208E0,3.324935678E-4,5.276193842E-4,2.686330676E-1,2.686337915E-1
6.862791208E0,1.120523084E-3,-1.434863545E-3,2.672578096E-1,2.672640103E-1
6.872747208E0,-9.031905793E-4,5.071847700E-4,2.699514925E-1,2.699534799E-1
6.882703208E0,1.980264205E-4,2.946648747E-4,2.710252702E-1,2.710255028E-1
6.892659208E0,-2.106291475E-3,9.110602550E-4,2.718274295E-1,2.718371166E-1
6.902615208E0,-2.790968865E-4,-9.108707309E-5,2.698204517E-1,2.698206115E-1
6.912571208E0,-1.129266806E-3,-6.751352921E-4,2.715200484E-1,2.715232361E-1
6.922527208E0,-9.811948985E-4,2.057001926E-3,2.704158723E-1,2.704254759E-1
6.932483208E0,-1.589705935E-3,1.836977433E-3,2.686511278E-1,2.686621114E-1
6.942439208E0,1.908836421E-4,1.205009408E-3,2.697054744E-1,2.697082338E-1
6.952395208E0,1.842401340E-3,2.968131565E-3,2.683935463E-1,2.684162811E-1
6.962351208E0,1.549719949E-3,1.413644757E-3,2.662291825E-1,2.662374460E-1
6.972307208E0,-9.443927556E-4,-5.273083225E-4,2.662460804E-1,2.662482775E-1
6.982263208E0,2.391216811E-3,5.653863773E-4,2.663677931E-1,2.663791260E-1
6.992219208E0,-1.183497254E-3,-1.831883565E-3,2.646123767E-1,2.646213641E-1
7.002175208E0,-3.874786198E-4,-8.654231206E-4,2.665492892E-1,2.665509758E-1
7.012131208E0,-1.432366669E-3,7.642083801E-4,2.663637996E-1,2.663687471E-1
7.022087208E0,-1.391620375E-3,-3.844127059E-4,2.651416659E-1,2.651455966E-1
7.032043208E0,1.236140146E-3,-6.911205128E-4,2.638500035E-1,2.638538043E-1
7.041999208E0,4.851287231E-4,-1.220023260E-4,2.638491988E-1,2.638496730E-1
7.051955208E0,-2.657048870E-3,-1.204643399E-3,2.644549906E-1,2.644710819E-1
7.061911208E0,-6.524873897E-4,-1.503716223E-3,2.640224993E-1,2.640275877E-1
7.071867208E0,-1.809585141E-3,-1.863129437E-3,2.625055611E-1,2.625184098E-1
7.081823208E0,6.461155135E-4,8.224020712E-4,2.630288601E-1,2.630309393E-1
7.091779208E0,-1.049309969E-3,-2.293610945E-3,2.594913840E-1,2.595036418E-1
7.101735208E0,1.065239776E-3,2.387892455E-4,2.609339952E-1,2.609362789E-1
7.111691208E0,2.681086771E-4,-1.012075692E-3,2.585951388E-1,2.585972583E-1
7.121647208E0,-3.830341157E-4,-1.095699146E-3,2.571008205E-1,2.571034407E-1
7.131603208E0,-3.211714793E-4,1.003020909E-3,2.566858530E-1,2.566880136E-1
7.141559208E0,-6.423487794E-4,-2.875467762E-4,2.527078688E-1,2.527088488E-1
7.151515208E0,1.566354302E-3,-1.687134616E-3,2.527008653E-1,2.527113515E-1
7.161471208E0,-5.868114531E-4,4.543131217E-4,2.518830001E-1,2.518840934E-1
7.171427208E0,5.637134891E-4,1.679537818E-4,2.500613928E-1,2.500620846E-1
7.181383208E0,7.298947312E-4,3.748815507E-4,2.494126409E-1,2.494139907E-1
7.191339208E0,-9.115063585E-4,4.812870175E-4,2.489633262E-1,2.489654600E-1
7.201295208E0,-4.470509011E-4,-1.752572134E-3,2.492192686E-1,2.492258317E-1
7.211251208E0,1.035930123E-3,8.499138057E-4,2.477487624E-1,2.477523860E-1
7.221207208E0,-3.204178065E-4,-6.168615073E-5,2.459657788E-1,2.459659953E-1
7.231163208E0,2.543528099E-4,-3.511025570E-3,2.447441220E-1,2.447694369E-1
7.241119208E0,1.339777373E-4,-2.965899184E-4,2.436953634E-1,2.436955807E-1
7.251075208E0,-1.841001213E-3,-2.228189260E-4,2.439034134E-1,2.439104631E-1
7.261031208E0,-2.231953200E-3,7.726703770E-4,2.409651577E-1,2.409767331E-1
7.270987208E0,1.317790360E-3,9.733266197E-4,2.395260781E-1,2.395316806E-1
7.280943208E0,1.068511046E-4,6.332434714E-5,2.420376986E-1,2.420377305E-1
7.290899208E0,-3.222334199E-4,2.744989470E-3,2.606156468E-1,2.606303017E-1
7.300855208E0,-5.560589489E-4,1.391038299E-3,2.780905366E-1,2.780945716E-1
7.310811208E0,-2.185847610E-3,3.590006847E-3,2.927665710E-1,2.927967404E-1
7.320767208E0,-3.227942623E-3,7.276982069E-5,2.945658267E-1,2.945835215E-1
7.330723208E0,-3.273579990E-3,3.526732326E-4,2.879954875E-1,2.880143078E-1
7.340679208E0,-1.857311232E-3,-1.562672667E-3,2.853914499E-1,2.854017716E-1
7.350635208E0,-1.560896402E-3,7.627857849E-4,2.784596086E-1,2.784650280E-1
7.360591208E0,-1.733894460E-4,-5.078082904E-4,2.716333866E-1,2.716339166E-1
7.370547208E0,5.776898470E-4,-8.881110698E-4,2.667937577E-1,2.667958613E-1
7.380503208E0,7.196362130E-4,1.470384654E-3,2.625886202E-1,2.625937230E-1
7.390459208E0,-2.570904326E-4,5.562296137E-4,2.601292431E-1,2.601299649E-1
7.400415208E0,-1.910114661E-3,2.824701369E-6,2.573060393E-1,2.573131291E-1
7.410371208E0,-3.187861759E-3,-2.772277221E-4,2.529251277E-1,2.529453687E-1
7.420327208E0,-3.121676855E-5,5.406886339E-5,2.508766353E-1,2.508766431E-1
7.430283208E0,6.698209327E-4,8.327551186E-4,2.526410520E-1,2.526433124E-1
7.440239208E0,-1.597537193E-4,1.011985820E-3,2.644132972E-1,2.644152820E-1
7.450195208E0,1.577485353E-3,-1.038610935E-3,2.771339118E-1,2.771403476E-1
7.460151208E0,1.002775272E-3,-2.329710871E-3,2.807140052E-1,2.807254635E-1
7.470107208E0,-5.734451115E-4,-4.458501935E-4,2.855701447E-1,2.855710685E-1
7.480063208E0,-2.648047637E-3,-1.589410938E-3,2.777383327E-1,2.777555037E-1
7.490019208E0,-5.635747220E-4,3.430135548E-4,2.737474442E-1,2.737482392E-1
7.499975208E0,-8.272277191E-4,8.348994888E-4,2.683063149E-1,2.683088892E-1
7.509931208E0,-6.632939912E-4,-9.024888277E-4,2.612943649E-1,2.612967654E-1
7.519887208E0,-2.299540211E-3,1.187293325E-3,2.578157485E-1,2.578287372E-1
7.529843208E0,-7.365262136E-4,-2.255644649E-4,2.527256012E-1,2.527267751E-1
7.539799208E0,-1.811644528E-3,1.633855049E-3,2.556073964E-1,2.556190381E-1
7.549755208E0,-9.025437757E-4,-2.726884559E-4,2.666728795E-1,2.666745462E-1
7.559711208E0,1.323607285E-4,-1.181093045E-3,2.781654894E-1,2.781680284E-1
7.569667208E0,-1.645065146E-3,-4.243860021E-4,2.887836695E-1,2.887886668E-1
7.579623208E0,2.429837594E-3,7.458068430E-4,2.858235836E-1,2.858348846E-1
7.589579208E0,-7.469290867E-4,3.078430891E-4,2.812125683E-1,2.812137287E-1
7.599535208E0,-7.791533135E-4,1.077762805E-3,2.754441798E-1,2.754473903E-1
7.609491208E0,-5.206603091E-4,-5.775652826E-4,2.703984380E-1,2.703995561E-1
7.619447208E0,9.624538943E-4,2.537388355E-5,2.650292218E-1,2.650309706E-1
7.629403208E0,-6.828510668E-4,4.457309842E-5,2.634860277E-1,2.634869163E-1
7.639359208E0,2.697617747E-4,-7.868660614E-4,2.601821125E-1,2.601834422E-1
7.649315208E0,-1.387186581E-3,1.178246457E-3,2.579804659E-1,2.579868860E-1
7.659271208E0,-1.411155099E-3,-9.650653228E-4,2.632788122E-1,2.632843627E-1
7.669227208E0,-1.647752710E-3,-1.261596568E-3,2.700131834E-1,2.700211582E-1
7.679183208E0,-2.002219204E-3,-2.261080779E-3,2.731605172E-1,2.731772127E-1
7.689139208E0,-9.888829663E-4,1.159219071E-3,2.732032835E-1,2.732075325E-1
7.699095208E0,1.983540133E-4,1.767789945E-4,2.707017958E-1,2.707019262E-1
7.709051208E0,5.841953680E-5,-4.544928670E-4,2.646534741E-1,2.646538708E-1
7.719007208E0,-2.197011840E-3,2.146084327E-3,2.623668909E-1,2.623848661E-1
7.728963208E0,-7.338123396E-4,4.170513712E-4,2.566275299E-1,2.566289179E-1
7.738918375E0,9.775348008E-4,2.014415339E-3,2.603093684E-1,2.603189980E-1
7.748874375E0,-1.913585700E-3,1.227811910E-3,2.707012892E-1,2.707108370E-1
7.758830375E0,6.941815373E-4,-4.432164133E-6,2.730970979E-1,2.730979802E-1
7.768786375E0,-7.250476629E-4,-2.257999033E-3,2.778728604E-1,2.778829804E-1
7.778742375E0,4.989411682E-4,9.447182529E-4,2.779383659E-1,2.779404193E-1
7.788698375E0,-7.897894830E-5,-1.891562715E-3,2.725214660E-1,2.725280420E-1
7.798654375E0,6.009261124E-4,-1.627909020E-3,2.671512067E-1,2.671568424E-1
7.808610375E0,2.286635805E-3,-1.471037976E-3,2.630013227E-1,2.630153768E-1
7.818566375E0,1.334023196E-3,1.012892462E-3,2.646082640E-1,2.646135653E-1
7.828522375E0,-5.204785150E-3,-7.818350568E-4,2.688002586E-1,2.688517809E-1
7.838478375E0,-2.935505472E-3,-2.633174881E-4,2.770411372E-1,2.770568141E-1
7.848434375E0,-2.195048146E-4,-1.247120090E-3,2.753520012E-1,2.753549129E-1
7.858390375E0,-3.203843022E-3,1.523099840E-3,2.721375525E-1,2.721606730E-1
7.868346375E0,-1.216984121E-3,-6.873048842E-4,2.689935267E-1,2.689971577E-1
7.878302375E0,-2.302222187E-3,3.665080294E-4,2.642533481E-1,2.642636308E-1
7.888258375E0,-6.004674360E-4,8.624698967E-5,2.616114914E-1,2.616121948E-1
7.898214375E0,-2.646427602E-4,1.490266062E-3,2.612101734E-1,2.612145586E-1
7.908170375E0,-1.440949505E-3,1.885201782E-4,2.636469901E-1,2.636509951E-1
7.918126375E0,-7.887410466E-4,9.086392820E-4,2.694449425E-1,2.694476290E-1
7.928082375E0,-1.849001739E-3,2.569435164E-4,2.746857703E-1,2.746921135E-1
7.938038375E0,-1.386677381E-3,1.009020023E-3,2.803314030E-1,2.803366485E-1
7.947994375E0,4.180963151E-4,-6.885416806E-4,2.792442739E-1,2.792454358E-1
7.957950375E0,-1.841063146E-3,-1.967391931E-3,2.752351463E-1,2.752483350E-1
7.967906375E0,-1.437567640E-3,1.424195245E-3,2.721450329E-1,2.721525562E-1
7.977862375E0,-1.010396983E-3,2.992758527E-4,2.644327879E-1,2.644348876E-1
7.987818375E0,-1.618011389E-3,1.413164660E-3,2.641835213E-1,2.641922556E-1
7.997774375E0,-1.905569807E-4,-3.367988393E-4,2.652972639E-1,2.652975461E-1
8.007730375E0,-8.522355929E-4,7.727928460E-5,2.688677311E-1,2.688690929E-1
8.017686375E0,-2.193137072E-3,2.062133048E-3,2.752481103E-1,2.752645718E-1
8.027642375E0,-2.851423342E-3,2.552341670E-3,2.759216726E-1,2.759482097E-1
8.037598375E0,-7.507810369E-5,-6.266739219E-4,2.752883732E-1,2.752890968E-1
8.047554375E0,-1.654203515E-4,2.891756594E-4,2.763455808E-1,2.763457816E-1
8.057510375E0,-2.381247468E-4,-3.947243094E-4,2.733671069E-1,2.733674956E-1
8.067466375E0,1.101330854E-4,-1.490178518E-3,2.719480991E-1,2.719522042E-1
8.077422375E0,1.411886304E-3,-1.737782732E-4,2.686939836E-1,2.686977492E-1
8.087378375E0,-3.673369996E-3,8.432394825E-4,2.697689533E-1,2.697952796E-1
8.097334375E0,-2.189722843E-3,6.794552319E-4,2.700616121E-1,2.700713441E-1
8.107290375E0,8.649709634E-4,1.589662395E-3,2.705856562E-1,2.705917082E-1
8.117246375E0,-1.479942352E-3,8.410480805E-4,2.713571787E-1,2.713625177E-1
8.127202375E0,-2.299424261E-3,-4.519205540E-4,2.743573189E-1,2.743673268E-1
8.137158375E0,-5.254927091E-4,2.233611420E-3,2.732491791E-1,2.732588133E-1
8.147114375E0,-2.904111519E-3,-1.083614305E-3,2.686589062E-1,2.686767872E-1
8.157070375E0,-1.254549250E-3,1.939041540E-4,2.678317428E-1,2.678347512E-1
8.167026375E0,-7.376361173E-4,3.833384253E-4,2.701184154E-1,2.701196945E-1
8.176982375E0,-7.219237741E-4,-1.185796224E-3,2.678658962E-1,2.678694937E-1
8.186938375E0,-1.998737454E-3,5.396776833E-4,2.720348835E-1,2.720427614E-1
8.196894375E0,-1.781689934E-3,3.268914297E-4,2.711837292E-1,2.711897790E-1
8.206850375E0,-3.546766005E-3,7.608719170E-4,2.738838196E-1,2.739078405E-1
8.216806375E0,-1.470032614E-3,-5.664480850E-4,2.709133327E-1,2.709179132E-1
8.226762375E0,-9.718853980E-4,2.248222008E-4,2.703292370E-1,2.703310775E-1
8.236718375E0,-2.786829602E-3,-9.419089183E-4,2.688202858E-1,2.688363808E-1
8.246674375E0,-3.036640352E-3,9.525818750E-4,2.662849426E-1,2.663039603E-1
8.256630375E0,-1.640877919E-3,-7.672980428E-5,2.601554096E-1,2.601605956E-1
8.266586375E0,-2.634944394E-5,1.802821644E-3,2.604748607E-1,2.604811009E-1
8.276542375E0,2.860394306E-4,5.159820430E-4,2.625185847E-1,2.625192476E-1
8.286498375E0,-1.317596994E-3,1.619728282E-4,2.606871426E-1,2.606905227E-1
8.296454375E0,-2.228397876E-3,7.491996512E-4,2.648848295E-1,2.648952623E-1
8.306410375E0,4.277259577E-4,1.504030079E-4,2.683500648E-1,2.683504478E-1
8.316366375E0,-2.581646200E-3,-8.815722540E-4,2.734063566E-1,2.734199661E-1
8.326322375E0,-2.895358484E-3,-6.661713123E-4,2.772291303E-1,2.772450496E-1
8.336278375E0,1.517499331E-3,-1.760996878E-3,2.752424181E-1,2.752522345E-1
8.346234375E0,3.906474449E-4,-1.724017784E-4,2.771813869E-1,2.771817158E-1
8.356190375E0,-1.821374055E-3,-1.114628278E-3,2.702078819E-1,2.702163194E-1
8.366146375E0,-1.211302355E-3,-1.197731122E-3,2.665456831E-1,2.665511265E-1
8.376102375E0,-1.960666850E-6,-9.481934831E-4,2.660823166E-1,2.660840061E-1
8.386058375E0,2.086218446E-3,1.421434339E-3,2.632643580E-1,2.632764612E-1
8.396014375E0,-1.979747321E-4,1.065103337E-3,2.642041743E-1,2.642063954E-1
8.405970375E0,-3.331550397E-5,7.957587950E-4,2.616364062E-1,2.616376184E-1
8.415926375E0,-2.497005742E-3,9.821802378E-4,2.635237873E-1,2.635374474E-1
8.425882375E0,-1.119970344E-3,-1.746731810E-3,2.646989226E-1,2.647070552E-1
8.435838375E0,-4.586340860E-3,1.558783464E-3,2.706305981E-1,2.706739458E-1
8.445794375E0,1.743845874E-3,-1.286840998E-3,2.733622491E-1,2.733708401E-1
8.455750375E0,1.564881415E-3,-1.932391897E-3,2.744296491E-1,2.744409141E-1
8.465706375E0,-1.616965514E-3,3.044666722E-3,2.766010761E-1,2.766225585E-1
8.475662375E0,-8.948845789E-6,-3.111828119E-4,2.731104791E-1,2.731106565E-1
8.485618375E0,-3.703176510E-3,-1.944367774E-3,2.701680958E-1,2.702004702E-1
8.495574375E0,-1.701810863E-3,1.633056439E-3,2.690247893E-1,2.690351284E-1
8.505530375E0,-1.204614993E-3,2.718760166E-3,2.671894729E-1,2.672060201E-1
8.515486375E0,1.483845874E-3,1.543506980E-3,2.660850585E-1,2.660936725E-1
8.525442375E0,1.498200116E-3,2.664696425E-3,2.678805590E-1,2.678980013E-1
8.535398375E0,1.721372944E-3,-9.987484664E-4,2.696534097E-1,2.696607535E-1
8.545354375E0,2.877793740E-4,-8.769994602E-4,2.688444257E-1,2.688460101E-1
8.555310375E0,-5.111689679E-4,-1.399245113E-3,2.671495676E-1,2.671537210E-1
8.565266375E0,1.478864113E-3,-8.000480011E-4,2.636417747E-1,2.636471363E-1
8.575222375E0,3.490882460E-3,-2.897866070E-4,2.636867762E-1,2.637100418E-1
8.585178375E0,3.418726847E-4,1.788536552E-3,2.682425082E-1,2.682486886E-1
8.595134375E0,3.155074082E-4,4.345853813E-4,2.729331255E-1,2.729336538E-1
8.605090375E0,1.842714846E-5,5.487808958E-4,2.765480876E-1,2.765486327E-1
8.615046375E0,-2.349122893E-3,-5.782693624E-4,2.780703306E-1,2.780808543E-1
8.625002375E0,-8.523897268E-4,-1.444643363E-3,2.757702470E-1,2.757753482E-1
8.634958375E0,-2.024180721E-3,-1.305892132E-3,2.711302340E-1,2.711409347E-1
8.644914375E0,1.717277337E-4,2.531707287E-4,2.635224164E-1,2.635225939E-1
8.654870375E0,6.630809512E-4,-1.099448651E-3,2.611165047E-1,2.611196612E-1
8.664826375E0,-3.254925832E-5,-3.118457273E-3,2.608920038E-1,2.609106427E-1
8.674782375E0,-1.053604996E-3,2.235174179E-6,2.646143138E-1,2.646164114E-1
8.684738375E0,-1.048760023E-4,3.095248248E-3,2.685626447E-1,2.685805013E-1
8.694693375E0,-3.988889512E-4,1.749819145E-3,2.743291855E-1,2.743350561E-1
8.704649375E0,-1.303176861E-3,-1.535015181E-4,2.793306708E-1,2.793337529E-1
8.714606375E0,-8.248733357E-4,1.438269857E-3,2.799900770E-1,2.799949861E-1
8.724561375E0,-2.660006285E-3,3.995993175E-4,2.750627697E-1,2.750759214E-1
8.734517375E0,1.345920842E-3,3.142389003E-3,2.720310390E-1,2.720525175E-1
8.744473250E0,-4.503135104E-3,1.618992537E-3,2.666374445E-1,2.666803820E-1
8.754429250E0,4.977486096E-4,9.390874766E-4,2.607508004E-1,2.607529665E-1
8.764385250E0,-4.485934041E-4,-6.521856412E-4,2.605198026E-1,2.605210051E-1
8.774341250E0,-1.282961573E-3,-5.997214466E-4,2.620713711E-1,2.620751976E-1
8.784297250E0,-2.715045121E-4,-1.544161700E-3,2.602009177E-1,2.602056412E-1
8.794253250E0,-2.823345363E-3,1.251624897E-3,2.666212320E-1,2.666391179E-1
8.804209250E0,-2.593389479E-3,-3.382434137E-3,2.733730972E-1,2.734063218E-1
8.814165250E0,-1.488976879E-3,-4.159011878E-3,2.714159489E-1,2.714518958E-1
8.824121250E0,-4.237932153E-4,6.687277928E-4,2.749063373E-1,2.749074773E-1
8.834077250E0,6.760924589E-4,6.263833493E-4,2.686012983E-1,2.686028796E-1
8.844033250E0,-8.313863073E-4,1.292414032E-3,2.627706528E-1,2.627751463E-1
8.853989250E0,2.898637205E-3,2.710912377E-4,2.591575384E-1,2.591738901E-1
8.863945250E0,1.173399389E-3,-3.964919597E-4,2.636141777E-1,2.636170874E-1
8.873901250E0,-4.109151196E-4,1.919126604E-3,2.685095966E-1,2.685167692E-1
8.883857250E0,-4.422636237E-3,1.834989991E-3,2.715581656E-1,2.716003759E-1
8.893813250E0,-2.537239343E-4,-2.039261162E-4,2.742325366E-1,2.742327298E-1
8.903769250E0,-4.605429713E-4,-9.352080524E-4,2.698986530E-1,2.699006662E-1
8.913725250E0,6.153741851E-4,2.906452864E-4,2.674772739E-1,2.674781397E-1
8.923681250E0,-9.985105135E-4,-9.936233982E-4,2.641252875E-1,2.641290439E-1
8.933637250E0,-2.256054897E-3,5.584671162E-4,2.620861232E-1,2.620964282E-1
8.943593250E0,-1.470524585E-3,1.581199467E-5,2.580759227E-1,2.580801127E-1
8.953549250E0,6.807767786E-4,4.730769433E-4,2.625401914E-1,2.625415003E-1
8.963505250E0,-1.876779366E-3,6.356402300E-4,2.646356821E-1,2.646431004E-1
8.973461250E0,-1.022171229E-3,1.980536617E-3,2.723002434E-1,2.723093643E-1
8.983417250E0,-3.693467937E-3,1.158492174E-3,2.768851519E-1,2.769122083E-1
8.993373250E0,-1.741104294E-3,-1.746750437E-3,2.746851146E-1,2.746961863E-1
9.003329250E0,-5.060103722E-4,1.491964795E-3,2.720966041E-1,2.721011650E-1
9.013285250E0,-2.641066909E-3,2.072799951E-3,2.716515958E-1,2.716723417E-1
9.023241250E0,1.687935321E-3,-4.628552124E-4,2.668371499E-1,2.668428899E-1
9.033197250E0,-8.383393288E-4,3.291694447E-4,2.643945217E-1,2.643960557E-1
9.043153250E0,-1.932147657E-3,-3.118444234E-3,2.586848736E-1,2.587108844E-1
9.053109250E0,-2.026956296E-3,-6.070826203E-4,2.638383508E-1,2.638468352E-1
9.063065250E0,-7.965452969E-4,7.415153086E-4,2.680274546E-1,2.680296639E-1
9.073021250E0,5.203876644E-4,1.246983651E-3,2.706778347E-1,2.706812073E-1
9.082977250E0,2.195811830E-4,-1.964275725E-3,2.740446925E-1,2.740518201E-1
9.092933250E0,-4.442814738E-3,-1.346841455E-4,2.779970765E-1,2.780326083E-1
9.102889250E0,-1.232285518E-3,6.068791263E-4,2.783525288E-1,2.783559181E-1
9.112845250E0,-6.924625486E-4,4.066098481E-4,2.792225778E-1,2.792237325E-1
9.122801250E0,-6.940625608E-4,5.792914890E-4,2.732077241E-1,2.732092198E-1
9.132757250E0,4.761305172E-4,-3.019487485E-4,2.718670964E-1,2.718676810E-1
9.142713250E0,-4.694205709E-4,2.113393974E-3,2.658627629E-1,2.658715771E-1
9.152669250E0,1.625954406E-3,1.218821853E-4,2.649045587E-1,2.649095766E-1
9.162625250E0,-4.700624850E-4,1.164859161E-3,2.631549835E-1,2.631579815E-1
9.172581250E0,-9.664755780E-4,-1.667945646E-3,2.633898854E-1,2.633969397E-1
9.182537250E0,1.664310344E-3,-1.742435619E-3,2.634756267E-1,2.634866446E-1
9.192493250E0,-3.505417844E-3,3.931531683E-4,2.656383812E-1,2.656618003E-1
9.202449250E0,-2.104524290E-3,6.231009029E-4,2.704582214E-1,2.704671271E-1
9.212405250E0,6.728863809E-4,6.345524453E-4,2.707743347E-1,2.707759143E-1
9.222361250E0,-1.622066600E-3,2.959834877E-3,2.720915377E-1,2.721124705E-1
9.232317250E0,-1.489707502E-3,-5.446188152E-4,2.736886442E-1,2.736932403E-1
9.242273250E0,-9.169233963E-4,1.423115376E-3,2.754864395E-1,2.754916411E-1
9.252229250E0,-8.085328154E-4,-8.909050375E-4,2.705942094E-1,2.705968840E-1
9.262185250E0,-2.055777470E-3,-1.824538223E-3,2.709851861E-1,2.709991259E-1
9.272141250E0,-1.522079809E-3,1.427382231E-4,2.685947418E-1,2.685990924E-1
9.282097250E0,-2.280700719E-3,-2.032808028E-3,2.685973644E-1,2.686147391E-1
9.292053250E0,6.503744517E-4,-2.371892333E-5,2.661981285E-1,2.661989240E-1
9.302009250E0,-1.359006623E-3,3.302833065E-4,2.671657205E-1,2.671693811E-1
9.311965250E0,-7.214460056E-4,6.195027381E-4,2.675337493E-1,2.675354393E-1
9.321921250E0,6.831993815E-4,-4.076911137E-4,2.674869001E-1,2.674880833E-1
9.331877250E0,-1.677426510E-3,-7.765386254E-4,2.648370564E-1,2.648435070E-1
9.341833250E0,1.433371101E-3,8.619995788E-4,2.636854649E-1,2.636907696E-1
9.351789250E0,-1.655907836E-4,1.186106354E-3,2.656175792E-1,2.656202791E-1
9.361745250E0,-6.990074180E-4,-2.922005951E-3,2.627447248E-1,2.627619019E-1
9.371701250E0,2.879481995E-3,-7.608504966E-4,2.649863064E-1,2.650030432E-1
9.381657250E0,-1.063159201E-3,-2.417992800E-4,2.685261369E-1,2.685283504E-1
9.391613250E0,1.805065433E-3,-2.094027586E-3,2.745339870E-1,2.745479070E-1
9.401569250E0,-2.139397431E-3,9.215436876E-6,2.770153880E-1,2.770236494E-1
9.411525250E0,-1.339650247E-3,-1.195598394E-3,2.728685737E-1,2.728744814E-1
9.421481250E0,1.551933354E-3,1.558175310E-3,2.681886256E-1,2.681976422E-1
9.431437250E0,5.119689740E-4,5.413801409E-4,2.627443075E-1,2.627453641E-1
9.441393250E0,-1.112667844E-3,8.375588804E-4,2.562241852E-1,2.562279700E-1
9.451349250E0,2.124937018E-3,9.123934433E-4,2.551578581E-1,2.551683374E-1
9.461305250E0,-4.424350336E-4,6.895619445E-4,2.573078275E-1,2.573091318E-1
9.471261250E0,-9.795944206E-4,-5.352254957E-4,2.621023357E-1,2.621047128E-1
9.481217250E0,1.421188470E-3,1.711398363E-4,2.695886195E-1,2.695924198E-1
9.491173250E0,-2.313096076E-3,-1.729025505E-3,2.737274468E-1,2.737426804E-1
9.501129250E0,5.721410271E-4,9.617791511E-4,2.744404972E-1,2.744427788E-1
9.511085250E0,1.287998632E-3,-5.716690794E-4,2.754372954E-1,2.754409001E-1
9.521041250E0,7.440357003E-4,9.698164649E-4,2.735444605E-1,2.735471916E-1
9.530997250E0,-2.020059386E-3,1.636405475E-3,2.718341649E-1,2.718465958E-1
9.540953250E0,-8.376345504E-4,2.719665878E-3,2.685424387E-1,2.685575164E-1
9.550909250E0,1.748294919E-3,-1.332866028E-3,2.613985240E-1,2.614077685E-1
9.560865250E0,-7.513596211E-4,-3.576697782E-4,2.610158920E-1,2.610172185E-1
9.570821250E0,7.485328242E-4,2.110281494E-3,2.611192465E-1,2.611288465E-1
9.580777250E0,1.238920260E-3,1.433988567E-3,2.627198398E-1,2.627266745E-1
9.590733250E0,-1.116645522E-3,1.455508173E-4,2.647989690E-1,2.648013634E-1
9.600689250E0,2.794677857E-4,-8.383188397E-4,2.685919404E-1,2.685933941E-1
9.610645250E0,2.672584262E-3,-3.983648494E-4,2.681746185E-1,2.681882313E-1
9.620601250E0,-7.773479447E-4,-1.826676540E-3,2.685067356E-1,2.685140742E-1
9.630557250E0,-3.477526829E-3,1.116648782E-3,2.707080841E-1,2.707327223E-1
9.640513250E0,-1.676868647E-3,-1.749070361E-4,2.749105692E-1,2.749157390E-1
9.650469250E0,-1.149247400E-4,-4.542730749E-4,2.750333250E-1,2.750337241E-1
9.660425250E0,-6.873609964E-4,-3.930153325E-4,2.717420161E-1,2.717431696E-1
9.670381250E0,-6.351626944E-4,-6.611952558E-4,2.691369057E-1,2.691384673E-1
9.680337250E0,-3.974682186E-3,1.220855862E-3,2.684900463E-1,2.685222403E-1
9.690293250E0,-6.451979280E-4,1.850959845E-3,2.618832588E-1,2.618905947E-1
9.700249250E0,-4.202239215E-4,1.305453479E-4,2.594829202E-1,2.594832933E-1
9.710205250E0,5.619026721E-3,1.577092335E-4,2.641285360E-1,2.641883454E-1
9.720161250E0,-5.910075270E-4,-9.006476030E-4,2.671574354E-1,2.671596073E-1
9.730117250E0,-1.325507648E-3,1.952433959E-4,2.706390023E-1,2.706423187E-1
9.740073250E0,-1.983574126E-3,2.252257895E-3,2.723577917E-1,2.723743268E-1
9.750029958E0,-3.312491812E-3,-6.109066308E-4,2.746686339E-1,2.746892868E-1
9.759985958E0,1.738365856E-3,-3.896905109E-4,2.725479007E-1,2.725537230E-1
9.769941958E0,2.422798192E-3,9.429552592E-4,2.716030180E-1,2.716154608E-1
9.779897958E0,6.171560381E-4,1.116554718E-3,2.668067217E-1,2.668097718E-1
9.789853958E0,-1.013497356E-3,1.943466254E-3,2.688176632E-1,2.688265989E-1
9.799809958E0,3.438260173E-3,4.097726196E-5,2.671887875E-1,2.672109119E-1
9.809765958E0,-1.907769591E-3,3.751460463E-5,2.687296867E-1,2.687364611E-1
9.819721958E0,-6.639938802E-4,-6.907489151E-4,2.680068612E-1,2.680085739E-1
9.829677958E0,9.980846662E-4,-2.968674526E-4,2.703573406E-1,2.703593459E-1
9.839633958E0,-1.292580739E-3,1.060637180E-3,2.710887194E-1,2.710938758E-1
9.849589958E0,-1.109088771E-3,-6.674882025E-4,2.719020545E-1,2.719051358E-1
9.859545958E0,-2.183700446E-3,-1.814191230E-3,2.696679235E-1,2.696828670E-1
9.869501958E0,9.862869047E-5,5.429722369E-4,2.680979967E-1,2.680985647E-1
9.879457958E0,-1.892901957E-3,-1.197531819E-4,2.710658014E-1,2.710724370E-1
9.889413958E0,-2.815687563E-3,2.829164732E-3,2.729798257E-1,2.730090063E-1
9.899369958E0,-1.740862615E-3,6.032595411E-4,2.719477415E-1,2.719539826E-1
9.909325958E0,-2.797871362E-3,1.090617850E-3,2.697162628E-1,2.697329790E-1
9.919281958E0,-1.763314009E-3,-1.213855110E-3,2.719358504E-1,2.719442764E-1
9.929237958E0,-1.567838248E-3,-1.146476716E-3,2.700005174E-1,2.700075034E-1
9.939193958E0,-2.574222162E-3,1.647537574E-4,2.659704685E-1,2.659829767E-1
9.949149958E0,-2.667432651E-3,-6.890557706E-4,2.663885951E-1,2.664028408E-1
9.959105958E0,-1.298084389E-3,3.579165787E-5,2.637800574E-1,2.637832538E-1
9.969061958E0,-3.395323642E-3,-1.996317878E-4,2.625808418E-1,2.626028685E-1
9.979017958E0,-5.087351892E-4,8.847452700E-4,2.640577853E-1,2.640597575E-1
9.988973958E0,6.185809616E-4,-9.706793353E-4,2.647627294E-1,2.647652314E-1
9.998929958E0,8.940333501E-4,3.996291198E-4,2.676911354E-1,2.676929266E-1
1.000888596E1,-1.181900501E-3,4.403754137E-4,2.733644843E-1,2.733673940E-1
1.001884196E1,-1.754187979E-3,-1.947687007E-3,2.771885991E-1,2.772009923E-1
1.002879796E1,1.758050639E-4,-1.518651843E-3,2.760647535E-1,2.760689866E-1
1.003875396E1,1.464108005E-3,1.296861097E-3,2.795983851E-1,2.796052260E-1
1.004870996E1,-2.297873376E-3,-1.057906076E-3,2.779037952E-1,2.779153087E-1
1.005866596E1,5.397689529E-5,1.340318937E-3,2.702524364E-1,2.702557654E-1
1.006862196E1,1.403933391E-3,4.628952593E-5,2.674393356E-1,2.674430246E-1
1.007857796E1,9.849807248E-5,-1.498596743E-3,2.643468380E-1,2.643511041E-1
1.008853396E1,-5.547753535E-4,-6.258795038E-4,2.616432011E-1,2.616445379E-1
1.009848996E1,6.833809894E-4,-1.074448228E-4,2.599163353E-1,2.599172559E-1
1.010844596E1,-1.957409550E-3,1.700309105E-3,2.625834942E-1,2.625962946E-1
1.011840196E1,-2.075560624E-3,2.878352068E-3,2.640365958E-1,2.640604416E-1
1.012835796E1,-1.487801084E-3,-9.187832475E-4,2.683850229E-1,2.683907193E-1
1.013831396E1,2.657763660E-3,3.494769335E-4,2.700833082E-1,2.700966109E-1
1.014826996E1,4.265673924E-4,-5.671828985E-4,2.740724683E-1,2.740733871E-1
1.015822596E1,-4.055271856E-4,1.028041355E-3,2.762154341E-1,2.762176449E-1
1.016818196E1,-2.867619507E-3,1.171585638E-3,2.756279409E-1,2.756453476E-1
1.017813796E1,-8.286207449E-4,-1.240042038E-3,2.713484764E-1,2.713525750E-1
1.018809396E1,-4.267560318E-3,1.476381905E-3,2.690349817E-1,2.690728771E-1
1.019804996E1,-1.155444887E-3,-2.062296495E-3,2.619380355E-1,2.619487021E-1
1.020800596E1,2.919724211E-3,1.079168171E-3,2.607904673E-1,2.608090436E-1
1.021796196E1,-1.419296023E-3,-6.509507075E-4,2.625858486E-1,2.625904911E-1
1.022791796E1,1.370897749E-3,1.490230672E-3,2.653408647E-1,2.653485907E-1
1.023787396E1,-2.760190051E-3,-1.715533435E-4,2.722386122E-1,2.722526585E-1
1.024782996E1,-3.261929844E-3,6.234003231E-4,2.770181894E-1,2.770380950E-1
1.025778596E1,-7.407681551E-4,1.605320722E-5,2.762868702E-1,2.762878638E-1
1.026774196E1,1.870461041E-3,-9.128572419E-4,2.720977366E-1,2.721056967E-1
1.027769796E1,2.447997918E-3,2.082334831E-4,2.706387639E-1,2.706499152E-1
1.028765396E1,9.429617785E-5,1.677765977E-3,2.656607926E-1,2.656661072E-1
1.029760996E1,-3.082717303E-4,-1.852173358E-3,2.648175955E-1,2.648242520E-1
1.030756596E1,2.968481742E-3,-1.522740349E-3,2.634860277E-1,2.635071487E-1
1.031752196E1,4.748371430E-4,-1.398893073E-4,2.670462430E-1,2.670467017E-1
1.032747796E1,-9.105391800E-4,7.449463010E-5,2.737374306E-1,2.737389551E-1
1.033743396E1,-1.320052193E-3,8.833706379E-4,2.756993771E-1,2.757039524E-1
1.034738996E1,-2.115804935E-3,2.645317931E-3,2.759973705E-1,2.760181567E-1
1.035734596E1,-6.266345736E-4,8.126599714E-4,2.726447582E-1,2.726466895E-1
1.036730196E1,3.387611359E-4,-1.261038706E-4,2.691517472E-1,2.691519900E-1
1.037725796E1,1.361335162E-4,8.678599261E-4,2.643851340E-1,2.643865934E-1