"Time (s)","Gyroscope x (rad/s)","Gyroscope y (rad/s)","Gyroscope z (rad/s)","Absolute (rad/s)"
6.974999997E-4,-7.421192713E-4,2.802318893E-3,1.905120462E-1,1.905341006E-1
1.065450000E-2,-7.363203913E-4,2.218853682E-3,1.927955598E-1,1.928097335E-1
2.061150000E-2,-3.316657152E-3,6.489204243E-4,1.949561834E-1,1.949854732E-1
3.056850000E-2,-1.847324660E-3,1.680133864E-3,1.959170401E-1,1.959329530E-1
4.052550000E-2,2.557735424E-4,7.544197142E-4,1.910719573E-1,1.910736179E-1
5.048150000E-2,2.232296392E-4,2.096560784E-3,1.908392161E-1,1.908508627E-1
6.043850000E-2,-1.741650514E-3,2.213739790E-3,1.924845278E-1,1.925051361E-1
7.039550000E-2,1.960457303E-5,3.261670470E-3,1.875246912E-1,1.875530557E-1
8.035250000E-2,-1.921573421E-3,7.031718269E-4,1.855731308E-1,1.855844115E-1
9.030950000E-2,3.109520767E-4,-1.263909042E-3,1.876842380E-1,1.876887512E-1
1.002655000E-1,-8.488546591E-4,1.316693611E-3,1.899665594E-1,1.899730190E-1
1.102225000E-1,-2.387118759E-3,1.648488455E-3,1.939143986E-1,1.939360972E-1
1.201795000E-1,2.371603623E-4,2.339312807E-3,1.957192272E-1,1.957333506E-1
1.301365000E-1,-6.696463097E-4,1.775676385E-3,1.946531683E-1,1.946624190E-1
1.400935000E-1,-1.127177384E-3,2.011656761E-6,1.914595068E-1,1.914628247E-1
1.500505000E-1,-5.978847854E-3,1.255495474E-3,1.897766739E-1,1.898749822E-1
1.600065000E-1,5.296519957E-4,-2.469467930E-3,1.891561598E-1,1.891730202E-1
1.699635000E-1,-1.226709923E-3,1.365952194E-4,1.928546876E-1,1.928586373E-1
1.799205000E-1,-7.215084042E-4,-1.253307797E-3,1.949444711E-1,1.949498350E-1
1.898775000E-1,-1.315508969E-3,4.121167585E-4,1.947410405E-1,1.947459197E-1
1.998345000E-1,-2.689433983E-3,-9.130723774E-4,1.950829923E-1,1.951036664E-1
2.097915000E-1,-2.223058604E-3,2.594394609E-3,1.930989623E-1,1.931291850E-1
2.197485000E-1,-1.447545830E-3,2.079872414E-3,1.919197142E-1,1.919364425E-1
2.297045000E-1,-1.837515738E-3,1.447725110E-3,1.922920346E-1,1.923062634E-1
2.396615000E-1,-1.273990842E-3,2.079427242E-3,1.901433915E-1,1.901590292E-1
2.496185000E-1,-4.146784544E-3,3.465294838E-3,1.864538491E-1,1.865321472E-1
2.595755000E-1,-8.681667969E-4,-1.122266054E-3,1.837579310E-1,1.837634088E-1
2.695325000E-1,-5.744950380E-3,-1.156303100E-3,1.854422837E-1,1.855348541E-1
2.794885000E-1,-3.779004794E-3,1.221366227E-3,1.883893311E-1,1.884311882E-1
2.894455000E-1,-2.376074204E-3,1.342837699E-3,1.910110861E-1,1.910305838E-1
2.994025000E-1,-1.332913758E-3,7.231198251E-4,1.938987523E-1,1.939046820E-1
3.093595000E-1,2.515028697E-3,1.718853600E-3,1.945861429E-1,1.946099865E-1
3.193165000E-1,-3.633677494E-3,2.363605425E-3,1.959158629E-1,1.959638119E-1
3.292735000E-1,-3.743416164E-4,1.170502044E-3,1.937764883E-1,1.937803850E-1
3.392295000E-1,-1.346395584E-3,2.290746197E-4,1.928795427E-1,1.928843779E-1
3.491865000E-1,7.112206658E-4,2.239928581E-3,1.879004836E-1,1.879151799E-1
3.591435000E-1,-2.138095209E-3,4.249549937E-3,1.875627935E-1,1.876231106E-1
3.691005000E-1,-1.701846253E-3,2.394272014E-4,1.863743812E-1,1.863823049E-1
3.790575000E-1,-1.584134530E-3,-2.822000533E-5,1.907331795E-1,1.907397599E-1
3.890145000E-1,8.149072528E-5,1.927141100E-3,1.949309260E-1,1.949404689E-1
3.989715000E-1,-2.605372574E-3,1.982801594E-3,1.993789375E-1,1.994058178E-1
4.089275000E-1,-2.630335744E-3,2.940432169E-3,1.985785812E-1,1.986177679E-1
4.188845000E-1,-8.907588199E-4,3.268000670E-3,1.986725926E-1,1.987014654E-1
4.288415000E-1,1.455518766E-3,1.625310630E-3,1.902388781E-1,1.902513888E-1
4.387985000E-1,-1.022818964E-3,1.168045215E-3,1.822576523E-1,1.822642650E-1
4.487555000E-1,-2.768813167E-3,2.244661562E-3,1.828255206E-1,1.828602631E-1
4.587115000E-1,-7.093907334E-4,2.491802908E-3,1.826087385E-1,1.826271166E-1
4.686685000E-1,-2.795995679E-4,2.930257469E-4,1.872123778E-1,1.872128159E-1
4.786255000E-1,-1.889214152E-3,3.435555845E-3,1.916766167E-1,1.917167117E-1
4.885825000E-1,-6.325293798E-4,-4.952568561E-4,1.917459369E-1,1.917476197E-1
4.985395000E-1,-2.239923924E-5,-2.763448283E-4,1.883197725E-1,1.883199766E-1
5.084965000E-1,-1.434138510E-3,-9.139012545E-4,1.845315248E-1,1.845393606E-1
5.184525000E-1,-2.248000354E-3,-1.434549689E-3,1.835277826E-1,1.835471558E-1
5.284095000E-1,-1.068421872E-3,4.653465003E-4,1.842628568E-1,1.842665420E-1
5.383665000E-1,-1.261767466E-3,3.518955782E-4,1.854958981E-1,1.855005232E-1
5.483235000E-1,-8.880705573E-4,9.566182271E-4,1.905113608E-1,1.905158323E-1
5.582805000E-1,-2.627913607E-3,-5.475347862E-4,1.938410997E-1,1.938596855E-1
5.682375000E-1,-2.254358726E-3,-2.786414698E-4,1.975274235E-1,1.975404840E-1
5.781935000E-1,-1.886310289E-3,1.881448552E-3,1.983229071E-1,1.983408014E-1
5.881505000E-1,-2.436317969E-3,8.014822379E-4,1.956004202E-1,1.956172345E-1
5.981075000E-1,-3.077341244E-3,1.876334660E-3,1.913324445E-1,1.913663894E-1
6.080645000E-1,1.574687427E-3,2.301966771E-3,1.804239005E-1,1.804454559E-1
6.180215000E-1,-2.283433918E-3,1.752823591E-3,1.833105087E-1,1.833331096E-1
6.279785000E-1,-1.664679730E-3,9.500673041E-4,1.887315959E-1,1.887413285E-1
6.379345000E-1,8.924875874E-4,6.991978735E-4,1.883800626E-1,1.883834743E-1
6.478915000E-1,-4.828934558E-3,2.398581244E-3,1.939034313E-1,1.939783814E-1
6.578485000E-1,-4.537850618E-3,2.660369501E-3,1.969034821E-1,1.969737315E-1
6.678055000E-1,1.600899268E-4,9.548496455E-4,2.000415176E-1,2.000438605E-1
6.777625000E-1,-9.057070129E-4,6.800116971E-4,1.971354783E-1,1.971387316E-1
6.877195000E-1,-2.654050477E-3,6.884830073E-4,1.938728690E-1,1.938922570E-1
6.976755000E-1,-1.813823357E-3,6.429422647E-4,1.867845953E-1,1.867945084E-1
7.076325000E-1,-1.838921569E-3,-6.155837327E-4,1.853610724E-1,1.853712161E-1
7.175895000E-1,-1.648587640E-4,6.733862683E-4,1.855791807E-1,1.855804757E-1
7.275465000E-1,-1.456841361E-3,1.186191104E-3,1.929789037E-1,1.929880481E-1
7.375035000E-1,-6.898511201E-4,-9.691994637E-5,1.956884116E-1,1.956896515E-1
7.474605000E-1,-3.471426899E-3,1.412390731E-3,1.973877400E-1,1.974233156E-1
7.574175000E-1,-1.223718747E-3,-1.265417784E-3,1.973392665E-1,1.973471178E-1
7.673735000E-1,-3.790089395E-4,1.979690976E-3,1.944224983E-1,1.944329465E-1
7.773305000E-1,-2.390760696E-3,-5.862647668E-4,1.868732423E-1,1.868894543E-1
7.872875000E-1,-1.584602753E-3,2.193669789E-3,1.859152615E-1,1.859349553E-1
7.972445000E-1,-1.173144439E-3,1.425025985E-4,1.856862307E-1,1.856899912E-1
8.072015000E-1,-2.332385629E-4,8.606808260E-4,1.907699704E-1,1.907720545E-1
8.171585000E-1,-2.665503416E-3,3.911657259E-4,1.931508482E-1,1.931696355E-1
8.271145000E-1,-1.732610632E-3,1.413499936E-3,1.944509596E-1,1.944638156E-1
8.370715000E-1,1.940953778E-3,2.238281071E-3,1.940922290E-1,1.941148386E-1
8.470285000E-1,-2.320494037E-3,6.924038753E-4,1.918773204E-1,1.918926007E-1
8.569855000E-1,-3.583098762E-3,-3.020204604E-4,1.888106912E-1,1.888449283E-1
8.669425000E-1,9.068946820E-4,2.150112763E-3,1.887894869E-1,1.888039083E-1
8.768985000E-1,-1.722444315E-3,7.801819593E-4,1.840083152E-1,1.840180305E-1
8.868550000E-1,-3.619099269E-3,1.829907298E-3,1.891137660E-1,1.891572439E-1
8.968120000E-1,-8.936200757E-4,9.558582678E-4,1.913825125E-1,1.913869857E-1
9.067690000E-1,-3.442566609E-3,8.349185809E-4,1.960068196E-1,1.960388270E-1
9.167260000E-1,-1.255045878E-3,2.189297229E-4,1.974212229E-1,1.974253336E-1
9.266830000E-1,1.401430462E-3,3.326492384E-3,2.005873919E-1,2.006198677E-1
9.366390000E-1,-2.111545065E-3,8.114036173E-4,1.962302029E-1,1.962432407E-1
9.465960000E-1,7.730759680E-4,1.617150381E-3,1.916645914E-1,1.916729726E-1
9.565530000E-1,-5.459520034E-3,-5.173729733E-4,1.917061359E-1,1.917845577E-1
9.665100000E-1,3.768093884E-4,3.289151937E-4,1.877546310E-1,1.877552973E-1
9.764670000E-1,-2.500203438E-3,4.413006827E-4,1.891615838E-1,1.891786207E-1
9.864240000E-1,-1.197024481E-3,6.315177307E-4,1.857973039E-1,1.858022331E-1
9.963800000E-1,-2.446846105E-3,2.965778578E-3,1.881640553E-1,1.882033332E-1
1.006337000E0,-3.094390733E-3,1.655839384E-3,1.886162311E-1,1.886488794E-1
1.016294000E0,-3.585743951E-3,1.868391410E-4,1.929364204E-1,1.929698287E-1
1.026251000E0,-9.448069613E-4,2.569786273E-3,1.957959086E-1,1.958150512E-1
1.036208000E0,-1.175436657E-3,7.413793355E-5,1.960891187E-1,1.960926557E-1
1.046165000E0,-1.288948813E-3,4.933625460E-4,1.869272739E-1,1.869323688E-1
1.056121000E0,-1.250865636E-3,-7.119840011E-4,1.805591285E-1,1.805648650E-1
1.066078000E0,-2.270402852E-3,1.882096753E-3,1.797282398E-1,1.797524331E-1
1.076035000E0,-8.032673504E-4,1.342006959E-3,1.849722713E-1,1.849788836E-1
1.085992000E0,-1.422096509E-3,-4.672436044E-4,1.919593662E-1,1.919652024E-1
1.095949000E0,-3.111339640E-3,-2.770945430E-4,1.915372461E-1,1.915627152E-1
1.105906000E0,-7.635797374E-4,1.335938461E-3,1.956941634E-1,1.957002131E-1
1.115862000E0,-1.139085507E-3,2.509662881E-4,1.960020214E-1,1.960054920E-1
1.125819000E0,-1.596684800E-3,1.919055358E-3,1.930970252E-1,1.931131619E-1
1.135776000E0,-1.202803338E-3,-5.488963798E-4,1.956770867E-1,1.956815533E-1
1.145733000E0,-2.345157554E-3,4.362929612E-4,1.974103302E-1,1.974247415E-1
1.155690000E0,-2.062596148E-3,5.492847413E-5,1.981536150E-1,1.981643572E-1
1.165647000E0,7.613566704E-4,1.568668522E-3,1.953812540E-1,1.953890344E-1
1.175603000E0,-2.090089954E-3,-4.665190354E-4,1.899561286E-1,1.899681997E-1
1.185560000E0,2.133636735E-5,-7.685739547E-5,1.879040748E-1,1.879040917E-1
1.195517000E0,-2.393871546E-4,-1.572487876E-3,1.896625608E-1,1.896692305E-1
1.205474000E0,-2.335187513E-3,3.387276083E-4,1.917972118E-1,1.918117261E-1
1.215431000E0,-2.026793547E-3,-6.447453052E-5,1.946497262E-1,1.946602886E-1
1.225388000E0,-2.662355779E-3,-1.277695410E-3,1.935386509E-1,1.935611790E-1
1.235344000E0,-2.347303787E-3,-2.945899963E-3,1.926009506E-1,1.926377801E-1
1.245301000E0,-1.206248766E-3,1.350417733E-4,1.913883686E-1,1.913922175E-1
1.255258000E0,4.330626689E-5,-2.292785794E-4,1.875201166E-1,1.875202617E-1
1.265215000E0,-8.673605043E-4,2.416880801E-3,1.897383481E-1,1.897557229E-1
1.275172000E0,-2.178168390E-3,-4.540067166E-4,1.849542409E-1,1.849676236E-1
1.285129000E0,3.863552120E-4,1.409116201E-3,1.834500283E-1,1.834558469E-1
1.295085000E0,1.079842332E-3,1.378223300E-3,1.891819537E-1,1.891900556E-1
1.305042000E0,-1.079699723E-3,9.268997237E-4,1.905776411E-1,1.905829536E-1
1.314999000E0,1.522208680E-3,2.644106280E-3,1.922879219E-1,1.923121248E-1
1.324956000E0,-1.908083446E-3,-6.499970332E-4,1.949111521E-1,1.949215753E-1
1.334913000E0,-3.459641244E-3,2.613440156E-3,1.925673038E-1,1.926161096E-1
1.344870000E0,-1.623979304E-3,2.287199721E-3,1.899057478E-1,1.899264637E-1
1.354826000E0,-1.785633154E-3,1.484788954E-3,1.901246607E-1,1.901388432E-1
1.364783000E0,-1.850930508E-3,-2.110676840E-3,1.898716390E-1,1.898923911E-1
1.374740000E0,-2.943625674E-3,2.907784190E-3,1.911073476E-1,1.911521343E-1
1.384697000E0,1.241277554E-3,3.113914281E-4,1.919013560E-1,1.919056231E-1
1.394654000E0,-1.831743866E-3,5.247099325E-4,1.863521338E-1,1.863618747E-1
1.404611000E0,-1.289282227E-3,-1.530434005E-3,1.873923093E-1,1.874029937E-1
1.414567000E0,-2.728720428E-3,-7.450683042E-4,1.882189512E-1,1.882402046E-1
1.424524000E0,-1.095201354E-3,6.096418947E-4,1.900953203E-1,1.900994528E-1
1.434481000E0,3.943045158E-4,3.041107673E-3,1.946874112E-1,1.947115607E-1
1.444438000E0,4.146767315E-4,8.534081280E-5,1.949029416E-1,1.949034014E-1
1.454395000E0,-2.976059914E-3,-1.801243052E-3,1.935985237E-1,1.936297751E-1
1.464352000E0,-1.516758930E-4,2.567097545E-5,1.937137991E-1,1.937138602E-1
1.474308000E0,4.832216073E-4,1.610783860E-3,1.957316846E-1,1.957389089E-1
1.484265000E0,-1.513478113E-3,8.739652112E-4,1.899843663E-1,1.899924048E-1
1.494222000E0,1.579251024E-3,4.707630724E-4,1.912184656E-1,1.912255663E-1
1.504179000E0,-2.968808869E-3,1.396739855E-3,1.958099753E-1,1.958374610E-1
1.514136000E0,-3.746717935E-3,-3.550201654E-6,1.901489049E-1,1.901858143E-1
1.524093000E0,5.939661060E-4,-4.657311365E-4,1.856034547E-1,1.856049894E-1
1.534049000E0,-2.243365627E-3,-2.216226421E-3,1.846820116E-1,1.847089325E-1
1.544006000E0,-7.598022930E-4,-1.126288436E-3,1.867150962E-1,1.867200391E-1
1.553963000E0,-1.271129120E-3,1.905719750E-3,1.901351213E-1,1.901489203E-1
1.563920000E0,-3.061023075E-3,1.765497029E-3,1.908260435E-1,1.908587585E-1
1.573877000E0,-1.054331195E-3,1.088521443E-3,1.909823567E-1,1.909883689E-1
1.583834000E0,1.397144399E-3,9.918026626E-4,1.951870918E-1,1.951946119E-1
1.593790000E0,5.169697106E-4,2.697823104E-3,1.941340864E-1,1.941535191E-1
1.603747000E0,-2.218292095E-3,8.677309379E-4,1.955703795E-1,1.955848847E-1
1.613704000E0,-1.854503993E-3,2.756710630E-3,1.949788928E-1,1.950071980E-1
1.623661000E0,-1.262309495E-3,-1.242846251E-3,1.898933947E-1,1.899016573E-1
1.633618000E0,3.883177415E-4,-6.423033774E-4,1.894909889E-1,1.894924753E-1
1.643575000E0,-8.556114044E-4,-4.452047870E-4,1.897943914E-1,1.897968421E-1
1.653531000E0,-7.000828627E-4,2.900939435E-4,1.912471354E-1,1.912486368E-1
1.663488000E0,-2.889507450E-4,6.035026163E-4,1.947340965E-1,1.947352461E-1
1.673445000E0,5.661901087E-4,-3.810683265E-4,1.957106739E-1,1.957118639E-1
1.683402000E0,-1.228856156E-3,-1.755766571E-4,1.956834644E-1,1.956874016E-1
1.693359000E0,-1.251492882E-3,-1.089982688E-4,1.950171441E-1,1.950211901E-1
1.703315000E0,-2.475279849E-3,7.868790999E-4,1.924270242E-1,1.924445527E-1
1.713272000E0,-3.730161116E-3,7.290877402E-4,1.913037002E-1,1.913414523E-1
1.723229000E0,-5.034110509E-4,1.223472878E-3,1.903199106E-1,1.903245089E-1
1.733186000E0,-2.635804238E-3,9.718034416E-4,1.899553239E-1,1.899760958E-1
1.743143000E0,-6.089089438E-4,6.360029802E-4,1.923361123E-1,1.923381277E-1
1.753100000E0,-6.845428143E-4,-5.368534476E-4,1.935880631E-1,1.935900178E-1
1.763057000E0,-1.395629486E-3,-4.337914288E-5,1.916657537E-1,1.916708398E-1
1.773013000E0,4.454138689E-4,-1.991735771E-4,1.910231411E-1,1.910237643E-1
1.782970000E0,-1.500212587E-3,1.264492050E-3,1.933423579E-1,1.933523130E-1
1.792927000E0,-2.387844492E-3,3.837235272E-5,1.877838075E-1,1.877989926E-1
1.802884000E0,-1.623110846E-3,1.604463905E-3,1.848912835E-1,1.849053691E-1
1.812841000E0,-1.436955761E-3,-2.290941775E-3,1.838345379E-1,1.838544277E-1
1.822797000E0,-6.760016549E-4,6.389310583E-4,1.881001443E-1,1.881024441E-1
1.832754000E0,-3.412932158E-3,2.548683435E-3,1.912362874E-1,1.912837199E-1
1.842711000E0,-1.284805126E-3,1.146810129E-3,1.948941201E-1,1.949017289E-1
1.852668000E0,3.727460280E-4,-1.985067502E-3,1.922072619E-1,1.922178737E-1
1.862625000E0,-5.944785662E-4,6.693787873E-4,1.916495860E-1,1.916516769E-1
1.872582000E0,-5.539986305E-4,-1.594041474E-3,1.900932342E-1,1.901007248E-1
1.882537667E0,-1.193155302E-3,-1.946923323E-3,1.909342855E-1,1.909479393E-1
1.892494667E0,-1.577449730E-3,-2.890214324E-3,1.913129836E-1,1.913413165E-1
1.902451667E0,1.776627149E-3,-4.110597074E-4,1.926557869E-1,1.926644170E-1
1.912408667E0,-1.270029228E-3,-2.195111476E-3,1.933298409E-1,1.933464736E-1
1.922365667E0,7.418147288E-4,-2.138698474E-4,1.936602890E-1,1.936618279E-1
1.932322667E0,-1.831331756E-3,-8.306577802E-4,1.896868497E-1,1.896975085E-1
1.942278667E0,-1.966593089E-3,-2.684034407E-4,1.890182942E-1,1.890287150E-1
1.952235667E0,-1.183291897E-5,3.412617836E-3,1.876715422E-1,1.877025675E-1
1.962192667E0,-4.286784679E-4,2.008918673E-4,1.857183874E-1,1.857189908E-1
1.972149667E0,-1.999943517E-3,-3.453157842E-5,1.864893734E-1,1.865001002E-1
1.982106667E0,-8.742236532E-4,-3.815162927E-5,1.840810031E-1,1.840830829E-1
1.992063667E0,1.103705959E-3,-4.844982177E-4,1.892019957E-1,1.892058353E-1
2.002019667E0,-1.894875895E-3,1.416876912E-4,1.911401302E-1,1.911495749E-1
2.011976667E0,1.692668535E-3,-1.224977896E-4,1.944051683E-1,1.944125757E-1
2.021933667E0,-2.050736919E-3,1.122354530E-3,1.981220841E-1,1.981358762E-1
2.031890667E0,-1.576694194E-3,-1.750397496E-3,1.949246824E-1,1.949389178E-1
2.041847667E0,-2.457791707E-3,2.769629471E-3,1.934237480E-1,1.934591892E-1
2.051804667E0,1.010176493E-3,-2.930052578E-4,1.939816773E-1,1.939845289E-1
2.061760667E0,1.228021109E-3,1.555285417E-3,1.903547496E-1,1.903650641E-1
2.071717667E0,-2.211451530E-3,-9.060082957E-4,1.902112067E-1,1.902262193E-1
2.081674667E0,2.954527736E-5,-5.158716813E-4,1.882346272E-1,1.882353365E-1
2.091631667E0,-7.483640220E-4,-8.239988238E-4,1.880583316E-1,1.880616258E-1
2.101588667E0,-3.674887121E-4,-3.417972475E-4,1.924381852E-1,1.924388396E-1
2.111545667E0,1.124414150E-3,-1.146870665E-3,1.935535073E-1,1.935601711E-1
2.121501667E0,2.628238872E-4,1.074152999E-3,1.969069690E-1,1.969100742E-1
2.131458667E0,-2.756401896E-3,3.953129053E-4,1.935439259E-1,1.935639565E-1
2.141415667E0,7.334111724E-4,1.633978449E-3,1.905057132E-1,1.905141321E-1
2.151372667E0,-9.683489334E-4,-1.121327281E-3,1.908234358E-1,1.908291873E-1
2.161329667E0,-6.437362172E-4,2.281181514E-5,1.898882538E-1,1.898893463E-1
2.171286667E0,-3.005427308E-3,1.628939062E-4,1.882147193E-1,1.882387837E-1
2.181242667E0,-2.669090172E-3,1.724227332E-3,1.929878145E-1,1.930139725E-1
2.191199667E0,-2.344983397E-3,-1.259045675E-3,1.982219964E-1,1.982398648E-1
2.201156667E0,-1.533268951E-4,1.132463105E-3,1.976968497E-1,1.977001527E-1
2.211113667E0,-1.767468639E-3,-2.230862156E-4,1.951434016E-1,1.951515332E-1
2.221070667E0,-1.380291302E-3,1.773280092E-3,1.940169036E-1,1.940299168E-1
2.231026667E0,3.307897132E-4,-7.122568786E-5,1.909521371E-1,1.909524369E-1
2.240983667E0,-5.401920062E-4,-2.109017223E-4,1.902495623E-1,1.902504461E-1
2.250940667E0,-9.841409046E-4,2.990933135E-4,1.886346191E-1,1.886374234E-1
2.260897667E0,-3.466177732E-3,7.609836757E-4,1.882251352E-1,1.882585855E-1
2.270854667E0,-3.428094555E-3,-1.214282587E-3,1.890973151E-1,1.891322841E-1
2.280811667E0,-6.517947186E-4,-1.151100732E-3,1.940133870E-1,1.940178966E-1
2.290767667E0,1.002561068E-3,-1.832603477E-3,1.935204268E-1,1.935317006E-1
2.300724667E0,-3.093315754E-3,5.061365664E-4,1.957332343E-1,1.957583300E-1
2.310681667E0,4.233885556E-4,-1.712010242E-3,1.947025955E-1,1.947105825E-1
2.320638667E0,-2.079115948E-3,-9.610224515E-5,1.924904287E-1,1.925016808E-1
2.330595667E0,-1.036754576E-3,1.274360344E-3,1.900155544E-1,1.900226560E-1
2.340552667E0,-5.521427374E-4,1.513750292E-3,1.881419718E-1,1.881488715E-1
2.350508667E0,-2.049105708E-3,1.062610187E-3,1.893481165E-1,1.893621853E-1
2.360465667E0,-9.265390690E-4,4.186471924E-4,1.923318803E-1,1.923345677E-1
2.370422667E0,-1.730547519E-3,-2.851448953E-3,1.910990924E-1,1.911281995E-1
2.380379667E0,-8.072485216E-4,5.508121103E-4,1.957221180E-1,1.957245578E-1
2.390336667E0,-6.357408129E-4,3.296530806E-3,1.943098307E-1,1.943388319E-1
2.400293667E0,-2.818833571E-3,1.110373065E-3,1.912273020E-1,1.912513000E-1
2.410249667E0,-2.195387613E-3,-8.459845558E-4,1.901804060E-1,1.901949585E-1
2.420206667E0,1.809016918E-3,1.247234643E-3,1.881362647E-1,1.881490957E-1
2.430163667E0,-3.751929849E-3,-7.203090936E-4,1.874550283E-1,1.874939558E-1
2.440120667E0,-7.579764351E-4,-1.287367195E-4,1.865368634E-1,1.865384478E-1
2.450077667E0,-2.604979090E-4,7.013706490E-4,1.910333484E-1,1.910348136E-1
2.460034667E0,-1.920683542E-3,7.132086903E-4,1.946847737E-1,1.946955541E-1
2.469990667E0,-1.895915950E-3,-2.772212029E-4,1.970645785E-1,1.970738934E-1
2.479947667E0,-1.670623897E-3,2.034955658E-3,1.991248131E-1,1.991422186E-1
2.489904667E0,-3.313794034E-3,-1.062033698E-3,1.957948059E-1,1.958257265E-1
2.499861667E0,2.400239464E-4,-1.830533147E-4,1.894775033E-1,1.894777438E-1
2.509818667E0,-2.128059044E-3,1.332817599E-3,1.827183962E-1,1.827356488E-1
2.519774667E0,-2.871255390E-3,9.459117427E-4,1.816985905E-1,1.817237372E-1
2.529731667E0,3.764692228E-4,6.476379931E-4,1.835023463E-1,1.835038753E-1
2.539688667E0,-4.673367366E-4,1.916272566E-3,1.899454594E-1,1.899557002E-1
2.549645667E0,-3.919692244E-4,-3.263754770E-4,1.950992048E-1,1.950998715E-1
2.559602667E0,-2.378188074E-4,4.844889045E-4,1.956182271E-1,1.956189717E-1
2.569559667E0,1.236507087E-3,3.551119007E-3,1.967628598E-1,1.967987866E-1
2.579515667E0,8.664759807E-4,3.546299879E-3,1.946816295E-1,1.947158543E-1
2.589472667E0,-1.500525977E-4,1.693272032E-3,1.953543425E-1,1.953617383E-1
2.599429667E0,-1.149656251E-3,2.889461815E-3,1.905015409E-1,1.905269214E-1
2.609386667E0,-1.122491900E-3,9.477511048E-4,1.901087314E-1,1.901144076E-1
2.619343667E0,-1.797649078E-3,8.821673691E-5,1.851679832E-1,1.851767300E-1
2.629300667E0,-3.278506920E-4,1.522861421E-3,1.863890439E-1,1.863955533E-1
2.639256667E0,9.732926264E-4,2.728023566E-3,1.870131642E-1,1.870355928E-1
2.649213667E0,-5.575292744E-5,7.247934118E-4,1.893924326E-1,1.893938276E-1
2.659170667E0,9.030865040E-4,9.305905551E-4,1.858099997E-1,1.858145246E-1
2.669127667E0,1.763098408E-4,-5.322834477E-4,1.914865375E-1,1.914873584E-1
2.679084667E0,-2.507265657E-3,6.666239351E-4,1.925188452E-1,1.925363252E-1
2.689041667E0,-1.550391782E-3,2.652010415E-3,1.941649467E-1,1.941892463E-1
2.698997667E0,3.044493496E-5,5.952268839E-5,1.948320568E-1,1.948320682E-1
2.708954667E0,9.263323154E-4,2.667289693E-3,1.907614172E-1,1.907823126E-1
2.718911667E0,-2.815562300E-3,-1.316729002E-3,1.887173802E-1,1.887429753E-1
2.728868667E0,-1.135906670E-3,6.215190515E-4,1.872387826E-1,1.872432597E-1
2.738825667E0,-1.690330915E-3,9.220847860E-4,1.879148036E-1,1.879246681E-1
2.748782667E0,-2.282883972E-3,-6.553055719E-4,1.915428340E-1,1.915575586E-1
2.758738667E0,6.816072855E-4,2.582390327E-3,1.959301829E-1,1.959483858E-1
2.768695667E0,-1.139728585E-3,2.659622114E-3,1.950390786E-1,1.950605412E-1
2.778652667E0,-1.571943983E-3,-1.923628151E-4,1.938632578E-1,1.938697262E-1
2.788609667E0,-2.012430690E-3,-1.828609034E-3,1.903201789E-1,1.903396022E-1
2.798566667E0,-1.298811752E-3,-2.695148811E-3,1.877425015E-1,1.877663378E-1
2.808523667E0,-2.484607976E-4,1.768575050E-3,1.860961318E-1,1.861047013E-1
2.818479667E0,-7.235296071E-4,-1.934017986E-3,1.898990124E-1,1.899102389E-1
2.828436667E0,-1.621813979E-3,2.171510831E-3,1.943483651E-1,1.943672625E-1
2.838393667E0,-2.548963297E-3,1.685572788E-3,1.954648942E-1,1.954887803E-1
2.848350667E0,-3.094378393E-3,-3.066572361E-3,1.959226876E-1,1.959711167E-1
2.858307667E0,-1.374678686E-5,3.021544777E-3,1.936102808E-1,1.936338574E-1
2.868263667E0,-7.727476768E-4,-6.347093731E-4,1.889705211E-1,1.889731670E-1
2.878220667E0,4.542567302E-3,1.309459098E-3,1.856465787E-1,1.857067629E-1
2.888177667E0,1.262472942E-4,-4.615429789E-4,1.879083961E-1,1.879090054E-1
2.898134667E0,6.571153644E-4,-2.028616145E-4,1.886594892E-1,1.886607426E-1
2.908091667E0,-1.335772686E-4,-9.996788576E-4,1.913471371E-1,1.913497951E-1
2.918048667E0,-4.035979509E-5,4.134159535E-4,1.920892745E-1,1.920897236E-1
2.928004667E0,-1.558095450E-3,2.773283049E-4,1.949796081E-1,1.949860306E-1
2.937961667E0,-5.930708721E-4,2.131854184E-3,1.923950315E-1,1.924077562E-1
2.947918667E0,-1.883904915E-3,1.632777974E-3,1.905705035E-1,1.905868092E-1
2.957875667E0,-4.897166509E-4,1.776815392E-3,1.918754578E-1,1.918843094E-1
2.967832667E0,-4.080190323E-3,-8.333483711E-4,1.918213964E-1,1.918665956E-1
2.977789667E0,-1.605394064E-3,5.323188379E-4,1.937182695E-1,1.937256529E-1
2.987745667E0,-2.312463475E-3,-6.902310997E-5,1.948083043E-1,1.948220411E-1
2.997702667E0,1.040412346E-3,-1.032135449E-3,1.945439279E-1,1.945494478E-1
3.007659667E0,7.549214642E-4,-5.149496719E-4,1.942107677E-1,1.942129177E-1
3.017616667E0,1.553602866E-3,2.212950960E-3,1.932014823E-1,1.932204016E-1
3.027573667E0,3.306793515E-4,-1.154616475E-3,1.898064911E-1,1.898102910E-1
3.037530667E0,9.130262770E-4,-6.687426940E-4,1.914812028E-1,1.914845474E-1
3.047486667E0,-2.920594299E-3,4.178844392E-5,1.884590536E-1,1.884816875E-1
3.057443667E0,-1.981439535E-3,-6.355568767E-4,1.857382357E-1,1.857498916E-1
3.067400667E0,-2.021919470E-3,-1.280575059E-3,1.877502501E-1,1.877655039E-1
3.077357667E0,3.144240007E-3,3.476748243E-4,1.908426434E-1,1.908688598E-1
3.087314667E0,4.397998564E-4,5.261069164E-4,1.932266951E-1,1.932279118E-1
3.097271667E0,-2.031286247E-3,1.311877742E-3,1.926447302E-1,1.926599056E-1
3.107227667E0,1.599625684E-4,7.190927863E-5,1.914154142E-1,1.914154946E-1
3.117184667E0,-1.497673802E-3,-1.967195421E-4,1.867158860E-1,1.867219961E-1
3.127141667E0,-9.514591657E-4,-2.357874066E-3,1.897207350E-1,1.897377720E-1
3.137098667E0,6.819397677E-4,3.043087199E-4,1.915844828E-1,1.915859381E-1
3.147055667E0,1.038537128E-3,1.678233966E-3,1.940660030E-1,1.940760380E-1
3.157011667E0,1.818762394E-3,8.790390566E-4,1.977801472E-1,1.977904629E-1
3.166968667E0,-8.108429611E-4,4.625208676E-4,1.969910413E-1,1.969932530E-1
3.176925667E0,5.167128984E-4,9.300000966E-5,1.923586130E-1,1.923593295E-1
3.186882667E0,-1.266539562E-3,-2.596024424E-4,1.824423373E-1,1.824469182E-1
3.196839667E0,-8.909017779E-4,2.225999720E-3,1.846249551E-1,1.846405232E-1
3.206796667E0,-9.758565575E-4,-1.441173255E-3,1.874867827E-1,1.874948611E-1
3.216752667E0,1.045568846E-3,-2.433140762E-3,1.924858689E-1,1.925040860E-1
3.226709667E0,8.349127602E-4,1.941100694E-3,1.943466216E-1,1.943581084E-1
3.236666667E0,-3.376903478E-4,-6.289128214E-4,1.999178678E-1,1.999191422E-1
3.246623667E0,-7.776445709E-4,2.181787044E-3,1.975929290E-1,1.976065042E-1
3.256580667E0,-2.483835910E-3,-2.442095429E-4,1.883682311E-1,1.883847646E-1
3.266537667E0,-1.036141533E-3,1.127318479E-3,1.821396351E-1,1.821460708E-1
3.276493667E0,8.753123693E-4,1.283789985E-3,1.827296764E-1,1.827362824E-1
3.286450667E0,-1.314338529E-3,3.175949678E-4,1.904698908E-1,1.904746904E-1
3.296407667E0,-5.328375846E-5,1.580312848E-3,1.937252879E-1,1.937317408E-1
3.306364667E0,1.002925914E-3,-2.388330176E-3,1.946408749E-1,1.946581109E-1
3.316321667E0,3.736075014E-4,1.871831715E-3,1.983958930E-1,1.984050748E-1
3.326278667E0,-1.578223426E-3,-4.006428644E-4,2.013578564E-1,2.013644398E-1
3.336234667E0,4.905846436E-4,2.529132180E-3,1.968568414E-1,1.968736986E-1
3.346191667E0,2.050937619E-4,-9.284494445E-4,1.885941178E-1,1.885965146E-1
3.356148667E0,-1.007360872E-3,5.735512823E-4,1.823828965E-1,1.823865803E-1
3.366105667E0,5.109074991E-4,-3.614844754E-4,1.818238944E-1,1.818249715E-1
3.376062667E0,2.087326720E-5,1.772829331E-3,1.873238236E-1,1.873322136E-1
3.386018667E0,1.288368367E-5,-2.844825387E-3,1.895046830E-1,1.895260354E-1
3.395975667E0,-1.189127099E-3,-5.594110116E-4,1.932516843E-1,1.932561524E-1
3.405932667E0,-8.381223306E-4,-1.289383508E-3,1.987705529E-1,1.987765018E-1
3.415889667E0,-1.197823789E-3,8.237482980E-4,1.975125670E-1,1.975179169E-1
3.425846667E0,-7.695872337E-4,4.703477025E-4,1.941809505E-1,1.941830452E-1
3.435803667E0,-1.602976350E-3,-4.384964705E-4,1.889596581E-1,1.889669659E-1
3.445759667E0,-6.952835247E-5,-4.592696205E-4,1.902768612E-1,1.902774282E-1
3.455716667E0,1.005269354E-3,2.198224887E-3,1.854586303E-1,1.854743818E-1
3.465673667E0,-2.923425753E-3,-1.496111974E-3,1.885702610E-1,1.885988550E-1
3.475630667E0,-1.857384108E-3,7.509049028E-4,1.957847029E-1,1.957949530E-1
3.485587667E0,3.200164065E-4,1.129872166E-3,1.998351067E-1,1.998385571E-1
3.495544667E0,-1.747961622E-3,2.351530362E-3,2.027030885E-1,2.027242639E-1
3.505500667E0,1.894878224E-4,3.871824592E-4,1.989134103E-1,1.989138774E-1
3.515457667E0,-1.935771899E-3,-1.433646306E-3,1.925770491E-1,1.925921141E-1
3.525414667E0,-4.518588539E-4,-9.074062109E-4,1.884464920E-1,1.884492183E-1
3.535371667E0,-1.879589166E-3,2.295951359E-3,1.828806251E-1,1.829046946E-1
3.545328667E0,3.895186819E-5,2.427492291E-5,1.867528707E-1,1.867528763E-1
3.555285667E0,-2.637971193E-5,1.481287181E-3,1.877001971E-1,1.877060439E-1
3.565241667E0,-1.783000771E-3,1.991548575E-3,1.922275722E-1,1.922461570E-1
3.575198667E0,1.175900223E-3,-2.476955764E-3,1.940275580E-1,1.940469307E-1
3.585155667E0,5.337782204E-5,8.384138346E-4,1.945213079E-1,1.945231221E-1
3.595112667E0,-1.075612381E-3,-3.441311419E-4,1.898043901E-1,1.898077497E-1
3.605069667E0,-1.330477186E-3,-2.642367035E-4,1.889684200E-1,1.889732885E-1
3.615026667E0,-1.050136052E-5,1.296754926E-4,1.906110793E-1,1.906111237E-1
3.624982667E0,-2.764742821E-3,-2.550529316E-3,1.906430274E-1,1.906801324E-1
3.634939667E0,-1.854170114E-3,3.996593878E-4,1.945380569E-1,1.945473033E-1
3.644896667E0,-1.087712124E-3,1.311259344E-3,1.956938654E-1,1.957012812E-1
3.654853667E0,-1.686491072E-3,-1.753335819E-4,1.956973821E-1,1.957047275E-1
3.664810667E0,-1.851873472E-3,1.425226219E-3,1.946971118E-1,1.947111349E-1
3.674766667E0,-6.634439342E-5,1.160774380E-3,1.936406791E-1,1.936441696E-1
3.684723667E0,5.693521816E-4,2.394351177E-3,1.922188103E-1,1.922345654E-1
3.694680667E0,-9.889896028E-4,9.427852929E-4,1.883571446E-1,1.883621004E-1
3.704637667E0,4.344701301E-4,-1.431689598E-3,1.856684089E-1,1.856744370E-1
3.714594667E0,-1.110791694E-3,1.627688296E-3,1.871557236E-1,1.871660976E-1
3.724551667E0,-2.872472629E-3,1.654852182E-3,1.924471557E-1,1.924757059E-1
3.734507667E0,-6.196815521E-4,4.635301884E-3,1.952919066E-1,1.953478917E-1
3.744464667E0,-1.161102206E-3,8.331071585E-4,1.978136599E-1,1.978188218E-1
3.754421667E0,-1.552311704E-3,3.703758121E-3,1.989949495E-1,1.990354677E-1
3.764378667E0,5.611728411E-4,-1.699529588E-3,1.950388253E-1,1.950470371E-1
3.774335667E0,-1.342054224E-3,1.227939501E-4,1.875222027E-1,1.875270453E-1
3.784292667E0,-1.640860690E-3,2.707657870E-3,1.822994798E-1,1.823269705E-1
3.794248667E0,-1.708732219E-3,1.814566553E-3,1.857590377E-1,1.857757587E-1
3.804205667E0,-4.613974132E-3,2.405521460E-3,1.906227618E-1,1.906937666E-1
3.814162667E0,1.792988623E-3,1.281815581E-3,1.961794049E-1,1.961917856E-1
3.824119667E0,3.916332498E-4,-1.138998196E-3,1.962774098E-1,1.962811053E-1
3.834076667E0,1.472989563E-3,1.903277822E-3,1.912023127E-1,1.912174588E-1
3.844033667E0,-1.589112915E-3,-1.444267109E-4,1.867289990E-1,1.867358166E-1
3.853989667E0,-2.191717038E-3,1.069637947E-3,1.855235994E-1,1.855396283E-1
3.863946667E0,7.276402321E-4,1.415256411E-4,1.859097481E-1,1.859112259E-1
3.873903667E0,-1.888799015E-3,3.467397764E-4,1.901523471E-1,1.901620438E-1
3.883861250E0,-2.712514717E-3,-3.336984664E-4,1.937180459E-1,1.937373232E-1
3.893818250E0,-4.111810122E-4,-1.468247734E-3,1.963519305E-1,1.963578504E-1
3.903775250E0,-2.314178273E-4,-5.238903686E-4,1.964978725E-1,1.964987071E-1
3.913731250E0,-1.936994959E-4,-6.630159914E-4,1.931295395E-1,1.931307747E-1
3.923688250E0,-2.431820147E-3,-8.225394413E-4,1.890911162E-1,1.891085417E-1
3.933645250E0,1.143048285E-3,-2.068325877E-3,1.859451234E-1,1.859601394E-1
3.943602250E0,-1.027161721E-3,2.241237089E-4,1.879667342E-1,1.879696743E-1
3.953559250E0,1.073897118E-3,5.978308618E-4,1.919067651E-1,1.919107010E-1
3.963516250E0,1.325565856E-3,8.167428896E-4,1.955707371E-1,1.955769348E-1
3.973472250E0,-3.309821477E-3,5.294084549E-4,1.936192960E-1,1.936483074E-1
3.983429250E0,-2.865073504E-3,1.292403787E-3,1.905457377E-1,1.905716588E-1
3.993386250E0,1.807783265E-4,1.228031702E-3,1.871059537E-1,1.871100709E-1
4.003343250E0,-1.493018586E-3,-1.776813529E-3,1.880500466E-1,1.880643671E-1
4.013300250E0,1.914730412E-3,3.046877682E-4,1.925982535E-1,1.926080120E-1
4.023256250E0,4.404042847E-4,-1.435155049E-3,1.957692802E-1,1.957750359E-1
4.033213250E0,-1.180002000E-4,1.471308060E-3,1.978773773E-1,1.978828823E-1
4.043170250E0,2.062862273E-3,1.595677808E-3,1.932860911E-1,1.933036849E-1
4.053127250E0,-2.824305557E-4,2.476120368E-3,1.847645640E-1,1.847813710E-1
4.063084250E0,-4.159193952E-3,-1.500230283E-4,1.800675541E-1,1.801156446E-1
4.073041250E0,-3.150452394E-4,2.209914848E-3,1.842820495E-1,1.842955690E-1
4.082997250E0,-2.402104437E-4,-2.408272587E-3,1.854716837E-1,1.854874738E-1
4.092954250E0,1.101066126E-3,1.905406825E-3,1.915831417E-1,1.915957805E-1
4.102911250E0,-2.624979243E-5,-1.155364327E-3,1.938542873E-1,1.938577320E-1
4.112868250E0,-2.215962159E-3,3.233294468E-3,2.004119158E-1,2.004502449E-1
4.122825250E0,-3.773378907E-3,5.725305527E-4,2.004830241E-1,2.005193485E-1
4.132782250E0,-3.702353220E-3,8.793519810E-4,1.960337162E-1,1.960706469E-1
4.142738250E0,-1.080737449E-3,1.136879437E-3,1.864476651E-1,1.864542633E-1
4.152695250E0,-2.498317044E-3,9.300196543E-4,1.786634475E-1,1.786833344E-1
4.162652250E0,-4.196614958E-3,8.192313835E-4,1.786477417E-1,1.786989041E-1
4.172609250E0,-3.988670651E-4,-2.343733795E-3,1.862117201E-1,1.862268963E-1
4.182566250E0,-1.775454963E-3,4.235571250E-4,1.914443076E-1,1.914530087E-1
4.192523250E0,1.368217403E-3,4.136273637E-4,1.935098767E-1,1.935151557E-1
4.202479250E0,1.349074300E-4,-1.015957445E-3,1.964422911E-1,1.964449646E-1
4.212436250E0,8.427510038E-4,-5.484949797E-4,1.965577751E-1,1.965603471E-1
4.222393250E0,-1.343970653E-3,7.505947724E-4,1.916863322E-1,1.916925132E-1
4.232350250E0,2.252362203E-3,-1.701544970E-4,1.884085089E-1,1.884220484E-1
4.242307250E0,-1.208682079E-3,-2.354020253E-4,1.879299432E-1,1.879339774E-1
4.252263250E0,-2.250162652E-3,1.480698586E-3,1.904895008E-1,1.905085447E-1
4.262220250E0,-5.012645852E-4,2.609346062E-3,1.919627637E-1,1.919811516E-1
4.272177250E0,1.926521654E-3,1.235626638E-3,1.933133006E-1,1.933268488E-1
4.282134250E0,-1.918283990E-3,-4.155328497E-4,1.956139952E-1,1.956238421E-1
4.292091250E0,-1.631881809E-3,-9.624203667E-4,1.905371398E-1,1.905465584E-1
4.302048250E0,-1.828157110E-3,-2.542855218E-4,1.882241815E-1,1.882332312E-1
4.312004250E0,8.199783042E-4,3.848308697E-4,1.881355792E-1,1.881377597E-1
4.321961250E0,-3.424915485E-4,3.261577804E-3,1.899755597E-1,1.900038644E-1
4.331918250E0,-2.910819603E-3,2.435241360E-3,1.880746186E-1,1.881129061E-1
4.341875250E0,-2.480985364E-3,9.577199817E-4,1.891220361E-1,1.891407335E-1
4.351832250E0,7.595801726E-4,-1.261383295E-4,1.883469969E-1,1.883485708E-1
4.361789250E0,-1.007693587E-3,-1.671509817E-4,1.951151639E-1,1.951178377E-1
4.371745250E0,-2.538624685E-4,8.269958198E-5,1.956055015E-1,1.956056837E-1
4.381702250E0,-1.847498119E-3,-1.460868865E-3,1.933154613E-1,1.933298088E-1
4.391659250E0,-1.274881884E-3,2.338987309E-3,1.912058145E-1,1.912243700E-1
4.401616250E0,-2.218706068E-3,5.813008174E-4,1.902167201E-1,1.902305474E-1
4.411573250E0,5.848230794E-4,-1.199283637E-3,1.895238906E-1,1.895285873E-1
4.421530250E0,1.332638785E-3,-2.216611989E-3,1.880522221E-1,1.880700070E-1
4.431486250E0,-1.174726058E-3,2.577198669E-3,1.879380196E-1,1.879593604E-1
4.441443250E0,-2.663219348E-4,2.226978540E-4,1.908033192E-1,1.908036350E-1
4.451400250E0,8.092960343E-6,9.319940582E-4,1.889537871E-1,1.889560857E-1
4.461357250E0,-2.081557177E-4,-6.962101907E-5,1.872991621E-1,1.872992908E-1
4.471314250E0,1.269140281E-3,2.424996346E-4,1.854431629E-1,1.854476643E-1
4.481271250E0,-1.714132959E-3,8.191075176E-5,1.847230494E-1,1.847310205E-1
4.491227250E0,-6.158300675E-4,2.541290596E-4,1.802694649E-1,1.802706959E-1
4.501184250E0,3.423753660E-4,2.645151690E-4,1.844596714E-1,1.844601788E-1
4.511141250E0,-4.908000119E-4,2.611545380E-3,1.878561676E-1,1.878749604E-1
4.521098250E0,-1.768051647E-3,4.429332912E-4,1.906285137E-1,1.906372273E-1
4.531055250E0,-9.559011087E-4,-2.090223134E-4,1.958766580E-1,1.958791019E-1
4.541012250E0,-1.771925017E-4,-1.331811771E-3,1.965949237E-1,1.965995146E-1
4.550968250E0,-9.500342421E-4,-2.469466999E-3,1.950157136E-1,1.950336622E-1
4.560925250E0,1.069440739E-3,7.281908765E-4,1.903149635E-1,1.903193613E-1
4.570882250E0,-1.223479863E-3,-1.502066851E-3,1.882285476E-1,1.882385169E-1
4.580839250E0,-1.095381565E-3,-2.436037175E-3,1.867603511E-1,1.867794498E-1
4.590796250E0,-8.647588547E-4,7.104817778E-4,1.885219663E-1,1.885252884E-1
4.600753250E0,-1.579817617E-3,-3.742240369E-4,1.935976893E-1,1.936044967E-1
4.610709250E0,7.329673972E-4,-2.937475219E-4,1.947021782E-1,1.947037795E-1
4.620666250E0,1.656818087E-3,-1.552357338E-3,1.915311515E-1,1.915446080E-1
4.630623250E0,-1.383699942E-3,-1.366480254E-3,1.888590753E-1,1.888690875E-1
4.640580250E0,1.074038446E-4,1.774718054E-3,1.910183579E-1,1.910266322E-1
4.650537250E0,-2.869245596E-3,1.750242896E-3,1.889209598E-1,1.889508534E-1
4.660493250E0,-2.367506269E-3,-1.498281024E-3,1.907465607E-1,1.907671364E-1
4.670450250E0,-6.469425280E-4,4.657423124E-4,1.904291213E-1,1.904307897E-1
4.680407250E0,1.152544282E-4,1.573084854E-3,1.896346956E-1,1.896412552E-1
4.690364250E0,1.013444038E-3,1.871352084E-3,1.932972968E-1,1.933090116E-1
4.700321250E0,-2.390874550E-3,-1.854076982E-4,1.923287064E-1,1.923436559E-1
4.710278250E0,1.065896126E-3,-2.733115107E-4,1.906166375E-1,1.906198135E-1
4.720234250E0,-3.429519944E-3,1.458693296E-4,1.878669262E-1,1.878982832E-1
4.730191250E0,1.012020744E-3,6.608692929E-4,1.896045804E-1,1.896084329E-1
4.740148250E0,-8.921395056E-4,4.225168377E-4,1.892357320E-1,1.892383066E-1
4.750105250E0,-1.065456774E-3,2.065787092E-3,1.945070177E-1,1.945209054E-1
4.760062250E0,-1.234833617E-3,1.169366762E-3,1.955344677E-1,1.955418633E-1
4.770019250E0,-1.729025971E-3,-6.126808003E-4,1.921914965E-1,1.922002503E-1
4.779975250E0,-2.341819461E-3,5.244882777E-4,1.868752986E-1,1.868907072E-1
4.789932250E0,-1.956931781E-3,1.464876346E-3,1.857958436E-1,1.858119236E-1
4.799889250E0,-3.830731846E-3,-1.098949462E-3,1.868896037E-1,1.869320898E-1
4.809846250E0,-8.015544154E-5,8.463328704E-4,1.909481734E-1,1.909500658E-1
4.819803250E0,1.888453146E-3,5.097091198E-4,1.950579584E-1,1.950677656E-1
4.829760250E0,-6.877833512E-4,5.274107680E-4,1.941108108E-1,1.941127457E-1
4.839716250E0,7.254909724E-5,6.989184767E-4,1.964256316E-1,1.964268885E-1
4.849673250E0,1.247969922E-4,5.690753460E-4,1.949203014E-1,1.949211721E-1
4.859630250E0,8.478453383E-4,-9.378604591E-5,1.931250691E-1,1.931269530E-1
4.869587250E0,-1.138856634E-3,2.190163359E-3,1.916435808E-1,1.916594789E-1
4.879544250E0,9.727638680E-4,-2.666022629E-4,1.907005608E-1,1.907032282E-1
4.889501125E0,-4.867436364E-4,3.895070404E-4,1.914103329E-1,1.914113481E-1
4.899457125E0,-6.409408525E-4,1.051302999E-3,1.934292763E-1,1.934331952E-1
4.909414125E0,-6.345312577E-4,-1.240633428E-4,1.900732815E-1,1.900743812E-1
4.919371125E0,-1.485944027E-3,-2.819886431E-4,1.890290529E-1,1.890351035E-1
4.929328125E0,-8.225929923E-4,1.288727857E-3,1.923224181E-1,1.923284950E-1
4.939285125E0,2.266925294E-4,-1.035679132E-3,1.935733110E-1,1.935762143E-1
4.949242125E0,3.194150049E-4,1.474932767E-3,1.912636161E-1,1.912695697E-1
4.959198125E0,9.644324891E-4,8.791834116E-4,1.920303404E-1,1.920347748E-1
4.969155125E0,1.361032482E-3,1.931045204E-3,1.975255758E-1,1.975397034E-1
4.979112125E0,-2.222168259E-4,1.342110336E-4,1.957079619E-1,1.957081341E-1
4.989069125E0,1.288233092E-3,5.004461855E-5,1.973635554E-1,1.973677660E-1
4.999026125E0,2.088512760E-3,-4.069535062E-4,1.933509707E-1,1.933626784E-1
5.008983125E0,-8.039195091E-4,6.640795618E-4,1.903405041E-1,1.903433602E-1
5.018939125E0,-1.588486601E-3,-3.790808842E-4,1.894230396E-1,1.894300792E-1
5.028896125E0,-1.717100386E-4,1.300151460E-3,1.907836199E-1,1.907881272E-1
5.038853125E0,3.638516646E-4,2.985363826E-4,1.920529008E-1,1.920534775E-1
5.048810125E0,-5.460195243E-4,1.462593675E-3,1.934646666E-1,1.934709656E-1
5.058767125E0,-4.173889756E-4,-2.006173134E-3,1.965880245E-1,1.965987038E-1
5.068723125E0,1.190707553E-4,7.043359801E-4,1.939751804E-1,1.939764957E-1
5.078680125E0,-1.423165668E-3,-1.251489855E-3,1.856906265E-1,1.857002972E-1
5.088637125E0,-8.512777276E-4,-2.267787233E-3,1.837822348E-1,1.837981974E-1
5.098594125E0,-8.954862133E-4,8.931187913E-4,1.857990474E-1,1.858033518E-1
5.108551125E0,1.423423411E-3,-6.517805159E-4,1.881071776E-1,1.881136923E-1
5.118508125E0,1.032737782E-3,-9.039817378E-4,1.933013946E-1,1.933062670E-1
5.128464125E0,3.508936381E-3,-9.390311316E-4,1.917784214E-1,1.918128185E-1
5.138421125E0,2.656458411E-3,-6.402237341E-4,1.951518357E-1,1.951709651E-1
5.148378125E0,1.039974391E-3,-1.340221614E-3,1.953541636E-1,1.953615290E-1
5.158335125E0,-2.079119906E-3,3.772508353E-4,1.940742582E-1,1.940857613E-1
5.168292125E0,2.255541040E-3,8.686259389E-4,1.955202520E-1,1.955351910E-1
5.178249125E0,4.975884221E-4,4.800707102E-4,1.980100423E-1,1.980112495E-1
5.188205125E0,7.390603423E-5,-1.525087282E-4,1.932065636E-1,1.932066379E-1
5.198162125E0,-1.641702605E-3,-1.649471931E-3,1.860413253E-1,1.860558805E-1
5.208119125E0,3.887070343E-4,-1.720078290E-4,1.850093603E-1,1.850098486E-1
5.218076125E0,1.215618569E-3,1.153714024E-3,1.842642128E-1,1.842718343E-1
5.228033125E0,-2.708595246E-3,-1.128754579E-3,1.866223961E-1,1.866454642E-1
5.237990125E0,-2.170370426E-3,-1.392140985E-3,1.898887604E-1,1.899062661E-1
5.247946125E0,-9.464444593E-4,8.102487773E-4,1.915659010E-1,1.915699525E-1
5.257903125E0,-2.729430795E-3,2.041133121E-4,1.940098703E-1,1.940291762E-1
5.267860125E0,-1.554151066E-3,-1.137793064E-3,1.958795935E-1,1.958890633E-1
5.277817125E0,5.306652747E-5,2.137895674E-3,1.932300180E-1,1.932418518E-1
5.287774125E0,-4.362671170E-4,7.372256368E-5,1.919775158E-1,1.919780257E-1
5.297731125E0,-1.230953960E-3,-2.274801955E-4,1.846586168E-1,1.846628597E-1
5.307687125E0,3.834173549E-4,-6.271312013E-4,1.843694746E-1,1.843709399E-1
5.317644125E0,-2.363367006E-3,-1.137925312E-3,1.881263852E-1,1.881446709E-1
5.327601125E0,-2.212359104E-3,-1.109178178E-3,1.867549568E-1,1.867713541E-1
5.337558125E0,-1.082646195E-3,-6.798766553E-4,1.936693192E-1,1.936735386E-1
5.347515125E0,-1.048744656E-3,-3.978144377E-5,1.957684755E-1,1.957712887E-1
5.357472125E0,-1.919864677E-3,3.318861127E-5,1.948358417E-1,1.948453032E-1
5.367428125E0,-3.692111932E-5,-2.170345746E-3,1.967949420E-1,1.968069129E-1
5.377385125E0,-2.072375035E-3,-1.594304107E-3,1.969549954E-1,1.969723502E-1
5.387342125E0,-8.075700607E-4,2.337425016E-3,1.979795396E-1,1.979949844E-1
5.397299125E0,-1.673097489E-3,2.227436751E-3,1.978405118E-1,1.978601244E-1
5.407256125E0,-7.265275344E-4,1.680810936E-3,1.947973073E-1,1.948059134E-1
5.417213125E0,-1.059422269E-3,3.875801340E-4,1.873942614E-1,1.873976568E-1
5.427169125E0,-8.969693445E-4,3.859149292E-4,1.830881238E-1,1.830907277E-1
5.437126125E0,-1.410160679E-3,1.759572886E-3,1.865869761E-1,1.866006010E-1
5.447083125E0,3.752089106E-5,1.082113944E-3,1.903884858E-1,1.903915647E-1
5.457040125E0,9.059777949E-4,1.372664236E-3,1.948098540E-1,1.948167966E-1
5.466997125E0,5.669293460E-4,-1.275653951E-3,1.951996684E-1,1.952046599E-1
5.476954125E0,2.550185658E-3,-1.344096847E-3,1.941242814E-1,1.941456842E-1
5.486910125E0,1.134565100E-3,5.672350526E-4,1.908857524E-1,1.908899669E-1
5.496867125E0,-1.012208872E-3,-1.825882122E-3,1.880992800E-1,1.881108650E-1
5.506824125E0,-1.402889844E-3,4.633255303E-4,1.937784851E-1,1.937841171E-1
5.516781125E0,-3.626096528E-3,-5.923211575E-6,1.941161603E-1,1.941500252E-1
5.526738125E0,7.735737599E-4,-2.464447170E-3,1.957507133E-1,1.957677545E-1
5.536695125E0,2.292236313E-4,9.848792106E-4,1.927770227E-1,1.927796748E-1
5.546651125E0,1.226051012E-3,9.710248560E-4,1.892910004E-1,1.892974614E-1
5.556608125E0,1.759666484E-4,-2.484693192E-3,1.889706254E-1,1.889870417E-1
5.566565125E0,-1.007319428E-3,1.724208705E-3,1.923785210E-1,1.923888846E-1
5.576522125E0,-4.395334981E-4,-2.209637314E-4,1.909513324E-1,1.909519662E-1
5.586479125E0,2.313732868E-3,1.897062175E-3,1.949531287E-1,1.949760872E-1
5.596436125E0,1.519311918E-3,-6.981883198E-4,1.928204596E-1,1.928277092E-1
5.606392125E0,-2.522161230E-4,3.276262432E-4,1.884514987E-1,1.884519523E-1
5.616349125E0,-1.678605098E-3,9.406637400E-5,1.891734898E-1,1.891809605E-1
5.626306125E0,2.617751714E-3,-1.359523274E-3,1.923136711E-1,1.923362915E-1
5.636263125E0,-2.679808531E-3,-1.230892725E-3,1.898153424E-1,1.898382488E-1
5.646220125E0,-1.834219089E-3,5.105603486E-4,1.913289875E-1,1.913384605E-1
5.656177125E0,-2.541554859E-3,-1.321162097E-3,1.921889186E-1,1.922102635E-1
5.666133125E0,-5.998951383E-5,2.323181834E-3,1.928597540E-1,1.928737553E-1
5.676090125E0,-1.329518389E-3,-1.555179246E-3,1.916328371E-1,1.916437592E-1
5.686047125E0,-9.809699841E-4,1.766839996E-3,1.920087039E-1,1.920193387E-1
5.696004125E0,-5.761692300E-4,1.350854523E-3,1.921290755E-1,1.921346883E-1
5.705961125E0,-2.305336529E-3,5.459142849E-4,1.889175475E-1,1.889324015E-1
5.715918125E0,-1.234213123E-3,3.725010902E-5,1.913807094E-1,1.913846927E-1
5.725874125E0,3.114112187E-4,-2.057803795E-4,1.926305890E-1,1.926309506E-1
5.735831125E0,-5.160328001E-4,-6.830189377E-4,1.961915046E-1,1.961933722E-1
5.745788125E0,6.711606402E-4,1.137387007E-4,1.958727241E-1,1.958739069E-1
5.755745125E0,-1.292654313E-3,8.114874363E-4,1.937653720E-1,1.937713830E-1
5.765702125E0,-1.233385410E-3,2.256260253E-3,1.906034052E-1,1.906207492E-1
5.775659125E0,-7.273848169E-4,1.068224199E-3,1.892268062E-1,1.892312193E-1
5.785615125E0,-1.675935928E-3,2.789851278E-4,1.906936765E-1,1.907012450E-1
5.795572125E0,-2.167821862E-3,1.455303282E-3,1.904252321E-1,1.904431316E-1
5.805529125E0,-8.620133158E-4,9.748637676E-4,1.925594211E-1,1.925638182E-1
5.815486125E0,-3.035685280E-3,-4.318179563E-4,1.916419566E-1,1.916664847E-1
5.825443125E0,-1.779517159E-3,-3.104461357E-4,1.922655255E-1,1.922740111E-1
5.835399125E0,-1.676985063E-3,1.005954109E-3,1.896015555E-1,1.896116401E-1
5.845356125E0,2.832653467E-3,1.781012863E-3,1.914860010E-1,1.915152331E-1
5.855313125E0,-3.702743910E-3,-7.726922631E-4,1.905211359E-1,1.905586802E-1
5.865270125E0,5.749794655E-4,-8.207699284E-4,1.879402548E-1,1.879429266E-1
5.875227125E0,-3.218160942E-3,9.092194960E-4,1.866006851E-1,1.866306484E-1
5.885184625E0,7.916148752E-5,-1.737759449E-3,1.886716038E-1,1.886796231E-1
5.895141625E0,-2.513425890E-3,1.491589472E-3,1.891943812E-1,1.892169549E-1
5.905097625E0,1.221627928E-3,-1.866643317E-3,1.913425028E-1,1.913555072E-1
5.915054625E0,-9.608326945E-4,-5.941847339E-4,1.916410327E-1,1.916443625E-1
5.925011625E0,-1.977435313E-4,-5.422905087E-4,1.938715577E-1,1.938724170E-1
5.934968625E0,4.243708681E-4,-4.040729254E-4,1.873361617E-1,1.873370782E-1
5.944925625E0,-1.261413563E-3,2.050649840E-3,1.866460145E-1,1.866615414E-1
5.954881625E0,-2.102706116E-3,1.394446939E-3,1.882391125E-1,1.882560207E-1
5.964838625E0,2.275014762E-3,1.069791615E-3,1.933480948E-1,1.933644381E-1
5.974795625E0,-5.362182856E-4,-1.106810756E-3,1.993306279E-1,1.993344220E-1
5.984752625E0,4.914405290E-4,2.380115911E-4,2.001796365E-1,2.001803812E-1
5.994709625E0,9.585591033E-4,1.319255680E-3,1.925203800E-1,1.925272864E-1
6.004666625E0,1.358799636E-5,7.290653884E-4,1.866190583E-1,1.866204829E-1
6.014622625E0,-3.707061987E-4,-3.902614117E-4,1.848911941E-1,1.848919776E-1
6.024579625E0,3.344665747E-4,-6.202775985E-4,1.846023202E-1,1.846036653E-1
6.034536625E0,-2.211248968E-3,6.146300584E-4,1.914117634E-1,1.914255223E-1
6.044493625E0,7.153698243E-4,1.342308708E-3,1.965398192E-1,1.965457048E-1
6.054450625E0,5.286822561E-4,-8.673164994E-4,1.960798949E-1,1.960825258E-1
6.064407625E0,2.265564632E-3,-6.829556078E-4,1.965182871E-1,1.965325326E-1
6.074363625E0,1.310555032E-3,-1.455538906E-3,1.961499751E-1,1.961597534E-1
6.084320625E0,4.763226025E-5,-3.278441727E-4,1.901832074E-1,1.901834959E-1
6.094277625E0,1.662839670E-3,-1.998338848E-5,1.842267811E-1,1.842342865E-1
6.104234625E0,-2.706875093E-4,1.986572053E-3,1.842896193E-1,1.843005250E-1
6.114191625E0,-1.347669866E-3,-7.913708687E-4,1.905818731E-1,1.905882809E-1
6.124148625E0,6.198517513E-4,8.579827845E-4,1.912233829E-1,1.912263124E-1
6.134104625E0,-1.794037409E-3,7.434664294E-4,1.954713911E-1,1.954810376E-1
6.144061625E0,-2.428631298E-3,3.066624049E-3,1.944713891E-1,1.945107287E-1
6.154018625E0,-3.652139567E-4,-1.022713259E-4,1.946266443E-1,1.946270138E-1
6.163975625E0,-1.923294738E-3,2.778163180E-3,1.889358163E-1,1.889660285E-1
6.173932625E0,-1.577616204E-3,-3.611715510E-4,1.834161431E-1,1.834232833E-1
6.183889625E0,4.460536875E-4,9.971801192E-4,1.848275810E-1,1.848308093E-1
6.193845625E0,-1.345987432E-3,-1.056383364E-3,1.855969727E-1,1.856048596E-1
6.203802625E0,9.061349556E-5,-4.623681307E-4,1.949712634E-1,1.949718327E-1
6.213759625E0,-2.294513863E-3,-1.074628904E-3,1.952756643E-1,1.952921010E-1
6.223716625E0,-1.367993187E-3,-1.349708997E-3,1.962595284E-1,1.962689369E-1
6.233673625E0,-4.317177925E-3,-8.644815534E-4,1.965543330E-1,1.966036398E-1
6.243630625E0,-7.138517685E-4,2.749245614E-4,1.942141950E-1,1.942157015E-1
6.253586625E0,1.613218337E-3,-6.108433008E-4,1.941047460E-1,1.941124108E-1
6.263543625E0,7.564732805E-4,1.650118269E-3,1.940990537E-1,1.941075419E-1
6.273500625E0,-1.251816284E-3,2.231961116E-4,1.898731440E-1,1.898774017E-1
6.283457625E0,5.024988204E-4,1.634805463E-3,1.861892194E-1,1.861970744E-1
6.293414625E0,-8.301471826E-4,7.823277265E-4,1.867908239E-1,1.867943069E-1
6.303371625E0,-1.158905216E-4,-1.491223462E-3,1.924766749E-1,1.924824864E-1
6.313327625E0,1.398382708E-3,-3.021219745E-4,1.921949238E-1,1.922002484E-1
6.323284625E0,1.510723960E-4,-4.440238699E-4,1.908771396E-1,1.908777158E-1
6.333241625E0,-1.395158935E-3,-6.501525640E-4,1.880169064E-1,1.880232067E-1
6.343198625E0,6.697059143E-4,2.240723465E-3,1.827805489E-1,1.827955098E-1
6.353155625E0,-1.718084328E-3,1.144566573E-3,1.855028421E-1,1.855143290E-1
6.363112625E0,4.918230698E-4,-6.669154391E-4,1.907898188E-1,1.907916183E-1
6.373068625E0,-9.151250124E-4,-4.290957004E-4,1.892331988E-1,1.892358980E-1
6.383025625E0,1.083376352E-3,4.826001823E-4,1.915637255E-1,1.915673968E-1
6.392982625E0,-1.098018838E-3,1.513035968E-4,1.898089647E-1,1.898122010E-1
6.402939625E0,2.296817023E-3,-3.369841725E-4,1.908348352E-1,1.908489540E-1
6.412896625E0,-6.422474980E-4,-2.717366442E-4,1.902992725E-1,1.903005503E-1
6.422853625E0,-1.344072167E-3,2.230045386E-3,1.937675327E-1,1.937850262E-1
6.432810625E0,-8.511207998E-4,-1.556437463E-3,1.909009069E-1,1.909091490E-1
6.442766625E0,-1.864231192E-3,1.330802217E-3,1.898299009E-1,1.898437190E-1
6.452723625E0,-1.873019617E-3,-1.114779152E-3,1.886610389E-1,1.886736296E-1
6.462680625E0,-2.015759237E-4,-5.236826837E-4,1.879985332E-1,1.879993707E-1
6.472637625E0,-2.123579383E-3,-5.058394745E-4,1.936103404E-1,1.936226468E-1
6.482594625E0,-8.226607461E-4,-1.761922613E-3,1.950636953E-1,1.950733871E-1
6.492551625E0,2.878771629E-4,2.401929814E-3,1.988256723E-1,1.988403885E-1
6.502507625E0,1.473602839E-3,2.312958241E-4,1.963276863E-1,1.963333528E-1
6.512464625E0,-6.103208289E-4,1.596165821E-3,1.939966232E-1,1.940041495E-1
6.522421625E0,-5.192197859E-4,-6.209760904E-4,1.894115359E-1,1.894132654E-1
6.532378625E0,6.374646910E-5,-1.508607529E-3,1.878650337E-1,1.878711017E-1
6.542335625E0,-1.109954901E-3,-1.650398597E-3,1.850983351E-1,1.851090206E-1
6.552292625E0,8.024610579E-4,-1.347064972E-3,1.865921021E-1,1.865986899E-1
6.562248625E0,1.499326434E-3,1.169865951E-3,1.884796023E-1,1.884891961E-1
6.572205625E0,-3.053879831E-3,1.651631668E-3,1.917286515E-1,1.917600842E-1
6.582162625E0,4.300472792E-4,1.807331108E-3,1.954445988E-1,1.954534282E-1
6.592119625E0,-1.219248399E-3,-6.712730974E-4,1.970153302E-1,1.970202464E-1
6.602076625E0,2.268267330E-3,-9.797383100E-4,1.949518770E-1,1.949675339E-1
6.612033625E0,4.234956577E-4,-3.962395713E-4,1.867978126E-1,1.867987129E-1
6.621989625E0,-4.368100781E-4,1.506134868E-4,1.836600155E-1,1.836605967E-1
6.631946625E0,-8.219031151E-4,-2.448098734E-3,1.832144707E-1,1.832326690E-1
6.641903625E0,-1.903283643E-3,-1.850061119E-3,1.850431412E-1,1.850621769E-1
6.651860625E0,-9.072616231E-4,2.959147096E-4,1.905140728E-1,1.905164628E-1
6.661817625E0,1.958997454E-4,1.261308789E-4,1.956776977E-1,1.956778364E-1
6.671774625E0,-1.125294715E-3,6.925854832E-4,1.990830749E-1,1.990874599E-1
6.681730625E0,5.888885353E-4,1.141452231E-3,1.981039941E-1,1.981081578E-1
6.691687625E0,-3.261738457E-4,-9.099803865E-4,1.934959292E-1,1.934983439E-1
6.701644625E0,-9.124130011E-4,-3.521488979E-4,1.855399758E-1,1.855425534E-1
6.711601625E0,-2.976363059E-3,3.187824041E-5,1.823431104E-1,1.823674030E-1
6.721558625E0,-7.251836360E-4,2.343263477E-4,1.848768890E-1,1.848784598E-1
6.731515625E0,3.099869937E-4,-5.158856511E-4,1.864721328E-1,1.864731041E-1
6.741471625E0,3.631503088E-3,-7.951213047E-4,1.914863139E-1,1.915223968E-1
6.751428625E0,-1.464574598E-4,-8.366666734E-4,1.982427537E-1,1.982445734E-1
6.761385625E0,-1.390758902E-3,-1.108118333E-3,1.997170150E-1,1.997249314E-1
6.771342625E0,1.732063480E-3,-1.103856601E-3,1.977918148E-1,1.978024786E-1
6.781299625E0,-2.286315430E-4,-2.802684903E-4,1.862600595E-1,1.862604107E-1
6.791256625E0,1.007607672E-3,7.008397952E-4,1.792969555E-1,1.793011564E-1
6.801212625E0,-7.844315842E-4,2.271541394E-3,1.824032962E-1,1.824191265E-1
6.811169625E0,6.518112496E-4,-7.069380954E-4,1.828408539E-1,1.828433824E-1
6.821126625E0,-2.749760170E-3,-1.877206378E-3,1.886615753E-1,1.886909513E-1
6.831083625E0,9.128851816E-4,-3.030430526E-5,1.910770535E-1,1.910792366E-1
6.841040625E0,-3.309741616E-3,-1.220296137E-3,1.956410855E-1,1.956728848E-1
6.850997625E0,1.231214032E-3,-5.731480196E-4,1.957827657E-1,1.957874760E-1
6.860953625E0,-2.157608746E-3,2.852801699E-3,1.952671111E-1,1.952998679E-1
6.870910625E0,8.714708965E-4,3.188038245E-4,1.972181201E-1,1.972203032E-1
6.880867625E0,1.342064235E-3,-1.418739557E-3,1.970770508E-1,1.970867269E-1
6.890824417E0,1.148718642E-3,3.346856683E-4,1.996880174E-1,1.996916019E-1
6.900781417E0,2.800927032E-3,1.137442887E-4,1.937270910E-1,1.937473713E-1
6.910738417E0,-2.838121727E-4,-1.374696381E-3,1.824201047E-1,1.824255052E-1
6.920694417E0,-1.038945280E-3,-6.623985246E-4,1.782182157E-1,1.782224750E-1
6.930651417E0,-1.308075152E-4,-1.156681217E-3,1.834563911E-1,1.834600841E-1
6.940608417E0,-2.691023983E-3,6.346032023E-4,1.886894256E-1,1.887096809E-1
6.950565417E0,-2.108220942E-4,-8.816830814E-6,1.886390895E-1,1.886392075E-1
6.960522417E0,7.143032271E-4,-2.836854197E-3,1.936487854E-1,1.936708807E-1
6.970479417E0,-1.656442881E-3,6.233910099E-4,1.925872415E-1,1.925953738E-1
6.980436417E0,2.005137503E-6,1.898421906E-3,1.929230988E-1,1.929324391E-1
6.990392417E0,-9.418190457E-4,-2.860113978E-3,1.944528222E-1,1.944761357E-1
7.000349417E0,-1.547196647E-3,1.419220120E-3,1.971620768E-1,1.971732551E-1
7.010306417E0,-4.371909890E-4,2.115636598E-3,1.975849867E-1,1.975967966E-1
7.020263417E0,-1.738566440E-3,-1.553334296E-4,1.923582107E-1,1.923661300E-1
7.030220417E0,-4.610479809E-4,-5.252463743E-4,1.883216649E-1,1.883229618E-1
7.040177417E0,1.198942773E-4,-1.038810238E-3,1.817865223E-1,1.817895299E-1
7.050133417E0,-6.622760557E-4,-4.353374243E-4,1.842193156E-1,1.842210205E-1
7.060090417E0,3.095087595E-4,1.051769592E-3,1.890399754E-1,1.890431546E-1
7.070047417E0,-6.519816816E-5,-7.378747687E-4,1.917263120E-1,1.917277430E-1
7.080004417E0,8.944545407E-4,1.365210861E-3,1.937634051E-1,1.937702789E-1
7.089961417E0,2.099002246E-3,-9.618587792E-4,1.950592995E-1,1.950729640E-1
7.099918417E0,-2.236172790E-3,6.418190897E-4,1.947892904E-1,1.948031829E-1
7.109874417E0,1.453637145E-3,-2.241851762E-3,1.892437935E-1,1.892626544E-1
7.119831417E0,-9.054709226E-4,-7.521072403E-4,1.853199899E-1,1.853237281E-1
7.129788417E0,-4.138282500E-3,4.886593670E-4,1.837261021E-1,1.837733516E-1
7.139745417E0,-7.311606314E-4,-5.696630105E-4,1.883733422E-1,1.883756225E-1
7.149702417E0,-5.625828635E-4,7.478026673E-4,1.905808300E-1,1.905831274E-1
7.159659417E0,1.819418976E-3,3.533270210E-4,1.944792122E-1,1.944880436E-1
7.169615417E0,3.480224404E-4,-6.371028721E-4,1.962211877E-1,1.962225306E-1
7.179572417E0,-1.452006400E-4,1.095859334E-3,1.986780316E-1,1.986811068E-1
7.189529417E0,2.689207904E-4,9.174281731E-4,2.000359744E-1,2.000382589E-1
7.199486417E0,-1.878304873E-3,-3.681676462E-4,1.939444542E-1,1.939538989E-1
7.209443417E0,1.012290129E-3,-1.065916382E-3,1.902487874E-1,1.902544665E-1
7.219400417E0,2.533725929E-4,-1.657403074E-3,1.874183565E-1,1.874258561E-1
7.229356417E0,9.295493364E-4,-1.254733652E-3,1.903108209E-1,1.903172272E-1
7.239313417E0,-1.879300456E-3,2.252766863E-4,1.926056445E-1,1.926149444E-1
7.249270417E0,-4.401281476E-4,-7.899198681E-4,1.963599026E-1,1.963619847E-1
7.259227417E0,2.214944223E-3,-7.773563266E-5,1.950637996E-1,1.950763900E-1
7.269184417E0,1.522788778E-3,-1.482552849E-3,1.932499111E-1,1.932615973E-1
7.279141417E0,6.407068577E-4,-5.335332826E-4,1.914287806E-1,1.914305963E-1
7.289097417E0,-2.261521295E-4,1.655319706E-3,1.893983930E-1,1.894057616E-1
7.299054417E0,2.312002704E-3,-5.525862798E-4,1.849780977E-1,1.849933710E-1
7.309011417E0,-1.603110228E-3,-9.745173156E-5,1.885014474E-1,1.885082893E-1
7.318968417E0,-2.072174102E-4,5.940562114E-4,1.908820271E-1,1.908830640E-1
7.328925417E0,-1.681010704E-3,-1.974357292E-4,1.951539963E-1,1.951613360E-1
7.338882417E0,2.847127616E-4,1.022454351E-3,1.957250088E-1,1.957278865E-1
7.348839417E0,2.630158793E-3,-2.554703504E-3,1.946648061E-1,1.946993348E-1
7.358795417E0,1.239222940E-3,-2.875635400E-4,1.910312176E-1,1.910354534E-1
7.368752417E0,-9.594829753E-4,3.814138472E-5,1.861855984E-1,1.861880745E-1
7.378709417E0,3.239715472E-3,9.191203862E-4,1.793219149E-1,1.793535327E-1
7.388666417E0,9.505497292E-5,-8.244505152E-4,1.824591160E-1,1.824610034E-1
7.398623417E0,1.125568757E-3,-1.516221091E-4,1.860960126E-1,1.860994782E-1
7.408580417E0,-6.441017613E-4,6.675664335E-4,1.899330914E-1,1.899353567E-1
7.418536417E0,2.656538039E-3,2.192677930E-4,1.922495067E-1,1.922679851E-1
7.428493417E0,2.788677812E-4,-7.021799684E-5,1.960591674E-1,1.960593783E-1
7.438450417E0,6.420307327E-4,7.731113583E-4,1.957766563E-1,1.957792355E-1
7.448407417E0,-2.507157158E-3,1.321721822E-3,1.988198608E-1,1.988400610E-1
7.458364417E0,5.305423401E-4,1.955780201E-3,1.955945790E-1,1.956050763E-1
7.468321417E0,5.241506733E-4,-7.571820170E-4,1.884109676E-1,1.884132181E-1
7.478277417E0,-1.735836267E-4,1.776014455E-3,1.826198697E-1,1.826285880E-1
7.488234417E0,-2.146187238E-3,-5.912687629E-4,1.855887622E-1,1.856021130E-1
7.498191417E0,3.844241146E-4,-3.198813647E-4,1.900927573E-1,1.900934152E-1
7.508148417E0,4.121209495E-4,-1.557718962E-3,1.933266222E-1,1.933333370E-1
7.518105417E0,2.759060357E-3,1.592450775E-3,1.945335567E-1,1.945596387E-1
7.528062417E0,-2.519097179E-4,-3.143725917E-4,1.957378387E-1,1.957382533E-1
7.538018417E0,-1.096319407E-3,-1.677115448E-3,1.967653036E-1,1.967755049E-1
7.547975417E0,4.065025132E-4,1.652594656E-4,1.971780956E-1,1.971785839E-1
7.557932417E0,2.126675099E-6,-2.787914127E-4,1.913838685E-1,1.913840715E-1
7.567889417E0,6.311652251E-4,7.499875501E-4,1.861118674E-1,1.861144488E-1
7.577846417E0,-8.548614569E-4,3.245193511E-4,1.855429411E-1,1.855451942E-1
7.587803417E0,-1.235571690E-4,-1.100271940E-3,1.849488020E-1,1.849521160E-1
7.597760417E0,1.623947173E-5,1.809656620E-3,1.926471889E-1,1.926556890E-1
7.607716417E0,-1.885578968E-4,1.219766214E-3,1.924991161E-1,1.925030729E-1
7.617673417E0,2.911347197E-3,-1.806650311E-3,1.946153343E-1,1.946454938E-1
7.627630417E0,1.638888847E-3,-2.819982357E-3,1.937820315E-1,1.938094786E-1
7.637587417E0,1.373288687E-4,3.641191870E-4,1.924571395E-1,1.924575329E-1
7.647544417E0,-1.035527326E-3,8.967518806E-4,1.883097887E-1,1.883147711E-1
7.657501417E0,-7.079355419E-4,2.185589634E-3,1.856556237E-1,1.856698376E-1
7.667457417E0,1.617004164E-3,5.179177970E-4,1.888412982E-1,1.888489313E-1
7.677414417E0,-9.943228215E-4,-6.191320717E-4,1.934528202E-1,1.934563662E-1
7.687371417E0,1.081877388E-3,-1.536114141E-4,1.914913952E-1,1.914945130E-1
7.697328417E0,-1.921829768E-3,-1.269537956E-3,1.923490018E-1,1.923627917E-1
7.707285417E0,-1.801721286E-3,-7.624719292E-4,1.890290976E-1,1.890392216E-1
7.717242417E0,2.290785778E-4,6.306450814E-5,1.882647574E-1,1.882649073E-1
7.727198417E0,-8.702743798E-4,-1.345480792E-3,1.913620085E-1,1.913687173E-1
7.737155417E0,-1.960164402E-3,-1.332659274E-3,1.917127371E-1,1.917273892E-1
7.747112417E0,-3.508259542E-3,4.356792197E-4,1.931942403E-1,1.932265825E-1
7.757069417E0,-2.159720752E-3,2.081261482E-3,1.896837205E-1,1.897074323E-1
7.767026417E0,1.026218990E-3,1.097223721E-3,1.884360313E-1,1.884420201E-1
7.776983417E0,-1.893780194E-3,-2.129282802E-5,1.932001710E-1,1.932094535E-1
7.786939417E0,-6.322404370E-4,7.294518873E-4,1.948603690E-1,1.948627600E-1
7.796896417E0,-1.221218146E-3,9.600846097E-4,1.931369454E-1,1.931431925E-1
7.806853417E0,9.331828915E-5,-1.335560344E-3,1.938858330E-1,1.938904554E-1
7.816810417E0,-1.512823161E-3,-6.713401526E-4,1.917658597E-1,1.917730020E-1
7.826767417E0,-1.205494162E-3,-2.129686996E-3,1.874363571E-1,1.874523320E-1
7.836724417E0,-2.289577387E-3,9.799655527E-5,1.862056702E-1,1.862197718E-1
7.846681417E0,-3.908246756E-3,1.262258738E-4,1.868613511E-1,1.869022602E-1
7.856637417E0,-1.673537772E-3,4.699351266E-4,1.890175939E-1,1.890255865E-1
7.866594417E0,-3.989487886E-4,-1.443545334E-3,1.900823265E-1,1.900882265E-1
7.876551417E0,1.214533346E-3,-2.183642238E-3,1.924708486E-1,1.924870669E-1
7.886508250E0,-2.260359470E-3,7.594171911E-4,1.965036690E-1,1.965181363E-1
7.896465250E0,-2.672553062E-3,6.366642192E-4,1.931942999E-1,1.932138334E-1
7.906422250E0,-4.065688699E-6,-2.775983885E-4,1.954010129E-1,1.954012101E-1
7.916378250E0,-1.267311163E-3,-9.955279529E-5,1.919463575E-1,1.919505669E-1
7.926335250E0,8.690766990E-4,-2.525001764E-5,1.925042868E-1,1.925062502E-1
7.936292250E0,-4.096957855E-4,2.246398013E-3,1.887478828E-1,1.887616948E-1
7.946249250E0,-1.940214541E-3,2.708988730E-3,1.874179095E-1,1.874475283E-1
7.956206250E0,-7.190410979E-4,7.074242458E-4,1.876940429E-1,1.876967533E-1
7.966163250E0,9.712672327E-4,1.017683186E-3,1.910043508E-1,1.910095313E-1
7.976119250E0,2.503109165E-3,-2.745296806E-4,1.929485202E-1,1.929649511E-1
7.986076250E0,1.832525246E-3,-4.689404741E-4,1.969304830E-1,1.969395673E-1
7.996033250E0,1.827724278E-3,-1.977678388E-3,1.967860907E-1,1.968045154E-1
8.005990250E0,-2.053328790E-4,-1.976081170E-3,1.924568564E-1,1.924671105E-1
8.015947250E0,4.619541578E-4,-1.874140464E-3,1.867856830E-1,1.867956562E-1
8.025904250E0,2.482760698E-3,-1.064272597E-3,1.838282496E-1,1.838480952E-1
8.035861250E0,-3.899517469E-4,-3.788489848E-4,1.849147379E-1,1.849155372E-1
8.045817250E0,-1.057606190E-3,1.794290263E-3,1.897731423E-1,1.897845715E-1
8.055774250E0,1.757380553E-3,-2.151085064E-4,1.908970177E-1,1.909052279E-1
8.065731250E0,9.155552834E-4,1.004086807E-3,1.946006715E-1,1.946054156E-1
8.075688250E0,1.124120317E-3,-1.021885313E-3,1.961416304E-1,1.961475136E-1
8.085645250E0,-4.607252777E-5,-6.714137271E-4,1.985669732E-1,1.985681137E-1
8.095602250E0,-2.382493112E-3,1.170793548E-4,1.987672895E-1,1.987816022E-1
8.105558250E0,3.916948102E-3,-8.107665926E-4,1.963962764E-1,1.964370057E-1
8.115515250E0,-1.390850637E-3,8.885301650E-4,1.959109008E-1,1.959178527E-1
8.125472250E0,-8.654086851E-4,-6.408244371E-5,1.932807565E-1,1.932827045E-1
8.135429250E0,-1.101157162E-3,1.589508727E-3,1.886693537E-1,1.886792626E-1
8.145386250E0,1.582510304E-3,2.278340980E-4,1.887178272E-1,1.887245997E-1
8.155343250E0,-3.700852394E-4,1.151794568E-3,1.906065494E-1,1.906103886E-1
8.165299250E0,-2.963156439E-4,-9.632874280E-4,1.906371713E-1,1.906398353E-1
8.175256250E0,3.087798599E-3,3.037005663E-4,1.880860478E-1,1.881116373E-1
8.185213250E0,-7.804427296E-4,7.026419044E-4,1.893731505E-1,1.893760621E-1
8.195170250E0,1.390692545E-3,-3.503020853E-4,1.883888841E-1,1.883943427E-1
8.205127250E0,-9.375344962E-5,-1.835813746E-3,1.916152984E-1,1.916241153E-1
8.215084250E0,1.498255879E-4,2.441797405E-4,1.926209480E-1,1.926211610E-1
8.225041250E0,-2.802554518E-3,-1.308176666E-3,1.938641071E-1,1.938887766E-1
8.234997250E0,1.813433832E-3,7.443092763E-4,1.911577880E-1,1.911678385E-1
8.244954250E0,-1.245739404E-3,-2.337766811E-3,1.870221794E-1,1.870409383E-1
8.254911250E0,-1.144562848E-3,5.851127207E-4,1.888993829E-1,1.889037566E-1
8.264868250E0,6.703811232E-4,-3.091767430E-4,1.918562949E-1,1.918577152E-1
8.274825250E0,4.578186199E-4,5.651898682E-4,1.920578927E-1,1.920592700E-1
8.284782250E0,-2.496159635E-3,3.497395664E-4,1.925148964E-1,1.925313960E-1
8.294738250E0,-9.560394101E-4,-8.403128013E-4,1.877817214E-1,1.877860352E-1
8.304695250E0,-2.469247673E-3,-2.376399934E-4,1.868128628E-1,1.868293321E-1
8.314652250E0,-2.175894100E-3,-8.736681193E-4,1.877026409E-1,1.877172853E-1
8.324609250E0,-1.611570362E-3,2.727936953E-5,1.889511347E-1,1.889580091E-1
8.334566250E0,-1.962754875E-3,2.250587102E-3,1.923162490E-1,1.923394322E-1
8.344523250E0,2.908122260E-4,-6.130244583E-5,1.918922812E-1,1.918925113E-1
8.354480250E0,-6.861812435E-4,-8.327215910E-4,1.915937066E-1,1.915967450E-1
8.364436250E0,-9.908466600E-4,1.672780141E-3,1.914869100E-1,1.914967798E-1
8.374393250E0,7.923860103E-4,-8.027106524E-4,1.888371259E-1,1.888404944E-1
8.384350250E0,2.890485339E-4,-4.743784666E-5,1.918148100E-1,1.918150337E-1
8.394307250E0,1.033137320E-3,-2.446677536E-4,1.898512542E-1,1.898542229E-1
8.404264250E0,-1.026285347E-3,2.794424072E-4,1.918201149E-1,1.918230638E-1
8.414221250E0,-1.978897490E-4,3.505218774E-5,1.934068501E-1,1.934069545E-1
8.424177250E0,-1.224271953E-3,2.080626320E-3,1.919993758E-1,1.920145520E-1
8.434134250E0,3.333459608E-4,5.349069834E-4,1.920387745E-1,1.920398088E-1
8.444091250E0,-1.987598836E-3,1.162881032E-3,1.946529150E-1,1.946665358E-1
8.454048250E0,-3.515489399E-3,-7.332302630E-6,1.953499019E-1,1.953815316E-1
8.464005250E0,1.480802894E-6,1.286697574E-3,1.931831539E-1,1.931874389E-1
8.473962250E0,-9.977966547E-4,-6.971890107E-4,1.934976876E-1,1.935015162E-1
8.483919250E0,1.045913436E-3,-3.211507574E-4,1.883516610E-1,1.883548387E-1
8.493875250E0,3.205777146E-3,-1.681034453E-3,1.893141717E-1,1.893487747E-1
8.503832250E0,1.732782926E-3,-1.137638465E-4,1.911853105E-1,1.911931966E-1
8.513789250E0,-2.562846057E-4,7.376484573E-4,1.901046336E-1,1.901062374E-1
8.523746250E0,-2.166032791E-4,9.609293193E-5,1.922186464E-1,1.922187925E-1
8.533703250E0,1.672433922E-3,1.406501979E-4,1.926499605E-1,1.926572711E-1
8.543660250E0,1.173623838E-3,2.040548716E-3,1.891255379E-1,1.891401869E-1
8.553616250E0,-9.715333581E-4,1.102810726E-3,1.885082275E-1,1.885139568E-1
8.563573250E0,-4.903003573E-4,-6.410274655E-4,1.887383312E-1,1.887400566E-1
8.573530250E0,-1.633521169E-3,7.494790480E-4,1.897185445E-1,1.897270572E-1
8.583487250E0,1.809679903E-3,-3.695804626E-4,1.880176067E-1,1.880266789E-1
8.593444250E0,-2.866243012E-4,-2.525514923E-3,1.905367821E-1,1.905537345E-1
8.603401250E0,2.523276955E-3,1.903763041E-4,1.932803690E-1,1.932969328E-1
8.613357250E0,-1.967055723E-4,-8.530765772E-4,1.981310397E-1,1.981329739E-1
8.623314250E0,-1.389002893E-3,1.281446777E-3,1.932766289E-1,1.932858678E-1
8.633271250E0,-2.293079160E-3,1.227153465E-3,1.909026355E-1,1.909203508E-1
8.643228250E0,-5.457792431E-4,-1.066626981E-3,1.908024997E-1,1.908062615E-1
8.653185250E0,3.715227358E-4,-7.706228644E-4,1.882302612E-1,1.882322053E-1
8.663142250E0,-3.829509951E-4,-1.690745354E-3,1.886949837E-1,1.887029469E-1
8.673099250E0,-4.487722181E-4,5.416115746E-4,1.879987866E-1,1.880001024E-1
8.683055250E0,-1.877825707E-4,-1.244304702E-3,1.877332628E-1,1.877374803E-1
8.693012250E0,-2.337668091E-3,-1.818355173E-3,1.926927567E-1,1.927155146E-1
8.702969250E0,-2.410904970E-3,-5.075475201E-4,1.923705041E-1,1.923862805E-1
8.712926250E0,-1.674810424E-3,-3.911182284E-5,1.937809587E-1,1.937882000E-1
8.722883250E0,-9.182062931E-4,1.056512818E-3,1.958254725E-1,1.958304751E-1
8.732840250E0,-7.682484575E-4,8.185394108E-4,1.923679858E-1,1.923712613E-1
8.742797250E0,5.473529454E-4,1.814560965E-3,1.896219999E-1,1.896314717E-1
8.752753250E0,-6.880103610E-4,-6.872210652E-4,1.835463494E-1,1.835489254E-1
8.762710250E0,-1.955408603E-3,-1.998562366E-3,1.837048084E-1,1.837260855E-1
8.772667250E0,-1.040695235E-3,-4.563778639E-4,1.836275607E-1,1.836310769E-1
8.782624250E0,-1.940764487E-4,4.038233310E-4,1.867232174E-1,1.867237549E-1
8.792581250E0,3.468592186E-4,6.043072790E-5,1.874341071E-1,1.874344377E-1
8.802538250E0,5.388730206E-4,-1.053836197E-3,1.905092597E-1,1.905129365E-1
8.812494250E0,1.547562657E-3,6.917361170E-4,1.889345944E-1,1.889421986E-1
8.822451250E0,-5.912221968E-5,-1.591658220E-3,1.936355978E-1,1.936421483E-1
8.832408250E0,-4.301350564E-4,-5.286904052E-4,1.918941438E-1,1.918953542E-1
8.842365250E0,-3.776708618E-4,-9.156474844E-4,1.926251948E-1,1.926277413E-1
8.852322250E0,7.632356137E-4,9.713526815E-4,1.939284354E-1,1.939323700E-1
8.862279250E0,1.026888611E-3,-3.559673205E-4,1.898660511E-1,1.898691617E-1
8.872236250E0,1.836271491E-3,5.847448483E-4,1.914804280E-1,1.914901254E-1
8.882192250E0,-7.694354281E-5,2.318196464E-3,1.889914274E-1,1.890056602E-1
8.892148750E0,-3.113755956E-4,7.204087451E-4,1.916363835E-1,1.916379906E-1
8.902105750E0,-1.084491145E-3,-1.323566772E-3,1.937650442E-1,1.937725995E-1
8.912062750E0,-2.363780513E-4,-2.017576247E-3,1.927172095E-1,1.927279152E-1
8.922019750E0,1.057652058E-3,-2.646828070E-4,1.934839338E-1,1.934870056E-1
8.931976750E0,-1.711986028E-3,-1.718115062E-3,1.954468638E-1,1.954619128E-1
8.941932750E0,9.218803607E-4,-4.539126530E-4,1.942907870E-1,1.942935043E-1
8.951889750E0,2.708928427E-3,-2.741515636E-4,1.979723424E-1,1.979910649E-1
8.961846750E0,-1.833891496E-3,-8.320249617E-5,1.940814555E-1,1.940901374E-1
8.971803750E0,1.584839541E-3,-2.224924043E-3,1.879618019E-1,1.879816506E-1
8.981760750E0,-5.414281040E-4,-1.313323155E-3,1.863947958E-1,1.864002088E-1
8.991717750E0,-4.656291567E-4,-9.847749025E-4,1.835919321E-1,1.835951636E-1
9.001674750E0,-1.802802086E-3,-3.613289446E-4,1.828593016E-1,1.828685452E-1
9.011630750E0,7.563736290E-6,-6.016120315E-4,1.868334264E-1,1.868343951E-1
9.021587750E0,-6.920490414E-4,-6.937580183E-4,1.885570288E-1,1.885595750E-1
9.031544750E0,1.133951591E-3,-1.994954422E-3,1.880698353E-1,1.880838341E-1
9.041501750E0,7.986593992E-4,-5.306676030E-6,1.904104799E-1,1.904121549E-1
9.051458750E0,1.423866488E-3,1.017525792E-4,1.887196600E-1,1.887250588E-1
9.061415750E0,4.105337430E-4,-9.720344096E-4,1.904152930E-1,1.904182165E-1
9.071371750E0,6.987915840E-4,1.303024590E-3,1.892967969E-1,1.893025713E-1
9.081328750E0,5.986567121E-4,1.789042726E-4,1.904869527E-1,1.904879774E-1
9.091285750E0,-9.812507778E-5,-5.873367190E-4,1.936242282E-1,1.936251439E-1
9.101242750E0,-6.739008240E-4,6.054928526E-4,1.954412907E-1,1.954433905E-1
9.111199750E0,-1.314360648E-3,9.301044047E-4,1.962962151E-1,1.963028188E-1
9.121156750E0,-9.894552641E-4,-1.696838066E-3,1.964733154E-1,1.964831340E-1
9.131113750E0,-1.053663436E-3,-1.621879637E-4,1.969130635E-1,1.969159493E-1
9.141069750E0,5.687447265E-5,-3.094607964E-4,1.930749118E-1,1.930751682E-1
9.151026750E0,2.366434783E-4,-3.118379973E-3,1.934913993E-1,1.935166708E-1
9.160983750E0,1.740590669E-4,-4.336470738E-4,1.911171973E-1,1.911177685E-1
9.170940750E0,1.778865699E-3,1.754794270E-3,1.910499781E-1,1.910663178E-1
9.180897750E0,1.360749593E-3,-6.953142583E-4,1.901306659E-1,1.901368066E-1
9.190854750E0,5.524512380E-4,-1.718911342E-3,1.937914044E-1,1.937998149E-1
9.200811750E0,5.970709026E-6,6.750039756E-4,1.898118556E-1,1.898130559E-1
9.210767750E0,1.063307282E-4,5.725156516E-4,1.916457862E-1,1.916466708E-1
9.220724750E0,-7.906220853E-4,-2.558829263E-3,1.957380027E-1,1.957563240E-1
9.230681750E0,6.259400398E-4,1.338007860E-3,1.947001368E-1,1.947057404E-1
9.240638750E0,5.460451357E-4,-1.019422896E-3,1.958759278E-1,1.958793416E-1
9.250595750E0,-3.143651877E-3,5.456628278E-4,1.932401955E-1,1.932665348E-1
9.260552750E0,1.716084545E-3,-1.250639558E-3,1.912955493E-1,1.913073345E-1
9.270508750E0,3.190888092E-4,-1.345856115E-3,1.894762963E-1,1.894813447E-1
9.280465750E0,-1.429696567E-4,1.542075537E-3,1.838077456E-1,1.838142698E-1
9.290422750E0,1.862995792E-3,-5.381694064E-4,1.808303595E-1,1.808407567E-1
9.300379750E0,1.695482992E-3,-1.392280683E-4,1.826556772E-1,1.826635992E-1
9.310336750E0,6.027019117E-4,-1.190823503E-3,1.854920685E-1,1.854968700E-1
9.320293750E0,5.161492154E-4,-5.093207583E-4,1.839719415E-1,1.839733705E-1
9.330250750E0,5.231306423E-4,-1.469785348E-3,1.855154037E-1,1.855219636E-1
9.340206750E0,-1.888894476E-3,1.173093915E-5,1.857721359E-1,1.857817389E-1
9.350163750E0,1.659181667E-3,-4.563648254E-4,1.876591444E-1,1.876670339E-1
9.360120750E0,-2.558976412E-4,-2.228058875E-4,1.870111972E-1,1.870115050E-1
9.370077750E0,-1.135388389E-3,-1.568302512E-3,1.861437410E-1,1.861538101E-1
9.380034750E0,-1.102098729E-3,-3.448463976E-4,1.867197901E-1,1.867233610E-1
9.389991750E0,-7.269652560E-4,-1.787838526E-3,1.877375692E-1,1.877474893E-1
9.399947750E0,9.265912231E-4,-1.433904283E-3,1.893762201E-1,1.893839154E-1
9.409904750E0,1.123472350E-3,7.851580158E-4,1.894997656E-1,1.895047225E-1
9.419861750E0,-2.685646992E-3,8.591935039E-4,1.925680041E-1,1.925886475E-1
9.429818750E0,-7.835919969E-4,-1.522160135E-3,1.935278028E-1,1.935353752E-1
9.439775750E0,-1.284799073E-3,-2.062926069E-4,1.933286041E-1,1.933329833E-1
9.449732750E0,3.979022149E-4,7.693730295E-4,1.909475029E-1,1.909494674E-1
9.459689750E0,1.098579960E-3,-2.424884588E-5,1.903040856E-1,1.903072581E-1
9.469645750E0,-1.202498097E-3,-1.513259485E-4,1.945172101E-1,1.945209859E-1
9.479602750E0,5.701016635E-4,-5.057929084E-4,1.941062808E-1,1.941077770E-1
9.489559750E0,2.342949156E-4,1.967279240E-4,1.921912283E-1,1.921914718E-1
9.499516750E0,7.197891828E-4,1.722266898E-4,1.914394051E-1,1.914408357E-1
9.509473750E0,1.784208696E-3,-1.278175972E-3,1.890085787E-1,1.890213214E-1
9.519430750E0,5.634154659E-4,1.828344539E-4,1.907697320E-1,1.907706516E-1
9.529387750E0,2.370141912E-3,-6.977627054E-4,1.911074966E-1,1.911234672E-1
9.539343750E0,-3.167213872E-4,-1.610959880E-3,1.898190528E-1,1.898261529E-1
9.549300750E0,1.147658098E-3,3.841242287E-3,1.877298057E-1,1.877726077E-1
9.559257750E0,-1.996470150E-3,1.897933893E-3,1.877865344E-1,1.878067373E-1
9.569214750E0,-9.416486137E-4,-5.784938112E-4,1.891419441E-1,1.891451727E-1
9.579171750E0,-5.395109765E-4,-1.784870401E-4,1.918397248E-1,1.918405664E-1
9.589128750E0,-1.055485569E-3,-2.039930783E-3,1.908670515E-1,1.908808705E-1
9.599085750E0,-5.087382160E-4,-1.733667217E-3,1.893112361E-1,1.893198578E-1
9.609041750E0,-2.925316803E-4,4.561478272E-4,1.909264773E-1,1.909272463E-1
9.618998750E0,-3.889384679E-4,-6.711687893E-4,1.926854849E-1,1.926870463E-1
9.628955750E0,8.328875992E-4,-4.659695551E-4,1.917823851E-1,1.917847597E-1
9.638912750E0,-1.394580584E-3,7.465202361E-5,1.951329112E-1,1.951379088E-1
9.648869750E0,1.741815126E-3,-2.568933181E-3,1.947976202E-1,1.948223451E-1
9.658826750E0,4.805421922E-4,-3.084419295E-4,1.954133511E-1,1.954141853E-1
9.668782750E0,-2.356266603E-3,4.804888740E-4,1.959273964E-1,1.959421535E-1
9.678739750E0,-4.774061963E-4,-1.338982023E-3,1.922932565E-1,1.922985109E-1
9.688696750E0,-2.253354993E-3,-2.300122753E-3,1.931687891E-1,1.931956244E-1
9.698653750E0,1.269783825E-4,-1.343248412E-3,1.971989572E-1,1.972035729E-1
9.708610750E0,5.684979260E-5,-1.709745266E-3,1.937767118E-1,1.937842628E-1
9.718567750E0,-1.122397836E-3,-1.951294020E-3,1.898336262E-1,1.898469724E-1
9.728524750E0,-2.550859936E-4,1.513585448E-4,1.888820380E-1,1.888822709E-1
9.738480750E0,-2.894406207E-4,-1.421216875E-4,1.884924173E-1,1.884926931E-1
9.748437750E0,-9.373896755E-4,-3.967843950E-4,1.883429140E-1,1.883456646E-1
9.758394750E0,-1.544202678E-4,2.345473040E-3,1.876664609E-1,1.876811808E-1
9.768351750E0,6.064695772E-4,2.783611417E-4,1.894533187E-1,1.894544939E-1
9.778308750E0,7.779772859E-4,-9.299153462E-4,1.884927154E-1,1.884966147E-1
9.788265750E0,4.660456907E-4,3.052875400E-5,1.912738085E-1,1.912743787E-1
9.798222750E0,-2.126008738E-3,-2.474173903E-3,1.950781345E-1,1.951054075E-1
9.808178750E0,-1.597969793E-3,1.303073950E-3,1.954476982E-1,1.954585743E-1
9.818135750E0,-7.803793997E-4,-1.928238198E-4,1.941954792E-1,1.941971429E-1
9.828092750E0,3.624879755E-4,-3.234993666E-3,1.927808970E-1,1.928083785E-1
9.838049750E0,5.193483084E-4,-1.841894351E-3,1.921928674E-1,1.922023948E-1
9.848006750E0,9.874114767E-5,1.119321212E-3,1.913499683E-1,1.913532676E-1
9.857963750E0,-2.746047452E-3,3.547277302E-4,1.906101406E-1,1.906302502E-1
9.867920750E0,3.288653679E-3,-8.854288608E-4,1.919379085E-1,1.919681222E-1
9.877876750E0,1.905673882E-3,-1.801023260E-3,1.912976801E-1,1.913156494E-1
9.887833750E0,8.877227083E-5,3.486683592E-3,1.909355670E-1,1.909674202E-1
9.897791375E0,1.376410713E-3,1.058413647E-3,1.891869456E-1,1.891949130E-1
9.907748375E0,7.592902984E-4,-1.443048008E-3,1.885347664E-1,1.885418178E-1
9.917705375E0,-2.114316449E-4,2.419068478E-3,1.893464923E-1,1.893620626E-1
9.927662375E0,1.279218122E-5,-2.630923875E-3,1.908240616E-1,1.908421977E-1
9.937618375E0,1.755031990E-3,-1.010764390E-5,1.901787817E-1,1.901868798E-1
9.947575375E0,2.394570969E-3,9.849742055E-4,1.900698841E-1,1.900875192E-1
9.957532375E0,-4.936275072E-4,-2.488680184E-4,1.860562265E-1,1.860570478E-1
9.967489375E0,-4.563620314E-5,1.544840634E-4,1.871083975E-1,1.871084668E-1
9.977446375E0,7.043096703E-4,-4.021162167E-4,1.876524836E-1,1.876542361E-1
9.987403375E0,-1.253299881E-3,-1.718349755E-3,1.869650930E-1,1.869771898E-1
9.997360375E0,5.491273478E-4,-2.711880952E-4,1.886202544E-1,1.886212487E-1
1.000731637E1,-4.294142127E-5,6.186049432E-4,1.920343339E-1,1.920353351E-1
1.001727338E1,-6.578653120E-4,-1.034685411E-3,1.935448796E-1,1.935487633E-1
1.002723037E1,-3.707106225E-4,8.625043556E-4,1.927505434E-1,1.927528296E-1
1.003718738E1,4.588640295E-4,1.212710515E-3,1.950919926E-1,1.950963014E-1
1.004714437E1,-1.126672607E-3,6.814282387E-4,1.937739849E-1,1.937784585E-1
1.005710138E1,1.457126345E-3,-1.336715184E-3,1.876580268E-1,1.876684445E-1
1.006705837E1,4.190090112E-4,-1.293770038E-3,1.871994287E-1,1.872043683E-1
1.007701438E1,-1.146663446E-3,-1.082581468E-3,1.862100512E-1,1.862167285E-1
1.008697137E1,-1.149841119E-3,1.318713650E-3,1.880892366E-1,1.880973739E-1
1.009692838E1,-5.953707732E-4,2.446603030E-4,1.860412657E-1,1.860423793E-1
1.010688538E1,-1.003339421E-3,-4.665758461E-4,1.874175817E-1,1.874208481E-1
1.011684237E1,-3.623890225E-3,-1.023176126E-3,1.867837459E-1,1.868216989E-1
1.012679938E1,1.825402724E-3,2.745445818E-4,1.869405210E-1,1.869496346E-1
1.013675637E1,7.846395019E-4,1.496669836E-3,1.872188151E-1,1.872264415E-1
1.014671238E1,-1.197768375E-3,-2.277312800E-3,1.884963959E-1,1.885139573E-1
1.015666937E1,-1.705633476E-3,2.574836835E-4,1.888066530E-1,1.888145326E-1
1.016662638E1,4.333218094E-4,-3.102505580E-4,1.900369674E-1,1.900377147E-1
1.017658337E1,4.977702629E-4,-1.842835918E-4,1.887751520E-1,1.887758982E-1
1.018654038E1,-7.031620480E-4,8.808700368E-4,1.888701469E-1,1.888735099E-1
1.019649738E1,-3.348479979E-3,-8.946591988E-4,1.909753680E-1,1.910068164E-1
1.020645437E1,6.017405540E-4,1.327686943E-3,1.927380115E-1,1.927435237E-1
1.021641038E1,-3.215773031E-4,-2.288885415E-3,1.880609691E-1,1.880751725E-1
1.022636737E1,3.461309243E-4,7.153116167E-5,1.879057735E-1,1.879061059E-1
1.023632438E1,1.846555853E-3,-1.977141947E-4,1.897915453E-1,1.898006310E-1
1.024628137E1,3.870886285E-4,-4.791487008E-4,1.894793212E-1,1.894803225E-1
1.025623838E1,2.304298338E-3,-1.657863148E-3,1.898737401E-1,1.898949590E-1
1.026619537E1,-8.938303217E-4,4.001613706E-4,1.896945983E-1,1.896971262E-1
1.027615238E1,-3.171632066E-3,-1.294674352E-3,1.912181973E-1,1.912488809E-1
1.028610837E1,2.329921816E-3,-3.723320551E-3,1.881257892E-1,1.881770555E-1
1.029606538E1,-1.169908792E-4,-1.181066968E-3,1.913756430E-1,1.913793232E-1
1.030602237E1,-1.523378305E-3,3.926288337E-4,1.878796965E-1,1.878862826E-1
1.031597938E1,-3.127932549E-3,-1.006596722E-3,1.869124323E-1,1.869413131E-1
1.032593638E1,8.167375345E-4,-2.313022502E-3,1.906309128E-1,1.906466943E-1
1.033589337E1,-1.751082484E-3,-2.480074763E-4,1.882372648E-1,1.882455727E-1
1.034585038E1,-2.826210111E-4,-1.247506589E-4,1.883340329E-1,1.883342863E-1
1.035580637E1,-4.410790280E-4,-4.749558866E-4,1.887601316E-1,1.887612445E-1
1.036576338E1,-3.936018795E-3,2.269494813E-3,1.916051507E-1,1.916590113E-1
1.037572037E1,-2.644119784E-3,1.399439760E-3,1.915960908E-1,1.916194453E-1
1.038567738E1,-1.963260584E-4,-5.543567240E-4,1.900773197E-1,1.900782295E-1
1.039563437E1,8.865154814E-4,-1.863073558E-4,1.895782501E-1,1.895804144E-1
1.040559138E1,-3.101071343E-5,1.448411494E-4,1.886144280E-1,1.886144862E-1
1.041554838E1,-2.694171853E-3,-1.517504454E-3,1.882466525E-1,1.882720467E-1
1.042550438E1,-6.019114517E-4,8.270237595E-4,1.882664412E-1,1.882692199E-1
1.043546138E1,-1.170230098E-3,-5.580866709E-4,1.857332438E-1,1.857377688E-1
1.044541837E1,2.782572526E-3,-5.737524480E-4,1.847370267E-1,1.847588724E-1
1.045537538E1,-1.546129584E-3,-2.525746822E-4,1.875818223E-1,1.875883641E-1
1.046533237E1,2.488570753E-3,7.767332718E-4,1.868134886E-1,1.868316778E-1
1.047528938E1,-9.783324786E-4,8.369209245E-4,1.862592846E-1,1.862637342E-1
1.048524637E1,-2.013774589E-3,1.955312677E-3,1.874506176E-1,1.874716313E-1
1.049520238E1,4.611008335E-4,-9.398097172E-4,1.851698905E-1,1.851728496E-1
1.050515937E1,1.113030827E-3,-1.478817314E-3,1.851895750E-1,1.851988240E-1
1.051511638E1,-1.288014464E-4,-9.696204215E-4,1.850859821E-1,1.850885667E-1
1.052507337E1,2.200456802E-4,-1.525104977E-3,1.817932427E-1,1.817997730E-1
1.053503038E1,-7.544048131E-4,4.392424598E-4,1.851397753E-1,1.851418333E-1
1.054498738E1,2.827635035E-3,-1.572873443E-3,1.815886796E-1,1.816175046E-1
1.055494437E1,-4.128995351E-4,-4.263818264E-4,1.826970875E-1,1.826980517E-1
1.056490038E1,8.744187653E-6,-2.062637359E-4,1.833692938E-1,1.833694100E-1
1.057485737E1,-5.491883494E-4,4.986748099E-4,1.852114052E-1,1.852128907E-1
1.058481438E1,1.656381181E-3,2.075109631E-3,1.829674840E-1,1.829867478E-1
1.059477137E1,-7.282132283E-4,3.885757178E-5,1.823059469E-1,1.823074055E-1
1.060472838E1,6.822829600E-4,-1.223785803E-4,1.849890649E-1,1.849903636E-1
1.061468537E1,2.359370701E-4,-1.601497643E-3,1.844673455E-1,1.844744481E-1
1.062464238E1,4.885455128E-4,1.150206663E-3,1.829786152E-1,1.829828824E-1
1.063459837E1,-1.092040446E-3,-2.117225900E-3,1.817871183E-1,1.818027271E-1
1.064455538E1,1.007920131E-3,-1.876104623E-3,1.817487329E-1,1.817612104E-1
1.065451238E1,1.199667808E-3,-1.161844470E-3,1.819836199E-1,1.819912828E-1
1.066446937E1,3.013715614E-3,5.639465526E-4,1.810318381E-1,1.810577999E-1
1.067442638E1,1.686606556E-4,-2.178843133E-3,1.795031875E-1,1.795164899E-1
1.068438337E1,1.007365063E-4,-1.008938998E-3,1.789133102E-1,1.789161833E-1
1.069434038E1,-2.288918011E-3,2.510026097E-4,1.821253449E-1,1.821399006E-1
1.070429637E1,4.914188758E-4,-1.335681416E-3,1.761974245E-1,1.762031724E-1
1.071425338E1,-2.678807825E-3,-3.153085709E-5,1.776453853E-1,1.776655845E-1
1.072421037E1,-7.288847119E-4,7.213326171E-4,1.786549985E-1,1.786579416E-1
1.073416738E1,-1.166239381E-4,4.608752206E-4,1.836540103E-1,1.836546256E-1
1.074412437E1,-2.298094332E-4,1.092529856E-3,1.901767999E-1,1.901800769E-1
1.075408137E1,4.671397619E-4,-1.476354897E-3,1.993937343E-1,1.993997471E-1
1.076403838E1,8.222823963E-4,3.731586039E-4,2.008612305E-1,2.008632602E-1
1.077399437E1,-2.109059133E-3,-3.160675988E-4,2.016181052E-1,2.016293837E-1
1.078395138E1,-3.038559109E-3,-1.734687947E-3,2.000446916E-1,2.000752873E-1
1.079390837E1,-8.153524250E-4,2.632150427E-4,1.950291544E-1,1.950310364E-1
1.080386538E1,3.106481861E-3,-1.676292159E-3,1.923521459E-1,1.923845322E-1
1.081382237E1,6.577051245E-4,6.686206907E-4,1.881494224E-1,1.881517600E-1
1.082377938E1,4.479335621E-5,1.852126792E-3,1.888544112E-1,1.888634984E-1
1.083373637E1,1.147608273E-3,-1.316236332E-3,1.885721236E-1,1.885802092E-1
1.084369238E1,-1.219036058E-3,3.222282976E-4,1.855775714E-1,1.855818549E-1
1.085364937E1,6.813958753E-4,1.545950770E-3,1.852800995E-1,1.852878019E-1
1.086360638E1,-1.206741203E-3,-3.438005224E-4,1.846540570E-1,1.846583201E-1
1.087356338E1,3.505456029E-3,-5.363468081E-4,1.837102324E-1,1.837444567E-1
1.088352037E1,1.786278328E-3,-7.408130914E-4,1.853798032E-1,1.853898892E-1
1.089347725E1,1.387336990E-3,-1.464393921E-3,1.929905862E-1,1.930011282E-1
1.090343425E1,1.773118041E-3,7.154960185E-4,1.991318613E-1,1.991410407E-1
1.091339025E1,1.374442829E-3,-2.936496399E-3,1.988000274E-1,1.988264645E-1
1.092334725E1,-3.393534571E-4,-8.317586035E-4,1.983664334E-1,1.983684674E-1
1.093330425E1,-2.457898110E-3,-8.583897725E-4,1.942326725E-1,1.942501201E-1
1.094326125E1,-1.004878432E-3,2.999824006E-3,1.930875182E-1,1.931134341E-1
1.095321825E1,-2.591856290E-3,2.017916180E-3,1.890592277E-1,1.890877608E-1
1.096317525E1,-7.447176613E-4,1.341975294E-3,1.902423799E-1,1.902485706E-1
1.097313225E1,-1.809449401E-3,-9.009391069E-4,1.890679300E-1,1.890787348E-1
1.098308825E1,-1.226920169E-3,1.354794018E-3,1.883750856E-1,1.883839528E-1
1.099304525E1,-9.970893152E-4,4.245517775E-4,1.850778311E-1,1.850810039E-1
1.100300225E1,-2.120329067E-3,2.522257157E-3,1.878761798E-1,1.879050732E-1
1.101295925E1,-1.609534957E-3,-4.761954769E-4,1.899529099E-1,1.899603258E-1
1.102291625E1,-1.554656774E-4,1.293354668E-3,1.919421405E-1,1.919465608E-1
1.103287325E1,-1.570669468E-3,-1.112278551E-3,1.910412014E-1,1.910508958E-1
1.104283025E1,-4.188220017E-3,-1.952541061E-3,1.938020885E-1,1.938571719E-1
1.105278625E1,3.181545762E-3,7.899822667E-4,1.906015128E-1,1.906297012E-1
1.106274325E1,3.798877820E-3,1.255856827E-3,1.896800399E-1,1.897222343E-1
1.107270025E1,-4.211673513E-4,4.864577204E-5,1.898345053E-1,1.898349788E-1
1.108265725E1,-3.623054363E-4,1.452551223E-3,1.917151213E-1,1.917209662E-1
1.109261425E1,6.014923565E-4,-3.660984337E-3,1.885446310E-1,1.885811297E-1
1.110257125E1,-1.136161387E-3,-2.939216793E-4,1.911853999E-1,1.911890017E-1
1.111252825E1,-2.278124914E-3,-1.202840358E-4,1.919638515E-1,1.919774064E-1
1.112248425E1,3.422459820E-3,1.040845178E-3,1.961598247E-1,1.961924398E-1
1.113244125E1,4.626226146E-4,1.326869242E-3,1.969830096E-1,1.969880216E-1
1.114239825E1,1.341129653E-3,-2.008856274E-3,1.930368692E-1,1.930519800E-1
1.115235525E1,-4.027803428E-3,-4.274714738E-4,1.906727701E-1,1.907157865E-1
1.116231225E1,-1.909458078E-4,1.104681753E-3,1.884493977E-1,1.884527322E-1
1.117226925E1,-1.876194030E-3,-3.715083003E-4,1.831763387E-1,1.831863236E-1
1.118222625E1,6.172792055E-4,1.242736354E-3,1.824282706E-1,1.824335477E-1
1.119218325E1,6.713415496E-4,5.247481167E-4,1.828953773E-1,1.828973622E-1
1.120213925E1,-6.876639090E-4,1.014291309E-3,1.888175160E-1,1.888214924E-1
1.121209625E1,3.230054863E-4,-7.234206423E-4,1.870896518E-1,1.870913293E-1
1.122205325E1,1.117229927E-3,2.050668001E-3,1.939839870E-1,1.939980429E-1
1.123201025E1,2.025101567E-3,1.067961566E-3,1.923189759E-1,1.923326027E-1
1.124196725E1,-3.283051774E-4,1.006626524E-3,1.949400753E-1,1.949429507E-1
1.125192425E1,-2.095312811E-3,1.199705526E-3,1.929829270E-1,1.929980304E-1
1.126188125E1,7.971581072E-4,2.322624903E-3,1.916832030E-1,1.916989315E-1
1.127183725E1,2.424218692E-4,-7.235538214E-5,1.881254911E-1,1.881256613E-1
1.128179425E1,2.771615982E-6,1.705920324E-3,1.881334633E-1,1.881411974E-1
1.129175125E1,-1.517094206E-3,2.130428329E-3,1.884583682E-1,1.884765153E-1
1.130170825E1,1.993521350E-3,2.725692466E-4,1.913496107E-1,1.913601890E-1
1.131166525E1,2.914951183E-4,-2.460899763E-3,1.892552972E-1,1.892715206E-1
1.132162225E1,-6.514056586E-4,7.695667446E-4,1.868487298E-1,1.868514501E-1
1.133157925E1,8.737868629E-4,-1.382000744E-3,1.818028390E-1,1.818101914E-1
1.134153525E1,-1.426483970E-3,5.674203858E-4,1.758948565E-1,1.759015558E-1
1.135149225E1,1.043331344E-3,-6.741452962E-4,1.722479165E-1,1.722523954E-1
1.136144925E1,2.614818513E-4,-9.508151561E-5,1.694154888E-1,1.694157173E-1
1.137140625E1,-1.457854640E-3,1.099612564E-3,1.643892974E-1,1.643994391E-1
1.138136325E1,-1.453939825E-3,-5.486328155E-4,1.627354920E-1,1.627429117E-1
1.139132025E1,9.812545031E-4,-1.995261759E-3,1.609964520E-1,1.610118054E-1
1.140127725E1,-4.703486338E-4,-2.157040872E-3,1.557811350E-1,1.557967781E-1
1.141123325E1,-1.335004345E-5,8.560717106E-5,1.574613303E-1,1.574613541E-1
1.142119025E1,-1.495369710E-3,-3.568949178E-4,1.534839272E-1,1.534916266E-1
1.143114725E1,-1.394702122E-3,-2.257592976E-3,1.521169245E-1,1.521400692E-1
1.144110425E1,4.556211643E-4,-2.411802299E-3,1.472977102E-1,1.473181584E-1
1.145106125E1,1.771489158E-3,-1.875441521E-3,1.467863768E-1,1.468090456E-1
1.146101825E1,5.102190189E-4,-1.085918397E-3,1.454417706E-1,1.454467193E-1
1.147097525E1,4.779947922E-4,7.844194770E-4,1.425642222E-1,1.425671815E-1
1.148093125E1,-1.422059722E-4,-2.000397071E-3,1.382168531E-1,1.382314013E-1
1.149088825E1,1.775270095E-3,-4.698783159E-4,1.344002783E-1,1.344128237E-1
1.150084525E1,9.911465459E-4,-5.884151906E-4,1.337045878E-1,1.337095562E-1
1.151080225E1,6.931389216E-4,9.317165241E-4,1.336460114E-1,1.336510564E-1
1.152075925E1,5.489112809E-4,-1.519874670E-3,1.306769550E-1,1.306869461E-1
1.153071625E1,-2.337955404E-3,-2.545458265E-3,1.311198324E-1,1.311653759E-1
1.154067325E1,2.071300754E-3,-2.572995611E-3,1.242439747E-1,1.242878749E-1
1.155063025E1,-1.227290835E-3,-4.315235652E-3,1.200290024E-1,1.201128175E-1
1.156058625E1,1.270589652E-3,-2.504157834E-3,1.174478978E-1,1.174814619E-1
1.157054325E1,2.650373382E-3,-3.114288673E-3,1.157360151E-1,1.158082401E-1
1.158050025E1,-6.028185599E-4,2.159010619E-4,1.133914515E-1,1.133932594E-1
1.159045725E1,-2.502717543E-3,-1.921019517E-3,1.113695800E-1,1.114142597E-1
1.160041425E1,3.758411622E-3,-9.144423530E-4,1.094928384E-1,1.095611406E-1
1.161037125E1,3.761607455E-3,-1.759729348E-3,1.051199287E-1,1.052019285E-1
1.162032825E1,5.295765586E-4,1.423219219E-4,1.007125601E-1,1.007140530E-1
1.163028425E1,4.667257890E-4,-1.693661325E-3,9.751942754E-2,9.753525039E-2
1.164024125E1,4.869541153E-4,1.109370030E-3,9.551072866E-2,9.551841244E-2
1.165019825E1,1.018787269E-3,8.313357830E-4,8.914630860E-2,8.915600588E-2
1.166015525E1,1.569968415E-3,1.763232052E-3,8.923310041E-2,8.926432657E-2
1.167011225E1,6.184210069E-4,-1.162515953E-3,8.794066310E-2,8.795052083E-2
1.168006925E1,1.005541999E-3,-4.483080469E-3,8.691453934E-2,8.703589072E-2
1.169002625E1,2.139516175E-3,-4.269228317E-3,8.652305603E-2,8.665473481E-2
1.169998325E1,4.040357657E-3,-1.205886714E-3,8.383090049E-2,8.393687229E-2
1.170993925E1,6.610723212E-4,-1.099626534E-3,8.250517398E-2,8.251514969E-2
1.171989625E1,1.246119849E-3,1.690322533E-4,7.745116204E-2,7.746137029E-2
1.172985325E1,9.433182422E-4,1.463955268E-4,7.243829221E-2,7.244458198E-2
1.173981025E1,2.923649503E-3,-3.309389576E-4,6.851091981E-2,6.857407221E-2
1.174976725E1,5.912531633E-4,-1.158383675E-3,6.657107919E-2,6.658378195E-2
1.175972425E1,1.212754287E-4,-1.565440558E-3,6.538493186E-2,6.540378144E-2
1.176968125E1,3.838629927E-4,-2.577175386E-3,6.084371358E-2,6.089948002E-2
1.177963725E1,5.097938702E-4,-1.779754646E-3,6.235218421E-2,6.237966248E-2
1.178959425E1,1.562008867E-3,-2.062582411E-3,5.794465169E-2,5.800238597E-2
1.179955125E1,2.416621428E-3,-1.395160332E-3,5.564857274E-2,5.571849047E-2
1.180950825E1,2.615825739E-3,-2.609562129E-3,5.436306447E-2,5.448848628E-2
1.181946525E1,3.172769211E-3,4.655774683E-4,5.169580132E-2,5.179516484E-2
1.182942225E1,1.590318745E-3,-4.013593309E-3,4.659371823E-2,4.679329678E-2
1.183937925E1,1.286960207E-3,-4.421770573E-4,4.349754751E-2,4.351882841E-2
1.184933525E1,4.930719733E-4,-2.558058128E-3,4.255825281E-2,4.263791345E-2
1.185929225E1,2.351767384E-3,-1.065265387E-4,3.959178925E-2,3.966171874E-2
1.186924925E1,1.419394510E-3,-3.739611246E-3,3.877206892E-2,3.897784885E-2
1.187920625E1,1.489854651E-3,-1.257831231E-3,3.405379876E-2,3.410957368E-2
1.188916325E1,2.819038462E-3,-3.110592254E-3,3.408149630E-2,3.433906161E-2
1.189912012E1,3.350357525E-3,6.424123421E-4,3.159701824E-2,3.178064113E-2
1.190907713E1,1.223823288E-3,-2.954718657E-3,2.671624348E-2,2.690698369E-2
1.191903412E1,1.420087647E-3,-3.031744622E-3,2.471638843E-2,2.494209257E-2
1.192899013E1,2.309050877E-3,-1.101485454E-3,2.152618766E-2,2.167767841E-2
1.193894712E1,2.728916705E-3,-2.383226529E-4,1.984260045E-2,2.003079072E-2
1.194890413E1,1.833295682E-3,-2.314257436E-3,1.905989647E-2,1.928720856E-2
1.195886113E1,2.094468335E-3,-1.539665274E-3,1.486300677E-2,1.508861614E-2
1.196881812E1,-1.607059035E-3,-6.291307509E-4,1.273354329E-2,1.284996377E-2
1.197877513E1,6.721661892E-3,-1.461938955E-3,9.060053155E-3,1.137552492E-2
1.198873212E1,3.238513367E-3,-3.152247518E-3,5.977444816E-3,7.493629280E-3
1.199868813E1,1.779333688E-3,-2.649240196E-5,4.142717924E-3,4.508751714E-3
1.200864512E1,5.395107437E-3,-3.145586699E-3,1.377824228E-3,6.395334201E-3
1.201860213E1,1.615403686E-3,-7.336661220E-4,-4.328517243E-4,1.826240855E-3
1.202855912E1,-8.083391003E-4,-2.321975306E-3,-2.787352307E-3,3.716761265E-3
1.203851613E1,3.145434428E-3,-3.239231184E-3,-6.767520681E-4,4.565563467E-3
1.204847312E1,7.073103916E-4,-1.520849764E-5,8.479226381E-6,7.075246891E-4
1.205843013E1,9.307514410E-4,-1.474321820E-3,2.648951020E-3,3.171255994E-3
1.206838612E1,7.501891814E-4,-1.151546836E-3,5.742907524E-5,1.375551534E-3
1.207834312E1,1.731116092E-3,-1.853685826E-4,-1.657952322E-3,2.404148568E-3