"Time (s)","Gyroscope x (rad/s)","Gyroscope y (rad/s)","Gyroscope z (rad/s)","Absolute (rad/s)"
5.428166667E-3,5.767564289E-5,6.813425571E-4,-3.122659028E-2,3.123407585E-2
1.538416667E-2,3.182047512E-4,-9.470190853E-4,-3.439920396E-2,3.441370849E-2
2.534116667E-2,1.896393951E-3,-7.840329781E-4,-3.645835817E-2,3.651606356E-2
3.529816667E-2,-1.204832457E-3,1.002758741E-3,-3.350637481E-2,3.354302161E-2
4.525516667E-2,-2.349091228E-4,-1.251873560E-3,-3.529708460E-2,3.532005876E-2
5.521279167E-2,1.009048312E-3,1.933488064E-3,-2.754442208E-2,2.763063050E-2
6.516979167E-2,1.850607106E-3,-1.156044193E-3,-2.906082571E-2,2.914262815E-2
7.512679167E-2,-2.611045726E-3,-3.422042355E-4,-3.203130886E-2,3.213937477E-2
8.508379167E-2,-9.902459569E-4,-1.278193668E-4,-3.476477787E-2,3.477911306E-2
9.504079167E-2,-9.424323216E-4,-1.621961594E-3,-3.450847417E-2,3.455942314E-2
1.049977917E-1,-3.341664560E-4,8.369348943E-4,-3.310418874E-2,3.311645270E-2
1.149547917E-1,-1.154905185E-3,2.171971835E-3,-2.997834235E-2,3.007910035E-2
1.249117917E-1,2.252609469E-3,1.109521836E-4,-2.855195291E-2,2.864088991E-2
1.348687917E-1,3.912442829E-3,1.316951588E-3,-3.154981136E-2,3.181873925E-2
1.448257917E-1,5.339566851E-4,2.049587667E-3,-3.499833867E-2,3.506236770E-2
1.547827917E-1,1.188325114E-3,-4.829186946E-5,-3.491404653E-2,3.493429681E-2
1.647397917E-1,1.269018976E-3,7.735593244E-4,-3.278644755E-2,3.282011497E-2
1.746967917E-1,-6.313596386E-4,-3.159772605E-4,-3.254617751E-2,3.255383429E-2
1.846527917E-1,1.929269638E-3,-9.200535715E-5,-2.922574617E-2,2.928949958E-2
1.946097917E-1,8.457708173E-4,-8.485224098E-4,-3.152869269E-2,3.155144658E-2
2.045667917E-1,-1.547788270E-4,-8.397335187E-4,-3.034251742E-2,3.035452968E-2
2.145237917E-1,-2.522601280E-4,-1.093962230E-3,-3.194528446E-2,3.196500567E-2
2.244807917E-1,7.568116998E-4,1.007005572E-3,-3.285368532E-2,3.287782632E-2
2.344377917E-1,1.831909409E-3,9.543718770E-4,-3.375836834E-2,3.382150427E-2
2.443947917E-1,-2.491466468E-3,-1.462713815E-3,-3.574029356E-2,3.585687550E-2
2.543517917E-1,3.750001313E-3,1.760208979E-4,-3.007034212E-2,3.030377812E-2
2.643087917E-1,-2.212816384E-3,1.747019589E-3,-2.942718752E-2,2.956193497E-2
2.742657917E-1,-4.451521672E-4,6.348546594E-5,-2.874896675E-2,2.875248303E-2
2.842227917E-1,6.877565756E-4,-1.085935161E-3,-3.156019747E-2,3.158636302E-2
2.941797917E-1,-9.446963668E-5,1.032841392E-3,-3.472611308E-2,3.474159777E-2
3.041367917E-1,3.615580034E-3,-2.838252112E-4,-3.622120991E-2,3.640232167E-2
3.140937917E-1,-4.717353731E-4,8.336547762E-5,-3.423553333E-2,3.423888471E-2
3.240507917E-1,6.180302007E-4,-2.740384080E-3,-3.290315345E-2,3.302285834E-2
3.340077917E-1,-1.011798158E-4,-1.154120080E-3,-3.015005589E-2,3.017230685E-2
3.439647917E-1,7.325713523E-5,5.409820005E-4,-2.887839638E-2,2.888355597E-2
3.539207917E-1,5.104931770E-4,7.120734081E-4,-3.229788318E-2,3.230976493E-2
3.638777917E-1,2.192812040E-3,-1.112458296E-3,-3.413413092E-2,3.422257854E-2
3.738347917E-1,5.963915028E-4,-2.702139318E-4,-3.505212441E-2,3.505823903E-2
3.837917917E-1,3.999112174E-3,1.692535356E-3,-3.209228441E-2,3.238475402E-2
3.937487917E-1,-8.319716435E-4,-1.349365339E-4,-3.244194761E-2,3.245289431E-2
4.037057917E-1,5.765742389E-4,-1.827641390E-3,-3.177722171E-2,3.183495768E-2
4.136627917E-1,7.852310082E-4,4.871608689E-4,-2.999155782E-2,3.000579034E-2
4.236197917E-1,-1.972091850E-4,4.800595343E-5,-2.770097181E-2,2.770171539E-2
4.335767917E-1,3.061899217E-3,4.239454865E-4,-3.300571069E-2,3.315014170E-2
4.435337917E-1,3.108538222E-4,2.478573471E-3,-3.362702578E-2,3.371968000E-2
4.534907917E-1,-1.108101569E-4,1.871221699E-3,-3.530064970E-2,3.535038358E-2
4.634477917E-1,-2.759259660E-4,-2.256145701E-3,-3.536083549E-2,3.543381175E-2
4.734047917E-1,1.305143815E-4,-3.593424335E-4,-3.147403151E-2,3.147635335E-2
4.833617917E-1,-2.257275861E-3,-2.802461386E-4,-2.852857485E-2,2.861910927E-2
4.933187917E-1,1.670078840E-3,3.183232620E-4,-2.921986766E-2,2.926928696E-2
5.032757917E-1,6.096081343E-4,1.279990189E-3,-2.684912272E-2,2.688652800E-2
5.132327917E-1,1.829456189E-3,-1.925097778E-3,-3.210327029E-2,3.221293024E-2
5.231897917E-1,-3.793695942E-4,-2.421776764E-3,-3.575739637E-2,3.584132139E-2
5.331457917E-1,-1.023924211E-3,-2.040909603E-4,-3.462138399E-2,3.463712320E-2
5.431027917E-1,7.076631300E-4,-6.730733439E-4,-3.237367421E-2,3.238840220E-2
5.530597917E-1,1.319496194E-3,2.052682452E-3,-3.001258336E-2,3.011162127E-2
5.630167917E-1,7.194860373E-4,6.635775790E-4,-2.891722508E-2,2.893378478E-2
5.729737917E-1,1.312618959E-3,8.741943166E-4,-3.240974620E-2,3.244809444E-2
5.829307917E-1,-2.122326288E-3,9.218649939E-4,-3.281827644E-2,3.289974730E-2
5.928877917E-1,1.468679635E-3,5.680238828E-4,-3.207778186E-2,3.211640951E-2
6.028447917E-1,2.113963710E-3,-8.205482736E-4,-3.179974854E-2,3.188049795E-2
6.128017917E-1,7.495516911E-5,1.770069823E-3,-3.231227770E-2,3.236081050E-2
6.227587917E-1,2.316271421E-3,-1.072854735E-3,-3.255675361E-2,3.265667368E-2
6.327157917E-1,-2.226652112E-3,5.600247532E-4,-3.479700536E-2,3.487267109E-2
6.426727917E-1,1.027996768E-3,-3.702174872E-4,-3.160654008E-2,3.162542038E-2
6.526297917E-1,2.852681093E-3,-1.098261215E-3,-2.978950553E-2,2.994592805E-2
6.625867917E-1,1.723234542E-3,-1.230118796E-4,-2.933969721E-2,2.939051721E-2
6.725437917E-1,-1.094052335E-3,5.599195138E-4,-2.937059104E-2,2.939629362E-2
6.825007917E-1,2.257269574E-3,-1.617968082E-4,-3.085157461E-2,3.093446460E-2
6.924577917E-1,-1.398895402E-4,-4.540458322E-4,-3.548215702E-2,3.548533773E-2
7.024137917E-1,1.480111270E-3,1.487132162E-3,-3.557909653E-2,3.564090909E-2
7.123707917E-1,1.391491736E-3,3.656521440E-4,-3.187386692E-2,3.190632136E-2
7.223277917E-1,5.507317837E-4,1.168062910E-3,-3.223552182E-2,3.226137851E-2
7.322847917E-1,-1.192961354E-4,1.522900537E-3,-2.897657268E-2,2.901680930E-2
7.422417917E-1,9.132113773E-4,7.117008790E-4,-3.147541732E-2,3.149670409E-2
7.521987917E-1,-1.752707176E-4,1.473764889E-3,-3.162645921E-2,3.166126379E-2
7.621557917E-1,6.127585657E-4,-2.096192911E-4,-3.192446753E-2,3.193103570E-2
7.721127917E-1,1.958417939E-3,-2.889130265E-4,-3.245350718E-2,3.251382783E-2
7.820697917E-1,1.142425346E-3,-1.046315767E-3,-3.119516000E-2,3.123360242E-2
7.920267917E-1,1.898832852E-3,-4.105418921E-4,-2.979654633E-2,2.985981051E-2
8.019837917E-1,2.658100100E-3,9.431429207E-4,-2.649183013E-2,2.664154797E-2
8.119407917E-1,-2.193834167E-3,-1.069257967E-3,-3.133499250E-2,3.142988985E-2
8.218977917E-1,-1.936039887E-3,-2.228265628E-3,-3.252196312E-2,3.265565040E-2
8.318547917E-1,3.988917451E-4,5.660979077E-4,-3.139983863E-2,3.140747438E-2
8.418117917E-1,1.423143549E-3,-9.178156033E-4,-3.458338231E-2,3.462481848E-2
8.517687917E-1,1.375151798E-3,-1.020058058E-3,-3.250663355E-2,3.255169405E-2
8.617257917E-1,-3.255428746E-4,8.300403133E-4,-3.208345547E-2,3.209584179E-2
8.716817917E-1,-1.191297546E-3,1.349095255E-4,-3.374660015E-2,3.376789025E-2
8.816387917E-1,1.874267240E-3,-3.227598034E-3,-3.154816106E-2,3.176817170E-2
8.915957917E-1,2.443691250E-3,1.786168665E-3,-3.158182651E-2,3.172654710E-2
9.015527917E-1,1.302030869E-4,-2.522151917E-4,-3.327879310E-2,3.328000354E-2
9.115097917E-1,-1.677578781E-3,4.509352148E-4,-3.359757364E-2,3.364245187E-2
9.214667917E-1,1.656432752E-3,-2.657212317E-4,-3.204654530E-2,3.209042603E-2
9.314237917E-1,1.543386141E-3,-1.255638897E-3,-3.164575621E-2,3.170824114E-2
9.413807917E-1,2.786017023E-3,3.795418888E-4,-3.285057098E-2,3.297068329E-2
9.513377917E-1,4.593462218E-4,-6.511285901E-4,-3.528248891E-2,3.529148610E-2
9.612947917E-1,-3.638367634E-4,-5.515264347E-4,-3.137749434E-2,3.138445012E-2
9.712517917E-1,2.708791289E-3,1.545864157E-3,-3.283886611E-2,3.298663932E-2
9.812087917E-1,-1.331490465E-3,8.318703622E-4,-3.261595964E-2,3.265372412E-2
9.911657917E-1,-7.681678981E-4,-3.132438287E-4,-3.140592575E-2,3.141688043E-2
1.001122792E0,2.356252633E-3,-1.802217215E-3,-3.431489691E-2,3.444288117E-2
1.011079792E0,7.919410709E-4,-8.253147826E-4,-3.086297214E-2,3.088416041E-2
1.021036792E0,2.708618063E-3,9.629977867E-4,-3.094073571E-2,3.107399400E-2
1.030993792E0,2.576918341E-3,-6.804112345E-4,-3.055943921E-2,3.067544283E-2
1.040949792E0,-9.690807201E-4,5.385177210E-4,-3.092668764E-2,3.094655275E-2
1.050906667E0,1.276740106E-3,-1.399029978E-3,-3.116940707E-2,3.122690006E-2
1.060863667E0,1.090585138E-3,2.629403025E-5,-3.286717087E-2,3.288527008E-2
1.070820667E0,1.374037005E-3,-1.082119532E-3,-3.121703677E-2,3.126599343E-2
1.080777667E0,-8.933783974E-4,-2.925027162E-3,-2.799008600E-2,2.815668346E-2
1.090734667E0,-7.294749375E-4,-9.984979406E-4,-3.009402379E-2,3.011941898E-2
1.100691667E0,2.020481043E-5,-7.212627679E-4,-2.669902705E-2,2.670877521E-2
1.110648667E0,-1.738987165E-3,-1.932071522E-3,-2.577580884E-2,2.590654933E-2
1.120605667E0,2.733258996E-3,9.183101356E-4,-2.852738649E-2,2.867273580E-2
1.130562667E0,1.455778489E-3,-2.086364664E-3,-2.937700972E-2,2.948696167E-2
1.140519667E0,-2.622266766E-4,-1.225499436E-4,-2.969818749E-2,2.969959800E-2
1.150476667E0,-1.877565635E-3,-3.567151725E-4,-3.111569211E-2,3.117432908E-2
1.160433667E0,8.556365501E-4,-7.974635810E-5,-3.092793748E-2,3.093987379E-2
1.170390667E0,6.274111802E-4,-7.258262485E-5,-3.053553402E-2,3.054206527E-2
1.180347667E0,1.790946233E-3,4.810886458E-4,-2.942020446E-2,2.947859164E-2
1.190304667E0,9.534561541E-4,-4.382617772E-5,-2.991608717E-2,2.993130920E-2
1.200260667E0,1.009116299E-3,-2.758919261E-3,-2.831180021E-2,2.846380126E-2
1.210217667E0,2.596858190E-3,3.009429201E-4,-2.656049840E-2,2.668884251E-2
1.220174667E0,7.771202363E-4,-7.771048695E-4,-2.572453208E-2,2.574799718E-2
1.230131667E0,1.551667228E-4,-9.755883366E-5,-2.563203871E-2,2.563269403E-2
1.240088667E0,-2.155452967E-4,-1.367620192E-3,-2.855405957E-2,2.858760505E-2
1.250045667E0,-1.359712332E-4,-8.024098352E-4,-2.980439737E-2,2.981550691E-2
1.260002667E0,3.013197565E-4,-1.379250549E-3,-3.191974759E-2,3.195095322E-2
1.269959667E0,-2.735294402E-6,-9.381845593E-4,-3.003455512E-2,3.004920463E-2
1.279916667E0,-1.306086313E-3,-2.924818546E-5,-2.938181348E-2,2.941084290E-2
1.289873667E0,9.363439167E-4,1.977483742E-3,-2.711667866E-2,2.720480552E-2
1.299830667E0,-7.672258653E-5,-1.626306213E-3,-2.820990607E-2,2.825684977E-2
1.309787667E0,7.842684863E-4,9.194957092E-4,-3.074374050E-2,3.076748494E-2
1.319744667E0,-3.856581170E-4,-1.774824224E-3,-3.106784821E-2,3.112089210E-2
1.329701667E0,-1.195561606E-3,-4.464108497E-4,-3.073881380E-2,3.076529415E-2
1.339658667E0,2.655102871E-3,-6.397562101E-4,-2.900429629E-2,2.913259450E-2
1.349615667E0,9.176786989E-5,9.071612731E-4,-2.665831707E-2,2.667390545E-2
1.359571667E0,-4.142327234E-4,1.991334371E-3,-2.645804733E-2,2.653611256E-2
1.369528667E0,-1.395090017E-3,-2.984786406E-4,-2.613827214E-2,2.617717777E-2
1.379485667E0,4.299742868E-4,2.802265808E-4,-2.936575748E-2,2.937024204E-2
1.389442667E0,1.732180594E-3,5.415510386E-4,-2.890855819E-2,2.896547020E-2
1.399399667E0,1.828054432E-3,1.139697619E-3,-2.814183384E-2,2.822416528E-2
1.409356667E0,2.452347195E-3,3.906153142E-5,-2.540280297E-2,2.552093124E-2
1.419313667E0,2.553813625E-3,-1.319134608E-4,-2.721934579E-2,2.733920538E-2
1.429270667E0,-1.049463637E-3,-1.984789036E-3,-3.022369929E-2,3.030697543E-2
1.439227667E0,2.275221050E-4,4.264367744E-4,-2.661298402E-2,2.661737276E-2
1.449184667E0,1.430606935E-4,1.068942249E-3,-2.931179479E-2,2.933162828E-2
1.459141667E0,1.602806151E-5,9.682746604E-4,-2.762707695E-2,2.764404445E-2
1.469098667E0,1.899687923E-3,-8.748257533E-4,-2.703670599E-2,2.711747785E-2
1.479055667E0,1.539858058E-4,-7.966533303E-6,-2.743298374E-2,2.743341707E-2
1.489012667E0,-6.110337563E-4,6.692213938E-4,-2.798281610E-2,2.799748589E-2
1.498969667E0,4.759230651E-3,-8.487803861E-4,-2.882357687E-2,2.922617471E-2
1.508925667E0,2.566077979E-3,1.300964504E-5,-2.923424169E-2,2.934664909E-2
1.518882667E0,-1.488584792E-3,8.764071390E-4,-2.704512700E-2,2.710023743E-2
1.528839667E0,-7.086233236E-4,-2.260939218E-3,-2.775572613E-2,2.785667471E-2
1.538796667E0,8.538531838E-4,1.976918429E-4,-2.555355802E-2,2.556858375E-2
1.548753667E0,-9.361598641E-4,-3.766361624E-5,-2.469705045E-2,2.471481570E-2
1.558710667E0,3.422902199E-3,7.652798668E-4,-2.571730688E-2,2.595538068E-2
1.568667667E0,3.079466987E-4,3.644609824E-4,-2.926047146E-2,2.926436149E-2
1.578624667E0,2.333546989E-3,4.416927695E-4,-2.650356665E-2,2.660976474E-2
1.588581667E0,-7.680177223E-4,-1.333391294E-3,-2.547786385E-2,2.552428902E-2
1.598538667E0,8.216231363E-4,1.758272760E-3,-2.491407096E-2,2.498954821E-2
1.608495667E0,6.453968817E-4,1.030459069E-3,-2.673832700E-2,2.676595811E-2
1.618452667E0,-7.863184437E-4,1.645915210E-3,-2.463070117E-2,2.469815324E-2
1.628409667E0,2.204852179E-3,-2.577689476E-3,-2.845031768E-2,2.865181377E-2
1.638366667E0,2.066823654E-4,-9.225355461E-4,-2.715522423E-2,2.717167629E-2
1.648323667E0,1.823864062E-3,7.906705141E-4,-2.401551977E-2,2.409765195E-2
1.658279667E0,1.453951001E-3,-1.885928214E-6,-2.471779473E-2,2.476052006E-2
1.668236667E0,-3.103669500E-3,1.824040897E-3,-2.047172561E-2,2.078584709E-2
1.678193667E0,-2.207974903E-4,2.239760011E-3,-2.194791660E-2,2.206300794E-2
1.688150667E0,-1.055169851E-4,-6.454382092E-4,-2.523220889E-2,2.524068323E-2
1.698107667E0,3.653297899E-4,-2.983693965E-3,-2.671106346E-2,2.687967274E-2
1.708064667E0,-1.777197467E-3,2.054683864E-5,-2.495649084E-2,2.501969801E-2
1.718021667E0,-1.360412687E-3,2.909810282E-3,-2.570217662E-2,2.590211577E-2
1.727978667E0,1.742198016E-3,-4.826439545E-4,-2.235210687E-2,2.242509489E-2
1.737935667E0,8.668169612E-4,-2.695729956E-3,-2.166873962E-2,2.185297710E-2
1.747892667E0,2.546572592E-3,1.446417533E-3,-2.489944175E-2,2.507108604E-2
1.757849667E0,2.724995138E-4,-1.204227097E-3,-2.561423182E-2,2.564397182E-2
1.767806667E0,-9.368634783E-4,-2.227301709E-3,-2.755360305E-2,2.765934973E-2
1.777763667E0,-1.006105682E-3,9.067067876E-4,-2.328056283E-2,2.331992649E-2
1.787720667E0,5.020378157E-4,-1.285025850E-3,-2.436934970E-2,2.440837025E-2
1.797677667E0,9.616994066E-4,-3.278851509E-4,-1.964863017E-2,1.967488353E-2
1.807633667E0,-9.337293450E-4,6.469571963E-4,-2.188982256E-2,2.191927772E-2
1.817590667E0,1.038607792E-3,1.287180930E-3,-2.311008237E-2,2.316919179E-2
1.827547667E0,1.353000524E-3,-8.130446076E-5,-2.575325780E-2,2.578890281E-2
1.837504667E0,2.146356273E-3,8.180448785E-4,-2.651358955E-2,2.661290051E-2
1.847461667E0,-1.949388534E-4,-1.289543696E-3,-2.590980940E-2,2.594261257E-2
1.857418667E0,-1.627146266E-4,-8.053807542E-4,-2.284637652E-2,2.286114683E-2
1.867375667E0,4.059709609E-4,2.271248028E-3,-1.908188686E-2,1.922086850E-2
1.877332667E0,1.530890237E-3,-1.796997152E-3,-2.238926664E-2,2.251337568E-2
1.887289667E0,3.937470028E-4,2.001244575E-4,-2.367591299E-2,2.368003257E-2
1.897246667E0,5.727114622E-4,1.130392775E-4,-2.711645141E-2,2.712273426E-2
1.907203667E0,3.590680426E-3,1.146186143E-3,-2.512021735E-2,2.540141824E-2
1.917160667E0,1.080917427E-3,1.021284610E-3,-2.311912179E-2,2.316689874E-2
1.927117667E0,-1.166793983E-3,-2.775993198E-5,-2.374615148E-2,2.377481627E-2
1.937074667E0,4.785069032E-4,2.191985026E-3,-2.376372740E-2,2.386940525E-2
1.947031667E0,1.028916682E-3,1.822198741E-3,-2.134907618E-2,2.145138997E-2
1.956987667E0,3.258515149E-3,8.781077340E-4,-2.350170910E-2,2.374277416E-2
1.966944667E0,4.885544768E-4,-1.496123150E-4,-2.055154927E-2,2.055789986E-2
1.976901667E0,-1.307747560E-3,-3.480184823E-4,-2.186368965E-2,2.190553002E-2
1.986858667E0,1.447389368E-3,-1.022003591E-3,-2.281053551E-2,2.287924731E-2
1.996815667E0,3.456397681E-4,9.980034083E-4,-2.268989384E-2,2.271446148E-2
2.006772667E0,2.440009499E-3,-9.258138016E-4,-2.270294912E-2,2.285245449E-2
2.016729667E0,5.550241331E-4,2.193460241E-4,-1.931540854E-2,1.932462604E-2
2.026686667E0,-1.680285204E-4,8.617518470E-4,-2.029301971E-2,2.031200381E-2
2.036643667E0,2.402339596E-4,1.698620617E-4,-1.924160309E-2,1.924385240E-2
2.046600667E0,2.453837544E-3,-1.888525672E-3,-2.117762156E-2,2.140279194E-2
2.056557750E0,-7.456750609E-5,-5.356399342E-4,-2.360642515E-2,2.361261906E-2
2.066514750E0,7.371406537E-4,-1.065528952E-3,-2.480854094E-2,2.484235158E-2
2.076471750E0,-4.085511900E-4,-6.106607616E-4,-2.280477993E-2,2.281661255E-2
2.086428750E0,2.262106864E-3,4.069553688E-4,-2.278161794E-2,2.289726744E-2
2.096384750E0,3.989593824E-4,-2.005602233E-3,-2.241569944E-2,2.250878029E-2
2.106341750E0,3.055634210E-3,-4.415297881E-4,-2.237679437E-2,2.258877542E-2
2.116298750E0,2.585852519E-3,8.980408311E-4,-2.228571475E-2,2.245320005E-2
2.126255750E0,-5.528866313E-4,2.302170731E-3,-2.121733874E-2,2.134903129E-2
2.136212750E0,-9.624806698E-4,7.530096918E-4,-2.348608710E-2,2.351785874E-2
2.146169750E0,-2.489804756E-4,-1.780291088E-3,-2.426629141E-2,2.433278296E-2
2.156126750E0,-1.023427583E-3,8.192202076E-4,-2.278504148E-2,2.282272203E-2
2.166083750E0,-1.545782667E-3,2.889055759E-4,-2.150187083E-2,2.155929868E-2
2.176040750E0,1.190349110E-3,-2.683981322E-3,-1.917480119E-2,1.939829083E-2
2.185997750E0,5.766284885E-4,-1.364890486E-3,-2.033420093E-2,2.038811306E-2
2.195954750E0,9.065940976E-4,-6.964365020E-4,-2.269536071E-2,2.272413550E-2
2.205911750E0,-9.474465623E-4,3.090370446E-4,-2.620889992E-2,2.622784005E-2
2.215868750E0,1.130242599E-4,-5.373163149E-4,-2.747150511E-2,2.747699176E-2
2.225825750E0,7.259888807E-4,5.351165310E-4,-2.628645673E-2,2.630192421E-2
2.235781750E0,3.584725782E-4,9.258016944E-4,-2.200196497E-2,2.202435184E-2
2.245738750E0,-4.328528885E-4,1.999385655E-3,-1.922091469E-2,1.932947144E-2
2.255695750E0,-2.535951091E-3,-9.437091649E-6,-2.081907727E-2,2.097296153E-2
2.265652750E0,8.131529903E-4,1.007104293E-4,-1.983945630E-2,1.985636892E-2
2.275609750E0,2.120498801E-3,-9.312648326E-4,-2.595647238E-2,2.605958994E-2
2.285566750E0,-1.346366480E-4,1.616246998E-3,-2.659321949E-2,2.664262945E-2
2.295523750E0,5.146419862E-4,-1.373684034E-3,-2.363657951E-2,2.368205555E-2
2.305480750E0,1.366643468E-3,-3.093378618E-4,-1.971988007E-2,1.976959975E-2
2.315437750E0,-1.239792211E-3,2.987389453E-3,-1.611369476E-2,1.643510691E-2
2.325394750E0,1.933433814E-4,-2.813246101E-5,-2.000213601E-2,2.000309021E-2
2.335351750E0,1.791772665E-3,1.129543409E-3,-1.690141857E-2,1.703362167E-2
2.345308750E0,-2.602036344E-3,-1.634674147E-3,-2.303201333E-2,2.323610102E-2
2.355265750E0,4.843008937E-4,2.980232239E-5,-2.616655454E-2,2.617105294E-2
2.365222750E0,-1.284786966E-3,2.132822759E-3,-2.491662651E-2,2.504072458E-2
2.375179750E0,1.296614995E-3,4.755379632E-4,-2.111789398E-2,2.116300529E-2
2.385135750E0,3.947835648E-4,1.090196893E-3,-2.007217705E-2,2.010563789E-2
2.395092750E0,-1.341597410E-3,1.149052754E-3,-1.912782155E-2,1.920921037E-2
2.405049750E0,1.953876344E-3,-5.771592259E-5,-1.931501366E-2,1.941367345E-2
2.415006750E0,-1.177964732E-4,-4.892703146E-5,-2.402081899E-2,2.402115765E-2
2.424963750E0,8.767046966E-4,-2.019925974E-3,-2.582624368E-2,2.591994550E-2
2.434920750E0,2.359552775E-3,-8.428087458E-4,-2.619935013E-2,2.631888606E-2
2.444877750E0,-1.432477962E-3,-1.730466262E-3,-2.369836718E-2,2.380460278E-2
2.454834750E0,-9.373961948E-4,1.136426814E-3,-1.904449239E-2,1.910138393E-2
2.464791750E0,-3.866862040E-3,2.534296364E-4,-1.745068282E-2,1.787577074E-2
2.474748750E0,-1.058025751E-3,3.098882735E-4,-1.766186953E-2,1.769624492E-2
2.484705750E0,-5.623332690E-4,7.698386908E-4,-1.808650978E-2,1.811161799E-2
2.494662750E0,9.263737593E-4,3.493260592E-4,-2.144981548E-2,2.147265194E-2
2.504619750E0,-2.253407147E-4,-1.258445904E-3,-2.595671266E-2,2.598817802E-2
2.514576750E0,1.447124407E-3,-1.060040668E-3,-2.435375378E-2,2.441972928E-2
2.524532750E0,-4.678918049E-5,6.975149736E-4,-2.266000956E-2,2.267079067E-2
2.534489750E0,-2.234043553E-3,-1.565107144E-3,-1.904343814E-2,1.923780255E-2
2.544446750E0,6.811954081E-4,-1.747677103E-3,-2.121916041E-2,2.130190533E-2
2.554403750E0,1.642330200E-3,3.671394661E-4,-2.159919403E-2,2.166465377E-2
2.564360750E0,-1.752135344E-3,-1.438930631E-3,-2.643859759E-2,2.653563533E-2
2.574317750E0,-6.008509081E-4,2.870643511E-4,-2.278340980E-2,2.279313910E-2
2.584274750E0,4.643182037E-4,2.071772702E-3,-2.608892694E-2,2.617517798E-2
2.594231750E0,-2.102605067E-4,7.180878893E-4,-2.071306854E-2,2.072657879E-2
2.604188750E0,1.931375242E-3,1.889121719E-3,-1.791497692E-2,1.811754369E-2
2.614145750E0,1.386492513E-3,-4.557911307E-4,-1.878183521E-2,1.883845644E-2
2.624102750E0,2.317658160E-3,1.883184537E-3,-2.116310969E-2,2.137276620E-2
2.634059750E0,1.585821388E-3,1.107672229E-3,-2.437514812E-2,2.445178139E-2
2.644016750E0,6.506381324E-4,-4.977826029E-5,-2.368201129E-2,2.369099970E-2
2.653972750E0,1.934814383E-3,-2.877789550E-3,-2.705037780E-2,2.727174579E-2
2.663929750E0,-6.780666299E-4,-8.449265733E-4,-2.140424773E-2,2.143164707E-2
2.673886750E0,-1.612303546E-3,-1.063305885E-3,-2.000022866E-2,2.009326475E-2
2.683843750E0,-9.786761366E-4,1.146327704E-4,-1.924874261E-2,1.927394718E-2
2.693800750E0,-7.994452026E-4,1.833968796E-3,-1.770171337E-2,1.781441019E-2
2.703757750E0,-1.814193558E-3,-1.628836617E-4,-2.068938501E-2,2.076941216E-2
2.713714750E0,1.099038403E-3,-1.398324035E-3,-2.048565261E-2,2.056271282E-2
2.723671750E0,-1.916996669E-3,3.716489300E-4,-2.285298333E-2,2.293625615E-2
2.733628750E0,1.502502128E-3,-5.729738623E-4,-2.348095551E-2,2.353595300E-2
2.743585750E0,-1.674771775E-3,2.267009579E-3,-2.090154588E-2,2.109072813E-2
2.753542750E0,5.574899260E-4,-1.423865557E-3,-2.006930672E-2,2.012747526E-2
2.763499750E0,3.092573490E-3,-1.899152994E-5,-1.704615355E-2,1.732442559E-2
2.773456750E0,1.963857794E-4,7.962016389E-4,-2.138843760E-2,2.140415304E-2
2.783413750E0,3.315714654E-3,1.158781350E-3,-2.323301136E-2,2.349701162E-2
2.793370750E0,-6.313561462E-4,1.123094931E-3,-2.243060060E-2,2.246757210E-2
2.803326750E0,2.024127636E-3,-5.452418700E-4,-1.940570213E-2,1.951859771E-2
2.813283750E0,-2.183400793E-3,5.597034469E-4,-2.207871713E-2,2.219347330E-2
2.823240750E0,1.693812432E-3,1.004895195E-3,-2.100162022E-2,2.109376369E-2
2.833197750E0,-2.238611225E-3,-4.414673895E-4,-2.111134306E-2,2.123429018E-2
2.843154750E0,-2.444241196E-3,-2.140793949E-4,-1.953731291E-2,1.969077806E-2
2.853111750E0,1.002688310E-3,2.559684217E-4,-2.414910868E-2,2.417127125E-2
2.863068750E0,1.496158657E-3,-1.757493243E-3,-2.866614982E-2,2.875891895E-2
2.873025750E0,4.111868329E-4,1.979188062E-3,-2.385514975E-2,2.394064388E-2
2.882982750E0,-1.287360676E-3,2.228468657E-5,-2.508884668E-2,2.512186343E-2
2.892939750E0,-1.418920700E-3,-2.538505942E-5,-1.861177199E-2,1.866579858E-2
2.902896750E0,1.921610092E-3,-1.559532247E-3,-2.252434567E-2,2.265989572E-2
2.912853750E0,3.921566531E-4,1.133989543E-3,-2.024174854E-2,2.027728047E-2
2.922810750E0,2.347552916E-3,7.264865562E-4,-1.901028305E-2,1.916845453E-2
2.932767750E0,-2.483421005E-3,-3.289245069E-4,-1.995490678E-2,2.011153589E-2
2.942723750E0,2.113348804E-3,1.999777742E-3,-2.126612328E-2,2.146423429E-2
2.952680750E0,-3.369175829E-5,1.747310162E-3,-2.202752046E-2,2.209673925E-2
2.962637750E0,2.787863603E-3,-9.732134640E-5,-2.037823200E-2,2.056827641E-2
2.972594750E0,1.240300713E-3,-2.649961971E-3,-2.123124152E-2,2.143189821E-2
2.982551750E0,-6.564066280E-4,2.465337515E-3,-1.919895224E-2,1.936771866E-2
2.992508750E0,6.613254081E-4,-9.666783735E-4,-2.000855282E-2,2.004280430E-2
3.002465750E0,8.582219016E-4,-1.655907370E-3,-2.129641548E-2,2.137792989E-2
3.012422750E0,-1.247273292E-3,1.400602050E-3,-2.007642202E-2,2.016383143E-2
3.022379750E0,-6.611598656E-4,9.566005319E-4,-1.857299730E-2,1.860936446E-2
3.032336750E0,9.306116262E-4,-7.691271603E-4,-2.033014968E-2,2.036596623E-2
3.042293750E0,7.089810679E-4,-2.433635294E-3,-2.092541009E-2,2.107837808E-2
3.052249875E0,2.469330560E-3,-2.421205863E-4,-1.782043092E-2,1.799233098E-2
3.062206875E0,1.031559659E-3,1.203813590E-3,-2.031327784E-2,2.037504697E-2
3.072162875E0,1.495748525E-3,2.042442560E-3,-1.900992729E-2,1.917775197E-2
3.082119875E0,-5.205511115E-5,6.830729544E-4,-1.815512031E-2,1.816804040E-2
3.092076875E0,-2.054219833E-3,1.462846994E-3,-1.747814566E-2,1.765914256E-2
3.102033875E0,1.389165409E-4,1.992673613E-3,-1.806254312E-2,1.817265831E-2
3.111990875E0,1.939479727E-3,7.521733642E-4,-2.203118615E-2,2.212917779E-2
3.121947875E0,2.064856933E-3,9.325128049E-4,-1.949263178E-2,1.962386068E-2
3.131904875E0,3.218179336E-4,-3.410112113E-4,-2.032833174E-2,2.033373863E-2
3.141861875E0,1.144190552E-3,-1.379093155E-4,-1.934297755E-2,1.937727978E-2
3.151818875E0,3.423590213E-3,-1.803716645E-3,-1.941647939E-2,1.979833417E-2
3.161775875E0,3.364883596E-4,1.188447699E-3,-2.086258493E-2,2.089911679E-2
3.171732875E0,4.589937162E-4,1.093372703E-3,-2.034193650E-2,2.037646975E-2
3.181689875E0,1.496323850E-3,1.127958298E-3,-1.931627654E-2,1.940695273E-2
3.191646875E0,1.612812048E-4,1.483489759E-3,-2.214055881E-2,2.219078858E-2
3.201603875E0,-4.558109213E-4,-1.542002894E-3,-2.100885101E-2,2.107029561E-2
3.211559875E0,-2.559175482E-3,-5.667535588E-4,-2.210074663E-2,2.225564177E-2
3.221516875E0,5.414396292E-4,9.964592755E-4,-1.844703406E-2,1.848186012E-2
3.231473875E0,3.605938982E-3,-2.898471430E-4,-1.679986902E-2,1.718494708E-2
3.241430875E0,-1.629300881E-3,-2.209368162E-3,-1.895620115E-2,1.915394192E-2
3.251387875E0,5.001627142E-4,-1.387516037E-3,-1.993837580E-2,1.999285355E-2
3.261344875E0,7.977429777E-5,-2.660835162E-4,-2.250024304E-2,2.250195772E-2
3.271301875E0,9.495439008E-5,1.203981228E-3,-2.206774801E-2,2.210077124E-2
3.281258875E0,1.026976388E-3,-8.845357224E-4,-2.050739340E-2,2.055213537E-2
3.291215875E0,-3.173872828E-4,1.732716337E-4,-1.828658395E-2,1.829015883E-2
3.301172875E0,-5.364869721E-4,1.044915058E-3,-1.347756200E-2,1.352864897E-2
3.311129875E0,-1.240893267E-3,-2.682711929E-3,-1.532260142E-2,1.560509128E-2
3.321086875E0,-3.075598506E-3,2.481395379E-3,-1.994318701E-2,2.033094532E-2
3.331043875E0,9.574923897E-4,2.210285515E-3,-2.514700592E-2,2.526210720E-2
3.340999875E0,-1.002128702E-3,4.438366741E-4,-2.608302422E-2,2.610604155E-2
3.350956875E0,2.657054458E-3,-2.257674001E-3,-2.317378856E-2,2.343462196E-2
3.360913875E0,9.459489956E-4,2.172254026E-3,-1.578079909E-2,1.595766672E-2
3.370870875E0,-1.982196467E-3,1.279029995E-3,-1.402843930E-2,1.422540438E-2
3.380827875E0,-4.093779717E-4,-4.137884825E-4,-1.714152843E-2,1.715140834E-2
3.390784875E0,-2.080430277E-4,1.052814536E-3,-1.917538419E-2,1.920539141E-2
3.400741875E0,-1.562521793E-4,1.532574184E-3,-2.347077243E-2,2.352127456E-2
3.410698875E0,4.376327852E-4,2.173330635E-3,-2.318234928E-2,2.328811299E-2
3.420655875E0,-9.111585096E-4,1.463647932E-4,-1.891139895E-2,1.893390194E-2
3.430612875E0,-1.924491255E-3,-4.240842536E-4,-1.657101326E-2,1.668777979E-2
3.440569875E0,-4.414361902E-4,-7.764250040E-5,-1.504066773E-2,1.504734461E-2
3.450526875E0,2.214246197E-4,8.866880089E-4,-1.669875160E-2,1.672374209E-2
3.460483875E0,-2.290373668E-4,-5.327314138E-4,-2.145848610E-2,2.146631981E-2
3.470439875E0,-3.536732402E-4,4.355501384E-3,-2.461912669E-2,2.500393721E-2
3.480396875E0,-1.134433551E-3,1.004918478E-3,-2.624511905E-2,2.628883935E-2
3.490353875E0,-1.254275674E-3,-3.857845441E-4,-2.291563340E-2,2.295317606E-2
3.500310875E0,-9.271714371E-4,1.096276566E-3,-1.641892083E-2,1.648157852E-2
3.510267875E0,1.592445304E-3,1.378571615E-3,-1.567829587E-2,1.581914356E-2
3.520224875E0,4.361162428E-4,-9.923800826E-5,-2.031818777E-2,2.032311000E-2
3.530181875E0,-1.014507608E-3,1.218227670E-3,-1.916397363E-2,1.922943550E-2
3.540138875E0,1.517105848E-3,-2.051191404E-4,-2.140144259E-2,2.145612800E-2
3.550095875E0,9.384009754E-4,2.121152356E-3,-2.011220530E-2,2.024551026E-2
3.560052875E0,-1.050112769E-5,5.600275472E-4,-1.900326461E-2,1.901151774E-2
3.570009875E0,-9.846854955E-4,-3.347937018E-4,-1.617445424E-2,1.620785804E-2
3.579966875E0,1.883763820E-3,-1.449212432E-4,-1.815243810E-2,1.825049527E-2
3.589923875E0,4.381999606E-4,-1.886362210E-3,-1.782087609E-2,1.792579165E-2
3.599880875E0,-2.425306011E-4,2.348320559E-4,-2.110383287E-2,2.110653285E-2
3.609836875E0,1.457897713E-3,3.623971716E-4,-2.167082205E-2,2.172282960E-2
3.619793875E0,1.496688346E-3,-2.621590160E-3,-2.235402912E-2,2.255693749E-2
3.629750875E0,6.905494956E-4,1.201909967E-3,-1.750441082E-2,1.755920967E-2
3.639707875E0,3.413814120E-4,-1.477130689E-3,-1.579643227E-2,1.586901789E-2
3.649664875E0,4.923826782E-4,-6.044125184E-4,-1.642786711E-2,1.644635440E-2
3.659621875E0,1.749010989E-4,1.615332440E-4,-1.951298118E-2,1.951443358E-2
3.669578875E0,3.051296808E-4,2.920283005E-4,-2.415513806E-2,2.415883026E-2
3.679535875E0,2.469811821E-3,-2.316636965E-4,-2.066675387E-2,2.081509919E-2
3.689492875E0,1.086832257E-3,-2.359254286E-4,-1.835406572E-2,1.838772943E-2
3.699449875E0,5.615941482E-4,5.481019616E-5,-1.430788543E-2,1.431900756E-2
3.709406875E0,1.330448780E-3,8.785258979E-4,-1.461095270E-2,1.469768146E-2
3.719363875E0,2.543757437E-3,-6.230510771E-4,-1.836607605E-2,1.855186363E-2
3.729319875E0,4.193538334E-4,-2.363426611E-3,-2.000871487E-2,2.015217888E-2
3.739276875E0,9.115213761E-4,1.164523885E-3,-2.334994450E-2,2.339672830E-2
3.749233875E0,1.477267360E-4,2.051623538E-3,-2.150730416E-2,2.160544178E-2
3.759190875E0,-4.767964128E-4,1.960778609E-4,-1.828303933E-2,1.829030641E-2
3.769147875E0,-1.249912195E-3,-8.414890617E-4,-1.310345717E-2,1.318980569E-2
3.779104875E0,3.409629688E-3,-1.073704101E-3,-1.432379894E-2,1.476311726E-2
3.789061875E0,-9.667431004E-4,1.953244209E-3,-1.881841570E-2,1.894419501E-2
3.799018875E0,-1.854444854E-4,2.016490325E-4,-2.253386006E-2,2.253552531E-2
3.808975875E0,1.918719034E-3,1.014445908E-3,-2.228991315E-2,2.239533012E-2
3.818932875E0,6.121816114E-6,-4.139672965E-4,-2.247083560E-2,2.247464925E-2
3.828889875E0,2.694316674E-3,3.005592152E-4,-1.871178299E-2,1.890715475E-2
3.838846875E0,-6.801486015E-4,2.510210499E-3,-1.422743127E-2,1.446317943E-2
3.848803875E0,5.883150734E-4,7.157716900E-4,-1.604290865E-2,1.606964100E-2
3.858759875E0,2.148174215E-3,8.089672774E-4,-1.737128012E-2,1.752228448E-2
3.868716875E0,-1.224186737E-3,1.158906147E-3,-2.238947526E-2,2.245284612E-2
3.878673875E0,1.466895919E-4,1.931646839E-3,-2.301319875E-2,2.309459015E-2
3.888630875E0,8.713357383E-4,-9.072823450E-4,-2.395622618E-2,2.398923009E-2
3.898587875E0,1.043037744E-3,-2.075619996E-4,-2.003856935E-2,2.006677032E-2
3.908544875E0,1.047565136E-3,-1.779892482E-3,-1.910859346E-2,1.921987914E-2
3.918501875E0,-9.317458607E-4,-7.925033569E-4,-1.790264808E-2,1.794438687E-2
3.928458875E0,1.613170840E-3,9.683780372E-4,-2.118632570E-2,2.126970787E-2
3.938415875E0,2.548042918E-3,-1.402074471E-3,-2.066353150E-2,2.086719601E-2
3.948372875E0,8.396251360E-4,-2.531874925E-4,-2.127605863E-2,2.129412466E-2
3.958329875E0,3.318330273E-4,-1.087069511E-3,-1.672888547E-2,1.676745188E-2
3.968286875E0,4.117278149E-4,9.161606431E-4,-1.580823213E-2,1.584010963E-2
3.978243875E0,-1.164773479E-3,-1.599099487E-4,-1.961057074E-2,1.964578208E-2
3.988199875E0,3.567131236E-3,8.779242635E-4,-1.899032108E-2,1.934237501E-2
3.998156875E0,-1.922948286E-6,2.012243494E-4,-2.014790475E-2,2.014890967E-2
4.008113875E0,1.449499745E-3,-1.827572472E-3,-1.821844466E-2,1.836716626E-2
4.018070875E0,-3.609189298E-4,-1.026584767E-3,-1.647910848E-2,1.651499788E-2
4.028027875E0,1.049757469E-3,7.412219420E-4,-1.760802232E-2,1.765485346E-2
4.037984875E0,5.966043100E-4,-5.521411076E-4,-1.846073754E-2,1.847862622E-2
4.047941875E0,-1.994145568E-4,-7.974188775E-4,-1.645857282E-2,1.647908560E-2
4.057899625E0,3.936933354E-6,-2.037473023E-4,-1.953680255E-2,1.953786534E-2
4.067856625E0,1.819413854E-3,1.299340278E-3,-1.969739050E-2,1.982386805E-2
4.077813625E0,9.010394569E-4,1.692775637E-3,-1.917918026E-2,1.927481043E-2
4.087770625E0,-7.392014377E-4,-3.123180941E-4,-1.856505498E-2,1.858239026E-2
4.097727625E0,2.743883058E-3,4.289690405E-4,-1.691525988E-2,1.714173053E-2
4.107684625E0,1.326536294E-4,1.296892762E-3,-1.873552985E-2,1.878083083E-2
4.117640625E0,8.252408588E-4,8.325967938E-4,-1.951637305E-2,1.955154871E-2
4.127597625E0,2.497317037E-4,-8.220253512E-4,-1.917255856E-2,1.919179755E-2
4.137554625E0,8.897192311E-5,8.319607005E-4,-1.875062287E-2,1.876928162E-2
4.147511625E0,-1.335552894E-3,-3.185244277E-4,-1.642941125E-2,1.648668291E-2
4.157468625E0,1.936175977E-3,-3.018051386E-3,-1.666083932E-2,1.704232902E-2
4.167425625E0,-2.566963201E-3,8.762888610E-4,-1.648746803E-2,1.670909287E-2
4.177382625E0,-3.249640577E-4,3.968086094E-4,-1.512279734E-2,1.513149226E-2
4.187339625E0,6.524161436E-4,2.412796021E-4,-1.769541018E-2,1.770907688E-2
4.197296625E0,-6.571966223E-4,-1.605544239E-4,-2.027182095E-2,2.028310651E-2
4.207253625E0,2.389570000E-4,5.353288725E-4,-2.033253945E-2,2.034098911E-2
4.217210625E0,-1.833545975E-4,1.704692841E-5,-1.869837008E-2,1.869927681E-2
4.227167625E0,1.826000516E-3,-2.002428286E-3,-1.641177945E-2,1.663401640E-2
4.237124625E0,-7.093511522E-5,1.004311256E-3,-1.644893177E-2,1.647971569E-2
4.247080625E0,1.940816874E-3,-1.544333994E-3,-1.803617552E-2,1.820591566E-2
4.257037625E0,1.693800325E-3,-3.403509036E-4,-2.170232311E-2,2.177098130E-2
4.266994625E0,1.937213237E-3,2.902932465E-5,-2.364163846E-2,2.372089178E-2
4.276951625E0,-3.363738768E-3,1.919278875E-4,-1.978266053E-2,2.006751685E-2
4.286908625E0,1.122089801E-3,-1.305807382E-4,-1.502013206E-2,1.506255304E-2
4.296865625E0,-2.790628932E-4,-2.098292112E-3,-1.669732481E-2,1.683096437E-2
4.306822625E0,-2.749410924E-3,-8.769659325E-4,-1.542300172E-2,1.569067595E-2
4.316779625E0,-1.346028410E-3,5.402602255E-6,-1.742700860E-2,1.747891445E-2
4.326736625E0,3.067293437E-4,3.635976464E-4,-2.203241177E-2,2.203754647E-2
4.336693625E0,-4.792616237E-4,-1.717183739E-3,-2.149120718E-2,2.156502719E-2
4.346650625E0,-1.629480859E-3,4.916423932E-4,-1.885494217E-2,1.893160755E-2
4.356607625E0,-3.734070342E-4,7.033366710E-4,-1.384011749E-2,1.386300716E-2
4.366564625E0,1.881757635E-3,2.476703376E-4,-1.308857370E-2,1.322547216E-2
4.376520625E0,-1.901100390E-3,-2.346169204E-4,-1.697211526E-2,1.707986898E-2
4.386477625E0,3.424689174E-3,-1.808811910E-3,-1.960171945E-2,1.998068322E-2
4.396434625E0,2.964095911E-3,-4.754345864E-4,-2.307755873E-2,2.327199217E-2
4.406391625E0,1.830654568E-3,1.039105467E-3,-2.336704358E-2,2.346166580E-2
4.416348625E0,9.024064057E-4,-1.600675285E-3,-2.029146254E-2,2.037449265E-2
4.426305625E0,-5.072047934E-4,-1.736496575E-3,-1.944431290E-2,1.952828669E-2
4.436262625E0,-1.718831947E-3,2.605598420E-4,-1.865806803E-2,1.873888410E-2
4.446219625E0,-2.440548502E-3,1.322362572E-3,-1.991534606E-2,2.010785738E-2
4.456176625E0,-3.728242591E-4,-9.416611865E-4,-1.774034277E-2,1.776922860E-2
4.466133625E0,-1.169109484E-3,1.602988690E-3,-1.769373752E-2,1.780462685E-2
4.476090625E0,9.179653134E-4,-1.130884513E-3,-1.664474420E-2,1.670835329E-2
4.486047625E0,-5.449091550E-4,1.004171558E-3,-1.764795743E-2,1.768490000E-2
4.496003625E0,-1.179494429E-4,4.971046001E-4,-1.987252384E-2,1.987909025E-2
4.505960625E0,-1.100922003E-3,-1.228796318E-4,-1.964855194E-2,1.967975412E-2
4.515917625E0,-3.925641067E-5,-1.736264676E-4,-1.627286151E-2,1.627383510E-2
4.525874625E0,2.124561928E-3,-3.661727533E-4,-1.604755782E-2,1.619172498E-2
4.535831625E0,8.466653526E-6,2.026855946E-4,-1.516454667E-2,1.516590349E-2
4.545788625E0,1.439383137E-3,-1.717452891E-3,-1.728415675E-2,1.742881358E-2
4.555745625E0,2.527970355E-3,-1.133685932E-3,-2.285626344E-2,2.302356742E-2
4.565702625E0,-9.248177521E-4,-7.637729868E-4,-1.932890527E-2,1.936608417E-2
4.575659625E0,-1.496961340E-5,-1.350355335E-3,-1.841619983E-2,1.846564648E-2
4.585616625E0,-3.156967228E-3,-9.520724416E-5,-1.400760189E-2,1.435926242E-2
4.595573625E0,4.108106950E-4,-2.017008141E-3,-1.511139050E-2,1.525094129E-2
4.605530625E0,-1.012382563E-3,7.894309238E-4,-1.813114807E-2,1.817654120E-2
4.615486625E0,3.528370289E-3,-1.427183859E-3,-1.959695108E-2,1.996313458E-2
4.625443625E0,-1.426174538E-3,3.350293264E-4,-2.048325352E-2,2.053557629E-2
4.635400625E0,2.008728916E-4,-4.533445463E-4,-1.967996173E-2,1.968620747E-2
4.645357625E0,-1.096515916E-4,7.815631106E-4,-1.549533755E-2,1.551542297E-2
4.655314625E0,-1.127736177E-4,-4.998585209E-4,-1.434246823E-2,1.435161912E-2
4.665271625E0,-1.312527573E-3,6.695352495E-4,-1.681627892E-2,1.688070623E-2
4.675228625E0,5.768712144E-4,4.199429415E-3,-1.569028199E-2,1.625278243E-2
4.685185625E0,4.620889667E-4,3.303894773E-4,-1.709669642E-2,1.710613083E-2
4.695142625E0,-1.324007753E-4,4.479661584E-4,-2.028728463E-2,2.029266176E-2
4.705099625E0,-2.402586397E-4,7.350547239E-4,-1.763397641E-2,1.765092501E-2
4.715056625E0,2.787183039E-4,-1.728184521E-3,-1.618985087E-2,1.628421250E-2
4.725013625E0,-1.543682767E-3,4.425579682E-4,-1.766151376E-2,1.773437009E-2
4.734969625E0,-1.006330829E-3,-1.758337021E-4,-1.530866325E-2,1.534271129E-2
4.744926625E0,-2.328324132E-3,1.281980425E-3,-1.918223128E-2,1.936549932E-2
4.754883625E0,-2.004366834E-4,-4.161400720E-4,-1.867597923E-2,1.868169017E-2
4.764840625E0,-2.198872855E-3,4.565156996E-5,-1.720218360E-2,1.734220997E-2
4.774797625E0,-3.207316622E-4,4.862630740E-4,-1.691721193E-2,1.692723782E-2
4.784754625E0,2.824744442E-4,7.507149130E-4,-1.808713935E-2,1.810491576E-2
4.794711625E0,-9.846850298E-4,-3.422209993E-4,-1.776405796E-2,1.779461928E-2
4.804668625E0,1.840662560E-3,1.830385067E-3,-1.678055339E-2,1.698014488E-2
4.814625625E0,6.458004937E-4,-1.907793805E-3,-1.640149206E-2,1.652469901E-2
4.824582625E0,6.458004937E-4,-8.526491001E-4,-1.943190210E-2,1.946131773E-2
4.834539625E0,2.654295648E-3,2.875169739E-4,-1.895993762E-2,1.914698895E-2
4.844496625E0,2.422866877E-3,-1.001186669E-3,-1.975249499E-2,1.992570493E-2
4.854453625E0,1.145509537E-3,2.041691914E-4,-1.849280484E-2,1.852937419E-2
4.864409625E0,2.429419663E-3,-2.246205695E-3,-1.473961212E-2,1.510641206E-2
4.874366625E0,-1.256352989E-3,-1.394419000E-3,-1.597336493E-2,1.608325883E-2
4.884323625E0,6.773683708E-4,-5.856165662E-4,-1.715128124E-2,1.717463894E-2
4.894280625E0,-2.110535279E-4,-1.117503271E-4,-1.812806167E-2,1.812963462E-2
4.904237625E0,-1.637660898E-5,-1.786878332E-3,-1.797093637E-2,1.805956136E-2
4.914194625E0,8.409955772E-4,-1.472762786E-3,-1.710940339E-2,1.719325414E-2
4.924151625E0,3.294023918E-4,-1.728426665E-3,-1.465317048E-2,1.475843385E-2
4.934108625E0,-8.452562615E-4,2.576304600E-3,-1.621380448E-2,1.643895554E-2
4.944065625E0,1.018423703E-3,1.674052328E-5,-1.588863134E-2,1.592124596E-2
4.954022625E0,3.283193801E-4,5.034739152E-4,-1.356745698E-2,1.358076465E-2
4.963979625E0,-5.396048073E-4,-4.358226433E-4,-1.573713496E-2,1.575241352E-2
4.973936625E0,7.614266360E-4,1.002824865E-3,-1.748166047E-2,1.752694728E-2
4.983892625E0,2.529499121E-3,-3.146408126E-4,-1.721560955E-2,1.740329213E-2
4.993849625E0,2.896568272E-3,1.570940018E-3,-1.834681258E-2,1.864037264E-2
5.003806625E0,2.371357987E-4,-2.698367462E-4,-1.747888699E-2,1.748257806E-2
5.013763625E0,-6.017468404E-4,1.083934680E-3,-1.721921936E-2,1.726379243E-2
5.023720625E0,1.041423529E-3,2.306059003E-3,-1.996387169E-2,2.012358427E-2
5.033677625E0,-2.265662886E-3,1.326957718E-3,-1.852512173E-2,1.871026938E-2
5.043634625E0,1.983943162E-3,-7.045008242E-4,-1.919650473E-2,1.931160650E-2
5.053591750E0,1.762573374E-4,-5.836272612E-4,-1.746571437E-2,1.747635161E-2
5.063548750E0,-8.163028397E-4,1.125056297E-3,-1.555250026E-2,1.561449219E-2
5.073505750E0,-1.396124484E-3,5.921656266E-4,-1.403834671E-2,1.412002132E-2
5.083462750E0,3.825407475E-5,5.599418655E-4,-1.534995250E-2,1.536020964E-2
5.093419750E0,-1.973421313E-4,3.676741384E-3,-1.631539501E-2,1.672571330E-2
5.103375750E0,-1.376874279E-4,-5.001602694E-4,-1.973036490E-2,1.973718362E-2
5.113332750E0,-7.028817199E-4,-1.205668785E-3,-1.936357282E-2,1.941380005E-2
5.123289750E0,2.716883551E-3,2.143522725E-3,-1.468759589E-2,1.508978525E-2
5.133246750E0,3.666468430E-3,-6.881151348E-4,-1.619637385E-2,1.662043980E-2
5.143203750E0,1.247519394E-3,1.230835915E-4,-1.468236744E-2,1.473578529E-2
5.153160750E0,2.154060407E-3,4.302710295E-6,-1.657568850E-2,1.671506637E-2
5.163117750E0,-2.670192625E-4,9.803511202E-4,-1.636316814E-2,1.639468386E-2
5.173074750E0,2.176504117E-3,-4.428755492E-4,-1.993833482E-2,2.006166754E-2
5.183031750E0,-2.624376211E-3,3.504799679E-4,-1.916308701E-2,1.934513092E-2
5.192988750E0,7.723567542E-4,1.115288585E-3,-1.680960692E-2,1.686426069E-2
5.202945750E0,2.849983284E-4,7.239542902E-5,-1.453020796E-2,1.453318302E-2
5.212902750E0,3.143684939E-3,-2.709766850E-4,-1.267572679E-2,1.306255078E-2
5.222859750E0,1.620889525E-3,-2.472878434E-3,-1.692213677E-2,1.717850760E-2
5.232815750E0,-9.162132628E-4,-5.264431238E-4,-2.053503878E-2,2.056220822E-2
5.242772750E0,-8.909131866E-4,1.600357704E-3,-1.886816882E-2,1.895686328E-2
5.252729750E0,-1.020068070E-3,1.013512723E-3,-1.810445637E-2,1.816147261E-2
5.262686750E0,2.353091724E-3,-4.669381306E-4,-1.614916325E-2,1.632637576E-2
5.272643750E0,1.378498040E-3,-1.299234107E-3,-1.126298495E-2,1.142116877E-2
5.282600750E0,8.085815934E-4,1.234263182E-4,-1.364065520E-2,1.366515688E-2
5.292557750E0,2.220771741E-3,1.422911882E-3,-1.469886862E-2,1.493362796E-2
5.302514750E0,-1.171829179E-3,1.534764655E-3,-1.774818636E-2,1.785292148E-2
5.312471750E0,-1.371122431E-3,9.825862944E-4,-1.809627749E-2,1.817472728E-2
5.322428750E0,5.261134356E-4,2.651298419E-4,-1.856232993E-2,1.857167687E-2
5.332385750E0,8.899581153E-4,1.500463113E-4,-2.104607597E-2,2.106541842E-2
5.342342750E0,-1.027784310E-3,-5.194731057E-4,-1.539964229E-2,1.544264147E-2
5.352298750E0,5.046034930E-4,-8.828239515E-4,-1.561037172E-2,1.564345575E-2
5.362255750E0,3.008773783E-3,1.875003800E-4,-1.670040190E-2,1.697030641E-2
5.372212750E0,1.370927319E-3,1.726666465E-3,-1.728591695E-2,1.742595030E-2
5.382169750E0,-7.366985083E-4,-3.625834361E-4,-2.020074427E-2,2.021742468E-2
5.392126750E0,2.223564545E-3,1.194853336E-3,-1.897471584E-2,1.914188484E-2
5.402083750E0,-2.042287029E-3,1.644928008E-3,-1.555548422E-2,1.577497429E-2
5.412040750E0,1.635883818E-3,9.004371241E-4,-1.253378578E-2,1.267212250E-2
5.421997750E0,1.260378165E-3,1.371017657E-3,-1.318626106E-2,1.331712143E-2
5.431954750E0,1.262136735E-3,1.967847347E-4,-1.251163706E-2,1.257667585E-2
5.441911750E0,1.374839339E-4,-2.660723403E-4,-1.626429707E-2,1.626705430E-2
5.451868750E0,6.676816847E-4,1.198750921E-3,-1.723187044E-2,1.728641552E-2
5.461824750E0,-5.528449547E-4,-1.337643713E-3,-1.784812659E-2,1.790671804E-2
5.471781750E0,4.259403795E-5,-5.603525788E-4,-1.576170884E-2,1.577172390E-2
5.481738750E0,-3.044158220E-4,1.905201934E-3,-1.243861765E-2,1.258736161E-2
5.491695750E0,1.932420768E-3,3.003822640E-4,-1.190148480E-2,1.206108702E-2
5.501652750E0,1.019755495E-3,-2.266569063E-4,-1.313026808E-2,1.317175822E-2
5.511609750E0,9.672145825E-4,-6.591975689E-4,-1.646365412E-2,1.650520985E-2
5.521566750E0,2.169898013E-3,-6.898231804E-4,-1.654701121E-2,1.670293068E-2
5.531523750E0,-2.479388611E-3,7.729232311E-5,-1.910958253E-2,1.926991143E-2
5.541480750E0,4.892369034E-4,-2.516079694E-4,-1.699210517E-2,1.700100872E-2
5.551437750E0,1.502984203E-3,1.969616860E-3,-1.176312007E-2,1.202120401E-2
5.561394750E0,-3.372600768E-4,-2.863463014E-4,-1.253383979E-2,1.254164577E-2
5.571351750E0,-8.068259340E-4,-1.808572561E-4,-1.506292447E-2,1.508560145E-2
5.581308750E0,-7.458396722E-4,1.056447625E-3,-1.728506386E-2,1.733337218E-2
5.591264750E0,-2.030367963E-3,1.658488996E-3,-2.099014819E-2,2.115323381E-2
5.601221750E0,-4.295415711E-4,-5.346238613E-4,-1.761059836E-2,1.762394686E-2
5.611178750E0,1.021519536E-3,1.331983134E-3,-1.538021304E-2,1.547154273E-2
5.621135750E0,-5.595991388E-4,2.286359668E-4,-1.229280978E-2,1.230766420E-2
5.631092750E0,3.746630158E-3,7.997313514E-4,-1.091790013E-2,1.157053806E-2
5.641049750E0,-2.518988680E-3,2.871138044E-3,-1.609082334E-2,1.653793619E-2
5.651006750E0,1.892842120E-4,-2.424097620E-3,-1.666560024E-2,1.684203993E-2
5.660963750E0,-1.796102384E-3,2.907291055E-4,-1.762380637E-2,1.771747889E-2
5.670920750E0,-1.471148571E-3,-1.142988913E-3,-1.843586937E-2,1.852975934E-2
5.680877750E0,3.552472917E-4,-2.833031118E-3,-1.790243760E-2,1.812869377E-2
5.690834750E0,-1.729146112E-3,3.290340304E-3,-1.356424298E-2,1.406431560E-2
5.700791750E0,2.847361611E-4,-1.562738791E-3,-1.328514423E-2,1.337977147E-2
5.710747750E0,-4.457521718E-4,5.738204345E-4,-1.495599747E-2,1.497363767E-2
5.720704750E0,1.700223074E-3,-7.021008059E-4,-1.744605415E-2,1.754276231E-2
5.730661750E0,2.223323099E-5,2.013056539E-3,-1.950358413E-2,1.960721002E-2
5.740618750E0,-1.779927872E-3,1.541676931E-3,-1.789796539E-2,1.805220419E-2
5.750575750E0,-4.968207795E-4,-1.517805271E-3,-1.670398936E-2,1.678016162E-2
5.760532750E0,9.522051550E-4,1.246022992E-3,-1.422725059E-2,1.431341774E-2
5.770489750E0,-1.255697804E-3,-4.803892225E-4,-9.671898559E-3,9.764894905E-3
5.780446750E0,1.973651350E-3,4.357388243E-4,-1.227620430E-2,1.244147741E-2
5.790403750E0,-1.090153353E-3,1.578997821E-3,-1.855844259E-2,1.865737012E-2
5.800360750E0,1.634526765E-3,9.330920875E-6,-2.166741714E-2,2.172898365E-2
5.810317750E0,2.697884338E-4,2.238215879E-3,-1.611274108E-2,1.626969027E-2
5.820274750E0,4.080064828E-4,-1.290206797E-3,-1.512151212E-2,1.518193767E-2
5.830230750E0,6.870463258E-4,-9.646750987E-4,-1.178376004E-2,1.184312591E-2
5.840187750E0,1.714227488E-3,1.204203814E-3,-1.174514554E-2,1.193051242E-2
5.850144750E0,5.629726220E-4,-1.069176942E-4,-1.584759727E-2,1.585795412E-2
5.860101750E0,7.656392409E-4,2.088326029E-3,-1.751340367E-2,1.765408217E-2
5.870058750E0,1.654047519E-3,-6.539057940E-4,-1.802822016E-2,1.811574421E-2
5.880015750E0,1.935011009E-3,1.554284245E-4,-1.959282719E-2,1.968876082E-2
5.889972750E0,1.068846206E-3,-8.596228436E-4,-1.672371104E-2,1.677986575E-2
5.899929750E0,1.435563434E-3,-9.871879593E-4,-1.451381948E-2,1.461801417E-2
5.909886750E0,6.216159090E-5,-5.497699603E-4,-1.324538328E-2,1.325693363E-2
5.919843750E0,1.293340931E-3,-2.387128770E-4,-1.541506127E-2,1.547106423E-2
5.929800750E0,-9.404842276E-4,4.145735875E-4,-1.599968970E-2,1.603266828E-2
5.939757750E0,-1.830812544E-4,-2.839732915E-4,-1.998644136E-2,1.998929708E-2
5.949713750E0,7.499650819E-4,2.173088491E-3,-1.610721648E-2,1.627043896E-2
5.959670750E0,-1.334054396E-4,-2.389363945E-4,-1.573304273E-2,1.573542250E-2
5.969627750E0,-1.414121594E-3,1.039484516E-3,-1.847994700E-2,1.856310074E-2
5.979584750E0,-7.765609771E-4,-3.546802327E-4,-1.668391004E-2,1.670573851E-2
5.989541750E0,2.237523440E-3,-2.850054763E-3,-1.560680754E-2,1.602191515E-2
5.999498750E0,-1.536974683E-3,2.919426188E-4,-1.561852731E-2,1.569668490E-2
6.009455750E0,3.276815405E-4,9.178332984E-4,-1.620643213E-2,1.623570866E-2
6.019412750E0,-2.065434819E-3,-2.166731283E-4,-1.423595846E-2,1.438664247E-2
6.029369750E0,-3.656826448E-3,8.776783943E-6,-1.486035064E-2,1.530367530E-2
6.039326750E0,5.917142844E-4,-2.423753962E-3,-1.878505200E-2,1.895001023E-2
6.049283750E0,-9.792828932E-4,-3.338139504E-4,-1.600527018E-2,1.603867514E-2
6.059240125E0,-1.880577765E-4,-1.673661172E-4,-1.590087451E-2,1.590286727E-2
6.069196125E0,8.560528513E-4,-1.944201067E-3,-1.662662439E-2,1.676178340E-2
6.079153125E0,-1.785852946E-4,4.252130166E-4,-1.813024469E-2,1.813610959E-2
6.089110125E0,-1.483357046E-4,3.798101097E-4,-1.794876531E-2,1.795339620E-2
6.099067125E0,3.182501532E-4,5.318764597E-4,-1.898340508E-2,1.899352111E-2
6.109024125E0,1.031361753E-3,1.234599389E-3,-1.686926559E-2,1.694579783E-2
6.118981125E0,2.556021325E-3,1.484936103E-3,-1.509826444E-2,1.538492344E-2
6.128938125E0,7.947748527E-4,1.005980186E-3,-1.286605373E-2,1.292977192E-2
6.138895125E0,1.001169905E-3,-1.275550574E-3,-1.613215543E-2,1.621344533E-2
6.148852125E0,1.885113306E-4,7.868781686E-4,-1.767611131E-2,1.769462135E-2
6.158809125E0,-7.321434096E-4,1.887829043E-3,-1.933126524E-2,1.943702005E-2
6.168766125E0,-4.772329703E-6,-2.573998645E-4,-1.711282693E-2,1.711476330E-2
6.178722125E0,-1.540084602E-3,-1.689115539E-3,-1.707660779E-2,1.722891481E-2
6.188679125E0,2.536753193E-3,-1.203029417E-3,-1.574919373E-2,1.599748417E-2
6.198636125E0,-4.566400312E-4,1.328571700E-3,-1.316566207E-2,1.324040334E-2
6.208593125E0,-3.434950486E-5,3.377012908E-4,-1.356025971E-2,1.356450757E-2
6.218550125E0,7.773820544E-4,2.010965720E-3,-1.810201444E-2,1.822995427E-2
6.228507125E0,2.264455194E-3,-1.566543244E-3,-1.820717007E-2,1.841420259E-2
6.238464125E0,-2.388353692E-3,-1.883571967E-4,-1.460764185E-2,1.480280082E-2
6.248421125E0,2.703543520E-3,1.546927728E-3,-1.477813907E-2,1.510283176E-2
6.258378125E0,2.668389818E-3,1.146654598E-3,-1.496456005E-2,1.524379147E-2
6.268335125E0,-3.541354556E-3,5.696322769E-4,-1.607857272E-2,1.647380265E-2
6.278292125E0,-7.311869413E-4,3.272853792E-4,-1.616672426E-2,1.618655997E-2
6.288249125E0,5.365331890E-4,-2.072742209E-4,-1.830300316E-2,1.831203853E-2
6.298205125E0,-1.657645218E-3,1.469451934E-3,-1.691549644E-2,1.705992662E-2
6.308162125E0,-9.331114125E-4,1.256683841E-3,-1.620470174E-2,1.628012007E-2
6.318119125E0,-9.584114887E-4,2.297979780E-3,-1.428349689E-2,1.449888089E-2
6.328076125E0,-1.696899999E-4,1.014132053E-3,-1.353386976E-2,1.357287328E-2
6.338033125E0,-2.008336363E-3,-2.593919635E-4,-1.320390403E-2,1.335828510E-2
6.347990125E0,2.462838544E-3,-8.202688769E-4,-1.461947896E-2,1.484815072E-2
6.357947125E0,3.723148257E-5,2.817609347E-3,-1.453559101E-2,1.480620527E-2
6.367904125E0,2.831914462E-4,9.941337630E-4,-1.772964001E-2,1.775974758E-2
6.377861125E0,-9.011162911E-4,1.084947027E-3,-1.468111947E-2,1.474870806E-2
6.387818125E0,7.668623002E-4,2.971850336E-4,-1.543558016E-2,1.545747495E-2
6.397775125E0,8.046791190E-4,3.207487985E-3,-1.227067970E-2,1.270846442E-2
6.407732125E0,1.196853933E-3,1.850717701E-3,-1.534234267E-2,1.549984174E-2
6.417688125E0,3.105807817E-3,1.758551225E-4,-1.579641178E-2,1.609980101E-2
6.427645125E0,2.834894927E-3,-1.434019767E-3,-2.146613598E-2,2.169995474E-2
6.437602125E0,-2.160928911E-3,-2.316058613E-3,-1.998222247E-2,2.023173141E-2
6.447559125E0,-1.472776756E-3,2.980604768E-4,-1.703412831E-2,1.710027598E-2
6.457516125E0,-8.559888229E-4,2.065334469E-3,-1.414566487E-2,1.432124848E-2
6.467473125E0,7.476344472E-4,9.714243934E-4,-1.461398229E-2,1.466530262E-2
6.477430125E0,-2.577855019E-3,-1.518631354E-3,-1.536232978E-2,1.565096655E-2
6.487387125E0,-5.911942571E-5,2.268353477E-3,-1.482643560E-2,1.499907047E-2
6.497344125E0,-1.574724447E-3,-5.780328065E-4,-1.905100793E-2,1.912471652E-2
6.507301125E0,1.516146585E-5,-2.889797091E-3,-1.682008989E-2,1.706653395E-2
6.517258125E0,-1.066880999E-3,-3.923370503E-3,-1.420859434E-2,1.477887764E-2
6.527214125E0,2.325015375E-3,-1.316111535E-3,-1.544352900E-2,1.567292041E-2
6.537171125E0,1.303043682E-4,-2.452544868E-4,-1.645899191E-2,1.646133481E-2
6.547128125E0,2.794307191E-3,-2.613114193E-4,-1.364312507E-2,1.392879385E-2
6.557085125E0,-2.540803282E-3,1.315279864E-3,-1.451397873E-2,1.479328297E-2
6.567042125E0,2.176490147E-3,1.155432314E-3,-1.789453067E-2,1.806339838E-2
6.576999125E0,-1.602535602E-3,-2.175383270E-3,-1.739225723E-2,1.760088135E-2
6.586956125E0,-7.066407707E-4,2.326393500E-3,-1.782310568E-2,1.798817789E-2
6.596913125E0,1.615635701E-3,3.026005812E-3,-1.621908136E-2,1.657786446E-2
6.606870125E0,3.533754498E-4,3.501567990E-4,-1.418909989E-2,1.419781813E-2
6.616827125E0,-1.198981190E-3,2.881055698E-4,-1.303062402E-2,1.308883963E-2
6.626784125E0,-1.253866358E-3,-1.283353195E-4,-1.452018321E-2,1.457478546E-2
6.636741125E0,1.448257826E-4,-1.520902850E-3,-1.571887173E-2,1.579294299E-2
6.646697125E0,-1.194705954E-3,3.884732723E-5,-1.362618618E-2,1.367851531E-2
6.656654125E0,8.840486407E-5,1.344328746E-3,-1.914052851E-2,1.918788334E-2
6.666611125E0,-1.499912702E-3,-5.785627291E-4,-1.448690891E-2,1.457583626E-2
6.676568125E0,-1.070611179E-3,-6.006676704E-4,-1.678494923E-2,1.682978106E-2
6.686525125E0,2.086192137E-3,-1.912415028E-4,-1.179358736E-2,1.197820828E-2
6.696482125E0,1.604692545E-3,-4.397146404E-4,-1.379095763E-2,1.389096467E-2
6.706439125E0,4.759129370E-4,-1.211736351E-3,-1.336991228E-2,1.343314381E-2
6.716396125E0,-3.006649204E-4,1.097247005E-4,-1.839290000E-2,1.839568453E-2
6.726353125E0,-9.972082917E-4,4.196949303E-4,-1.843302138E-2,1.846474602E-2
6.736310125E0,1.527445856E-4,-1.129368320E-4,-2.031800710E-2,2.031889510E-2
6.746267125E0,1.239357516E-4,-2.623336390E-3,-1.455708221E-2,1.479208897E-2
6.756224125E0,-3.074964043E-4,4.161288962E-4,-1.528119482E-2,1.528995201E-2
6.766180125E0,7.239537081E-4,-1.051781699E-3,-1.487748697E-2,1.493217909E-2
6.776137125E0,9.593771538E-4,-1.419298351E-3,-1.315362379E-2,1.326471376E-2
6.786094125E0,-1.037602779E-3,1.077986322E-3,-1.554516889E-2,1.561700835E-2
6.796051125E0,1.427102834E-4,-2.906126902E-4,-1.677155495E-2,1.677467965E-2
6.806008125E0,2.100401325E-3,4.026014358E-4,-1.597834565E-2,1.612083445E-2
6.815965125E0,1.215699129E-3,-2.684801817E-3,-1.572108455E-2,1.599495497E-2
6.825922125E0,1.055588946E-4,1.203708351E-3,-1.294187456E-2,1.299816040E-2
6.835879125E0,1.613174332E-3,-4.919264466E-4,-1.480608806E-2,1.490183098E-2
6.845836125E0,6.788503379E-5,-1.984889619E-3,-1.664745063E-2,1.676550052E-2
6.855793125E0,2.400547964E-3,6.369929761E-4,-1.913351193E-2,1.929403196E-2
6.865750125E0,-2.134700539E-3,-4.805997014E-4,-1.896553300E-2,1.909134266E-2
6.875706125E0,-2.313931240E-3,2.020108514E-3,-1.474149153E-2,1.505811039E-2
6.885663125E0,1.418755623E-3,4.890933633E-4,-1.800232008E-2,1.806476150E-2
6.895620125E0,8.192780660E-4,-7.870933041E-4,-1.332501136E-2,1.337335635E-2
6.905577125E0,7.457570173E-4,-1.891460270E-4,-1.304501854E-2,1.306768680E-2
6.915534125E0,-5.851755850E-5,1.848172396E-3,-1.574546471E-2,1.585366912E-2
6.925491125E0,-1.097992063E-3,2.573723905E-3,-1.600612327E-2,1.624886530E-2
6.935448125E0,2.572905505E-4,5.382699892E-4,-1.784556918E-2,1.785553898E-2
6.945405125E0,1.025333651E-3,-8.095307276E-4,-1.602606848E-2,1.607922635E-2
6.955362125E0,1.066923141E-5,9.556123987E-4,-1.528251451E-2,1.531236619E-2
6.965319125E0,4.504038952E-5,-1.337395050E-3,-1.581563987E-2,1.587214915E-2
6.975276125E0,2.720718272E-3,-6.630830467E-4,-1.561057568E-2,1.585976229E-2
6.985233125E0,-2.207578858E-3,-2.610754222E-3,-1.640933752E-2,1.676173618E-2
6.995189125E0,5.059159594E-4,1.488915645E-3,-1.532090455E-2,1.540139400E-2
7.005146125E0,-3.377709072E-3,1.636656933E-3,-1.525597461E-2,1.571089831E-2
7.015103125E0,-3.925717901E-4,1.466190442E-4,-1.424637064E-2,1.425253263E-2
7.025060125E0,-2.517194953E-4,8.479403332E-4,-1.298078522E-2,1.301088584E-2
7.035017125E0,8.585522883E-4,3.041233867E-4,-1.524393819E-2,1.527112487E-2
7.044974125E0,6.410329370E-4,6.525684148E-5,-1.502593234E-2,1.503974150E-2
7.054931125E0,2.412035130E-3,-8.993400261E-4,-1.913039759E-2,1.930281943E-2
7.064888125E0,6.899586879E-5,3.011235967E-4,-1.408160850E-2,1.408499677E-2
7.074845125E0,-5.251553375E-4,6.374809891E-4,-1.483155414E-2,1.485453360E-2
7.084802125E0,1.165547874E-3,-1.566527411E-3,-1.578160562E-2,1.590193654E-2
7.094759125E0,-2.106944565E-3,9.259255603E-4,-1.519837417E-2,1.537163397E-2
7.104716125E0,-1.445143716E-3,-1.424383372E-4,-1.725076139E-2,1.731177338E-2
7.114672125E0,1.043314114E-3,5.357060581E-5,-1.283523999E-2,1.287768457E-2
7.124629125E0,7.749736542E-4,5.345977843E-4,-1.624158025E-2,1.626884470E-2
7.134586125E0,2.506028395E-3,-4.816642031E-4,-1.495793741E-2,1.517405913E-2
7.144543125E0,-1.514506759E-3,-1.389170066E-4,-1.462103985E-2,1.469992636E-2
7.154500125E0,1.437607221E-3,1.771999523E-4,-1.051124930E-2,1.061058322E-2
7.164457125E0,2.820015419E-3,2.402896993E-3,-1.363577694E-2,1.413013848E-2
7.174414125E0,2.258088440E-3,3.293991089E-3,-1.619614102E-2,1.668125669E-2
7.184371125E0,2.657436300E-3,5.580708385E-4,-1.621324942E-2,1.643906528E-2
7.194328125E0,2.685808577E-4,-9.247772396E-4,-1.550591458E-2,1.553578886E-2
7.204285125E0,1.009593951E-3,-1.376662403E-4,-1.708446257E-2,1.711482086E-2
7.214242125E0,4.790923558E-4,3.832485527E-4,-1.677074097E-2,1.678195941E-2
7.224199125E0,1.569786109E-3,-6.580632180E-5,-1.531164907E-2,1.539204847E-2
7.234155125E0,5.801555235E-4,-1.387484372E-5,-1.438939758E-2,1.440109494E-2
7.244112125E0,-9.486770723E-4,1.521287486E-4,-1.531214081E-2,1.534225497E-2
7.254069125E0,3.983497154E-3,-4.276419058E-4,-1.409960352E-2,1.465776063E-2
7.264026125E0,-6.072062533E-4,-8.532982320E-4,-1.485143043E-2,1.488831096E-2
7.273983125E0,-1.683922252E-3,-2.543606795E-3,-1.542161219E-2,1.572042150E-2
7.283940125E0,2.937604440E-4,-1.823998988E-3,-1.707051881E-2,1.717020326E-2
7.293897125E0,2.691172995E-5,2.159820870E-4,-1.480629854E-2,1.480789819E-2
7.303854125E0,2.100955462E-3,-5.237730220E-4,-1.238982379E-2,1.257760254E-2
7.313811125E0,6.843078882E-5,-9.618634358E-4,-1.314562932E-2,1.318094967E-2
7.323768125E0,1.699009328E-3,1.331441104E-3,-1.623661444E-2,1.637946936E-2
7.333725125E0,-1.960174181E-3,7.351590320E-4,-1.867713779E-2,1.879410061E-2
7.343682125E0,1.725590322E-3,1.004704274E-3,-1.661144383E-2,1.673102384E-2
7.353638125E0,-4.720501602E-4,1.330142841E-3,-1.416719519E-2,1.423732878E-2
7.363595125E0,2.411851892E-4,-2.719350159E-4,-1.380437240E-2,1.380915697E-2
7.373552125E0,-1.716047991E-4,-1.947032288E-4,-8.463935927E-3,8.467914083E-3
7.383509125E0,2.446199767E-3,2.923510969E-3,-1.213755831E-2,1.272207261E-2
7.393466125E0,5.508279428E-4,1.206571236E-3,-1.116896607E-2,1.124744543E-2
7.403423125E0,1.753051765E-5,1.249498688E-3,-1.707957312E-2,1.712522620E-2
7.413380125E0,1.183995162E-3,-3.933278844E-3,-1.723243669E-2,1.771523077E-2
7.423337125E0,-9.892520029E-4,-5.692690611E-4,-1.591352932E-2,1.595440699E-2
7.433294125E0,-1.663353760E-4,8.408743888E-4,-1.218776591E-2,1.221787114E-2
7.443251125E0,-3.656605259E-6,-6.688190624E-4,-1.100553572E-2,1.102584005E-2
7.453208125E0,1.669341116E-3,-2.905608155E-3,-1.291422360E-2,1.334190502E-2
7.463165125E0,-5.033507477E-4,-3.238050267E-4,-1.245736144E-2,1.247173067E-2
7.473121125E0,8.085224545E-4,2.280499786E-3,-1.450852863E-2,1.470890176E-2
7.483078125E0,-8.953392971E-4,-1.887362450E-4,-1.809254475E-2,1.811566806E-2
7.493035125E0,-2.388307359E-3,-3.642590716E-3,-1.328766719E-2,1.398336792E-2
7.502992125E0,-9.118688758E-4,-4.402222112E-4,-1.275078952E-2,1.279093171E-2
7.512949125E0,2.108422108E-3,-1.667940058E-3,-1.372683793E-2,1.398762122E-2
7.522906125E0,1.745255198E-3,5.983095616E-5,-1.366255805E-2,1.377370640E-2
7.532863125E0,2.297594678E-3,-1.979637891E-4,-1.598430239E-2,1.614980042E-2
7.542820125E0,2.541151363E-3,-1.772374846E-3,-1.640152559E-2,1.669157885E-2
7.552777125E0,2.529632766E-4,-5.819415674E-4,-1.512187719E-2,1.513518471E-2
7.562734125E0,1.266737236E-3,-5.606925115E-4,-1.504798420E-2,1.511161235E-2
7.572691125E0,1.947707497E-3,-2.499017864E-4,-1.358777471E-2,1.372893430E-2
7.582647125E0,9.085944621E-4,-1.153388061E-3,-1.405084133E-2,1.412734901E-2
7.592604125E0,3.145915922E-3,1.409372315E-3,-1.508494467E-2,1.547380602E-2
7.602561125E0,2.452133689E-3,-1.780564897E-3,-1.396680437E-2,1.429178069E-2
7.612518125E0,1.891538268E-3,-2.862652764E-4,-1.510370895E-2,1.522438468E-2
7.622475125E0,1.749107614E-4,2.013724297E-4,-1.274465024E-2,1.274744110E-2
7.632432125E0,-1.491695410E-3,-3.605550155E-4,-1.083835959E-2,1.094646947E-2
7.642389125E0,6.420491263E-4,1.058825292E-3,-1.117291674E-2,1.124132584E-2
7.652346125E0,-1.453326084E-3,-2.810107544E-4,-1.296921819E-2,1.305341887E-2
7.662303125E0,-7.432936691E-4,-1.548218541E-3,-1.527382620E-2,1.537007589E-2
7.672260125E0,2.610158874E-3,-9.956127033E-4,-1.399737224E-2,1.427342298E-2
7.682217125E0,-3.913405817E-4,2.779653296E-4,-1.499493420E-2,1.500261523E-2
7.692174125E0,-9.559306782E-4,-4.834318534E-4,-1.384524629E-2,1.388662502E-2
7.702130125E0,2.274219878E-5,2.094098367E-3,-1.157483645E-2,1.176276345E-2
7.712087125E0,-2.584758913E-3,8.048620075E-4,-1.028160565E-2,1.063203631E-2
7.722044125E0,2.593388781E-4,6.021521986E-4,-1.155956276E-2,1.157814040E-2
7.732001125E0,-1.152935438E-3,7.933666930E-4,-1.245917939E-2,1.253753731E-2
7.741958125E0,2.603568137E-3,-1.060571522E-4,-1.582356170E-2,1.603667422E-2
7.751915125E0,-2.479607472E-3,1.914749853E-3,-1.579293609E-2,1.610066925E-2
7.761872125E0,-1.799828373E-3,-2.654460259E-3,-1.326316036E-2,1.364540085E-2
7.771829125E0,1.278253039E-3,-6.650788710E-4,-9.672420099E-3,9.779160052E-3
7.781786125E0,3.611169523E-4,-4.835221916E-4,-1.050299406E-2,1.052031765E-2
7.791743125E0,-3.472839016E-4,1.704797149E-3,-1.021111198E-2,1.035826951E-2
7.801700125E0,-2.993317321E-4,-4.538511857E-4,-1.283497922E-2,1.284648870E-2
7.811656125E0,-8.053323254E-4,-3.284160048E-4,-1.471596956E-2,1.474164772E-2
7.821613125E0,-2.189345192E-3,2.094350755E-3,-1.740044728E-2,1.766225079E-2
7.831570125E0,4.493145971E-4,2.439869568E-4,-1.586886123E-2,1.587709576E-2
7.841527125E0,2.536394168E-4,-1.633864827E-3,-1.384741813E-2,1.394578202E-2
7.851484125E0,9.873403469E-4,1.881508157E-3,-1.229559258E-2,1.247784079E-2
7.861441125E0,-4.325851332E-4,-1.908653416E-3,-1.041419059E-2,1.059648307E-2
7.871398125E0,2.811419545E-4,-1.015694812E-3,-1.309279911E-2,1.313514619E-2
7.881355125E0,2.704474377E-3,-1.620069146E-3,-1.687917672E-2,1.717106323E-2
7.891312125E0,-3.315291833E-4,-9.886343032E-4,-1.785628684E-2,1.788670705E-2
7.901269125E0,1.501873019E-3,6.949482486E-4,-1.577828825E-2,1.586483393E-2
7.911226125E0,1.244079089E-3,-8.206563070E-4,-1.345148496E-2,1.353379685E-2
7.921182125E0,-2.553577768E-3,-1.774218865E-3,-8.583759889E-3,9.129597243E-3
7.931139125E0,6.752389017E-4,-1.060152426E-4,-9.441830218E-3,9.466538157E-3
7.941096125E0,1.557633048E-3,3.424715251E-4,-1.675118133E-2,1.682693031E-2
7.951053125E0,2.505718265E-3,-2.290429547E-4,-1.770672575E-2,1.788460850E-2
7.961010125E0,7.097591879E-4,-2.526203170E-3,-1.870278828E-2,1.888596701E-2
7.970967125E0,2.410428133E-4,-1.303546131E-3,-1.810570620E-2,1.815417118E-2
7.980924125E0,-1.361098373E-3,-5.849264562E-5,-1.164330542E-2,1.172273736E-2
7.990881125E0,1.449601958E-3,-7.900632918E-4,-8.881341666E-3,9.033480815E-3
8.000838125E0,6.986082299E-4,-3.962554038E-4,-1.059079729E-2,1.062120798E-2
8.010795125E0,-7.706577890E-4,4.865825176E-4,-1.411362737E-2,1.414302491E-2
8.020752125E0,-1.118266722E-3,-9.443163872E-4,-1.897969097E-2,1.903604274E-2
8.030709125E0,-9.960751049E-5,1.207251102E-3,-1.667072996E-2,1.671468260E-2
8.040665125E0,2.355302218E-3,-1.990469173E-4,-1.370598935E-2,1.390831450E-2
8.050622125E0,3.720172215E-3,-6.402470171E-5,-1.093044132E-2,1.154635561E-2
8.060579125E0,1.103749499E-3,-3.374500200E-3,-1.331565157E-2,1.378085960E-2
8.070536125E0,-2.789637074E-4,1.707077958E-3,-1.351086050E-2,1.362113385E-2
8.080493125E0,-9.880040307E-4,5.839206278E-5,-1.497518830E-2,1.500785882E-2
8.090450125E0,1.900194096E-3,-2.318479121E-3,-1.644898020E-2,1.671989930E-2
8.100407125E0,9.026878979E-5,-2.762340009E-4,-1.927741617E-2,1.927960653E-2
8.110364125E0,-1.627313904E-4,7.474850863E-4,-1.572209597E-2,1.574069621E-2
8.120321125E0,-4.997206852E-4,1.828190871E-3,-1.226713881E-2,1.241268292E-2
8.130278125E0,2.171696164E-3,-5.196519196E-4,-1.293266192E-2,1.312402555E-2
8.140235125E0,1.087133540E-3,1.784488559E-4,-8.677970618E-3,8.747621241E-3
8.150191125E0,-1.020225696E-3,-1.603205688E-3,-1.029850356E-2,1.047235907E-2
8.160148125E0,3.500346094E-3,1.262178645E-3,-1.586505771E-2,1.629556914E-2
8.170105125E0,1.450244570E-3,4.523107782E-4,-1.839452609E-2,1.845714996E-2
8.180062125E0,2.541405614E-3,1.836552285E-3,-1.917770877E-2,1.943234882E-2
8.190019125E0,-1.060427167E-4,-8.622948080E-4,-1.434433647E-2,1.437062233E-2
8.199976125E0,1.384590287E-3,3.131506965E-4,-7.820844650E-3,7.948632880E-3
8.209933125E0,3.914975096E-4,-1.448530704E-3,-7.963323966E-3,8.103458526E-3
8.219890125E0,-2.071862575E-3,3.411164507E-4,-1.209124923E-2,1.227221589E-2
8.229847125E0,1.117272768E-3,5.544358864E-4,-1.597227342E-2,1.602089935E-2
8.239804125E0,-2.126799896E-3,3.574965522E-4,-1.981275156E-2,1.992978189E-2
8.249761125E0,-1.291099703E-3,-6.614290178E-4,-1.950595528E-2,1.955982408E-2
8.259717125E0,-4.735609982E-4,4.154592752E-4,-1.395671256E-2,1.397092309E-2
8.269674125E0,1.077464083E-3,-1.488701440E-3,-1.023760810E-2,1.040123938E-2
8.279631125E0,1.338670030E-3,-7.127625868E-4,-8.493494242E-3,8.627833587E-3
8.289588125E0,9.550643153E-5,8.236151189E-4,-1.320835389E-2,1.323435211E-2
8.299545125E0,1.262122532E-4,2.219371498E-3,-1.679597795E-2,1.694244418E-2
8.309502125E0,-1.307111233E-5,-1.368173398E-3,-1.832223311E-2,1.837324945E-2
8.319459125E0,4.804546945E-3,-2.831209451E-3,-1.573981717E-2,1.669854074E-2
8.329416125E0,-6.309649907E-4,-3.696493804E-4,-1.279089972E-2,1.281178650E-2
8.339373125E0,1.785244211E-3,-4.469947889E-4,-8.624637499E-3,8.818802256E-3
8.349330125E0,2.582861111E-3,6.307866424E-4,-5.765734240E-3,6.349232602E-3
8.359287125E0,9.120231261E-4,-2.603987232E-4,-1.057473943E-2,1.061718925E-2
8.369243125E0,3.211396281E-3,-1.958696172E-3,-1.482114941E-2,1.529104400E-2
8.379200125E0,-1.388478093E-3,2.168795094E-3,-2.091848105E-2,2.107639421E-2
8.389157125E0,3.039607545E-4,-8.485661820E-4,-1.886758208E-2,1.888910031E-2
8.399114125E0,9.433538653E-4,-1.699783839E-3,-1.735037938E-2,1.745894745E-2
8.409071125E0,2.645646455E-3,1.090676524E-3,-1.157558151E-2,1.192405584E-2
8.419028125E0,2.277369844E-3,1.268940046E-3,-9.051291272E-3,9.419261964E-3
8.428985125E0,1.881890465E-3,-1.699685119E-3,-1.112695970E-2,1.141225978E-2
8.438942125E0,-1.729950309E-4,-1.166190021E-3,-1.610041410E-2,1.614352070E-2
8.448899125E0,8.051841287E-4,-8.820304647E-4,-1.860192046E-2,1.864021845E-2
8.458856125E0,4.759026924E-4,-1.737272367E-3,-1.523633674E-2,1.534244296E-2
8.468813125E0,-3.411551006E-4,-2.991659567E-4,-1.418225653E-2,1.418951329E-2
8.478769125E0,1.671365579E-3,-6.532641128E-4,-1.102017984E-2,1.116532940E-2
8.488726125E0,-2.269047545E-3,1.602965407E-3,-9.012954310E-3,9.431406059E-3
8.498683125E0,-1.911398955E-3,8.469233289E-4,-1.025412045E-2,1.046507102E-2
8.508640125E0,-4.265899770E-5,-1.050845720E-3,-1.189143211E-2,1.193784964E-2
8.518597125E0,1.320614247E-4,1.980310306E-3,-1.535093226E-2,1.547870118E-2
8.528554125E0,-7.308027707E-4,1.033144072E-4,-1.796189509E-2,1.797705265E-2
8.538511125E0,-1.390663674E-3,-1.779833809E-3,-1.536342315E-2,1.552857124E-2
8.548468125E0,1.980099129E-3,4.971697927E-4,-1.050262153E-2,1.069920695E-2
8.558425125E0,-6.644392852E-4,-1.240946352E-3,-8.536130190E-3,8.651412950E-3
8.568382125E0,-5.057149101E-4,1.420883462E-3,-1.201554947E-2,1.210983428E-2
8.578339125E0,-1.006136416E-3,1.780406572E-3,-1.672773063E-2,1.685227374E-2
8.588295125E0,-4.521990195E-4,-5.519902334E-4,-1.698579267E-2,1.700077438E-2
8.598252125E0,-4.102876410E-4,2.098063007E-3,-1.787579432E-2,1.800317269E-2
8.608209125E0,-4.371856339E-4,-9.824614972E-5,-1.389783062E-2,1.390505230E-2
8.618166125E0,-1.301872311E-3,-4.783663899E-4,-1.350273751E-2,1.357378452E-2
8.628123125E0,-4.453998990E-4,-4.280330613E-4,-1.023397408E-2,1.025260059E-2
8.638080125E0,-1.627199585E-3,-9.654164314E-4,-1.342457533E-2,1.355725009E-2
8.648037125E0,-9.635398164E-4,-1.082861796E-3,-1.169431955E-2,1.178380704E-2
8.657994125E0,-9.797420353E-5,4.578102380E-4,-1.595513895E-2,1.596200639E-2
8.667951125E0,-4.465819802E-4,-7.017301396E-4,-1.530719176E-2,1.532977430E-2
8.677908125E0,-1.520959893E-3,7.487526163E-4,-1.464946754E-2,1.474723190E-2
8.687865125E0,1.560583711E-3,-7.127905264E-4,-1.254663616E-2,1.266339492E-2
8.697821125E0,-1.374552958E-4,-2.793621272E-3,-1.220789738E-2,1.252421543E-2
8.707778125E0,2.479633084E-3,4.288041964E-4,-1.377756521E-2,1.400549022E-2
8.717735125E0,1.936589135E-3,7.165875286E-5,-1.482044160E-2,1.494660503E-2
8.727692125E0,-2.654700540E-3,5.238633603E-4,-1.455066539E-2,1.480012605E-2
8.737649125E0,-1.532752765E-3,1.876830123E-3,-1.503319107E-2,1.522723403E-2
8.747606125E0,-6.067717914E-4,-1.213392243E-4,-1.317457110E-2,1.318909469E-2
8.757563125E0,1.667822944E-4,-1.004221849E-3,-1.210346073E-2,1.214619444E-2
8.767520125E0,-3.050849074E-3,1.924190670E-3,-1.090716757E-2,1.148810229E-2
8.777477125E0,-2.892506076E-3,-9.935935959E-4,-1.368456520E-2,1.402216618E-2
8.787434125E0,-6.083128974E-4,-4.178183153E-4,-1.638794132E-2,1.640454929E-2
8.797391125E0,-1.962050796E-3,-1.187375747E-3,-1.705040410E-2,1.720394677E-2
8.807348125E0,1.734416583E-3,2.155778930E-4,-1.531455293E-2,1.541396141E-2
8.817304125E0,3.540015314E-5,3.020415083E-3,-1.082941703E-2,1.124279475E-2
8.827261125E0,1.406395575E-3,-1.087989658E-4,-7.910858840E-3,8.035637704E-3
8.837218125E0,4.803761840E-4,1.693372615E-3,-7.390104234E-3,7.596835702E-3
8.847175125E0,-1.007265644E-3,-1.451279968E-5,-1.320138946E-2,1.323976882E-2
8.857132125E0,-3.591780551E-4,-1.975717023E-4,-1.417149790E-2,1.417742558E-2
8.867089125E0,1.367881894E-3,-1.989079639E-3,-1.637846045E-2,1.655540714E-2
8.877046125E0,2.336273901E-3,9.996732697E-4,-1.703021675E-2,1.721876317E-2
8.887003125E0,-1.545804553E-4,-1.769112423E-4,-1.254651695E-2,1.254871629E-2
8.896960125E0,3.714004532E-3,3.382535651E-4,-1.210379228E-2,1.266530824E-2
8.906917125E0,1.016755123E-3,-6.628129631E-5,-1.282737218E-2,1.286777608E-2
8.916874125E0,-2.702913480E-3,4.497077316E-5,-1.257603988E-2,1.286330217E-2
8.926830125E0,-2.620621817E-3,2.281954512E-4,-1.571776904E-2,1.593637335E-2
8.936787125E0,2.669985872E-3,-6.801141426E-4,-1.603327319E-2,1.626828906E-2
8.946744125E0,2.512593288E-3,-6.156656891E-4,-1.339621097E-2,1.364370322E-2
8.956701125E0,-1.554038608E-3,-1.751492731E-3,-1.170098968E-2,1.193297625E-2
8.966658125E0,1.015379210E-3,6.531551480E-5,-1.086608879E-2,1.091362207E-2
8.976615125E0,-1.455658814E-3,-8.274950087E-4,-7.280103862E-3,7.470180909E-3
8.986572125E0,-3.104994539E-4,-5.968650803E-4,-1.165940613E-2,1.167880170E-2
8.996529125E0,2.209943254E-3,9.981086478E-4,-1.291516609E-2,1.314083655E-2
9.006486125E0,-1.628737198E-3,-1.953206956E-3,-1.284778863E-2,1.309707887E-2
9.016443125E0,-2.911312040E-4,-1.660696231E-3,-1.412522607E-2,1.422549404E-2
9.026400125E0,-1.523642335E-3,-1.179995947E-3,-1.358780079E-2,1.372378252E-2
9.036356125E0,-8.841978852E-4,1.228506677E-3,-1.280570962E-2,1.289485298E-2
9.046313125E0,1.035408583E-3,3.307545558E-4,-1.067331620E-2,1.072852031E-2
9.056270125E0,2.952095820E-4,9.493455291E-4,-1.290236786E-2,1.294061444E-2
9.066227125E0,2.120806603E-3,9.249895811E-6,-1.400118880E-2,1.416090371E-2
9.076184125E0,-1.537509961E-3,-8.607748896E-4,-1.617763005E-2,1.627330896E-2
9.086141125E0,-1.819611061E-4,1.994296908E-4,-1.769430004E-2,1.769635940E-2
9.096098125E0,-1.798789483E-3,-1.916466281E-4,-1.463603601E-2,1.474740391E-2
9.106055125E0,1.792217023E-3,2.893200144E-4,-1.332442835E-2,1.344753281E-2
9.116012125E0,-9.405615274E-4,-1.307670027E-3,-1.116405614E-2,1.127966340E-2
9.125969125E0,7.982163224E-4,5.786474794E-4,-7.330436260E-3,7.396436842E-3
9.135926125E0,1.681128982E-3,5.609765649E-4,-9.444920346E-3,9.609755965E-3
9.145882125E0,1.085379859E-3,-1.159990206E-4,-1.341782510E-2,1.346215197E-2
9.155839125E0,-1.578389434E-3,-5.873786286E-4,-1.445445791E-2,1.455223970E-2
9.165796125E0,-1.226319699E-3,-1.653707586E-3,-1.412422583E-2,1.427348465E-2
9.175753125E0,4.980372032E-4,1.516165212E-3,-1.114321873E-2,1.125691439E-2
9.185710125E0,1.234933734E-3,-1.887355000E-3,-9.945329279E-3,1.019787942E-2
9.195667125E0,-1.601729542E-3,2.843802795E-4,-1.316119917E-2,1.326135639E-2
9.205624125E0,1.292061177E-3,-5.664993078E-4,-1.395775005E-2,1.402886774E-2
9.215581125E0,-3.488720395E-4,9.426567703E-5,-1.186670735E-2,1.187220877E-2
9.225538125E0,-2.460740507E-4,-1.125195064E-3,-1.443026401E-2,1.447615749E-2
9.235495125E0,1.665971009E-3,2.001165412E-3,-1.039560512E-2,1.071674989E-2
9.245452125E0,1.313901041E-3,1.076250337E-3,-1.155354828E-2,1.167771932E-2
9.255409125E0,-5.051584449E-4,4.658196121E-4,-1.221918501E-2,1.223849073E-2
9.265365125E0,1.012310619E-3,8.698208258E-4,-1.381948031E-2,1.388378181E-2
9.275322125E0,1.470393967E-3,-1.879042014E-3,-1.427455619E-2,1.447258829E-2
9.285279125E0,5.334939342E-4,-1.533097588E-3,-1.243324764E-2,1.253876592E-2
9.295236125E0,1.736317994E-3,1.028587110E-3,-1.437060907E-2,1.451162282E-2
9.305193125E0,7.434915751E-4,1.978802495E-3,-1.419297606E-2,1.434952990E-2
9.315150125E0,8.854027838E-4,1.635995694E-3,-1.523940451E-2,1.535251999E-2
9.325107125E0,3.010871587E-3,7.694028318E-4,-1.440610178E-2,1.473747254E-2
9.335064125E0,2.176985610E-3,1.068521291E-3,-1.366417110E-2,1.387770067E-2
9.345021125E0,3.993256250E-4,8.365595713E-4,-1.245616190E-2,1.249060696E-2
9.354978125E0,9.964618366E-4,1.457855105E-4,-1.150646247E-2,1.155044883E-2
9.364935125E0,-2.010513330E-3,1.693614759E-3,-1.333791763E-2,1.359450409E-2
9.374891125E0,4.711942747E-4,5.835620686E-4,-1.580966264E-2,1.582744457E-2
9.384848125E0,2.301584929E-3,1.745000482E-4,-1.227032021E-2,1.248553168E-2
9.394805125E0,-7.888434920E-4,4.835119471E-4,-1.207870059E-2,1.211408543E-2
9.404762125E0,1.022501383E-4,1.406563446E-3,-1.366381347E-2,1.373639962E-2
9.414719125E0,-4.318831488E-4,-8.373381570E-4,-1.170667820E-2,1.174452948E-2
9.424676125E0,1.422475907E-3,1.222883351E-3,-1.210402139E-2,1.224851889E-2
9.434633125E0,-1.483457163E-4,-1.776730642E-4,-1.423073374E-2,1.423261595E-2
9.444590125E0,1.031700987E-3,1.032901928E-4,-1.438573189E-2,1.442304953E-2
9.454547125E0,6.350303302E-4,2.204990014E-3,-1.409301534E-2,1.427859678E-2
9.464504125E0,1.343164826E-3,-8.102413267E-4,-1.298700273E-2,1.308139223E-2
9.474461125E0,-2.153469250E-4,-4.310021177E-4,-1.106696390E-2,1.107744677E-2
9.484417125E0,1.478689723E-3,2.600876614E-4,-1.301825978E-2,1.310455099E-2
9.494374125E0,-3.853649832E-4,2.462463453E-4,-1.304519176E-2,1.305320542E-2
9.504331125E0,-7.174611092E-4,2.304603346E-3,-1.173438504E-2,1.198005590E-2
9.514288125E0,-9.181147907E-4,-3.074109554E-4,-9.874340147E-3,9.921694895E-3
9.524245125E0,1.828669570E-3,3.714291379E-4,-9.714018553E-3,9.891620113E-3
9.534202125E0,3.007139312E-4,-8.513778448E-5,-8.701894432E-3,8.707505040E-3
9.544159125E0,-1.302775461E-3,1.994258724E-3,-1.284071244E-2,1.305979279E-2
9.554116125E0,-1.373578561E-3,-8.348161355E-4,-1.370644197E-2,1.380036911E-2
9.564073125E0,1.332991989E-3,-1.059054397E-3,-1.288911700E-2,1.300106922E-2
9.574030125E0,-1.551628578E-3,-1.864939928E-3,-7.129477337E-3,7.530936149E-3
9.583987125E0,-5.972571671E-5,-2.122467384E-3,-7.485009730E-3,7.780347397E-3
9.593943125E0,4.383560736E-5,2.416884527E-4,-8.000075817E-3,8.003845822E-3
9.603900125E0,-1.174294157E-3,-9.631253779E-4,-1.190666668E-2,1.200313662E-2
9.613857125E0,-1.470542280E-3,6.074113771E-4,-1.181764901E-2,1.192427236E-2
9.623814125E0,1.267187414E-3,2.109167166E-3,-1.096570492E-2,1.123837330E-2
9.633771125E0,6.308787270E-4,1.137678511E-3,-1.082340069E-2,1.090129914E-2
9.643728125E0,5.059763789E-4,-8.961781859E-4,-7.404699922E-3,7.475876428E-3
9.653685125E0,-8.110350464E-4,2.081366256E-3,-6.923897192E-3,7.275315503E-3
9.663642125E0,-3.846629988E-4,-1.705116592E-3,-1.220361516E-2,1.232816333E-2
9.673599125E0,-1.941177063E-3,1.796523109E-3,-1.535154879E-2,1.557773135E-2
9.683556125E0,1.164601417E-3,-1.792352647E-3,-1.235629246E-2,1.253980812E-2
9.693513125E0,-5.574944662E-4,-6.716204807E-4,-1.073828153E-2,1.077369781E-2
9.703470125E0,-3.782637650E-4,1.239996403E-3,-8.007742465E-3,8.112004311E-3
9.713426125E0,2.027428476E-3,1.154485159E-3,-8.227609098E-3,8.552008751E-3
9.723383125E0,-1.044794335E-3,1.456802711E-4,-8.115489036E-3,8.183763207E-3
9.733340125E0,3.562682541E-4,-5.117226392E-4,-1.027157530E-2,1.029048329E-2
9.743297125E0,-1.984682167E-4,-5.964115262E-4,-1.109662279E-2,1.111441109E-2
9.753254125E0,4.192085937E-3,3.642803058E-4,-1.149052568E-2,1.223676693E-2
9.763211125E0,-1.428249408E-3,-1.010975800E-3,-1.084231213E-2,1.098260901E-2
9.773168125E0,8.064247668E-4,-1.280779950E-3,-1.039354876E-2,1.050316971E-2
9.783125125E0,-1.499073696E-3,-1.642704010E-3,-7.164465263E-3,7.501683873E-3
9.793082125E0,2.911845222E-4,-9.134532884E-4,-1.113304496E-2,1.117425055E-2
9.803039125E0,2.048338065E-3,-7.451409474E-4,-1.020040549E-2,1.043068531E-2
9.812996125E0,5.304092774E-4,-5.896659568E-4,-1.357930899E-2,1.360245097E-2
9.822953125E0,-1.900790376E-3,8.058305830E-4,-1.205917448E-2,1.223462529E-2
9.832909125E0,2.224165946E-4,1.148404554E-3,-1.105843671E-2,1.112013150E-2
9.842866125E0,8.802174125E-4,-1.771751791E-3,-1.017240249E-2,1.036299471E-2
9.852823125E0,-1.428269199E-3,-8.402075619E-4,-5.608830601E-3,5.848494025E-3
9.862780125E0,-1.206427929E-3,-1.084153540E-3,-8.202482015E-3,8.361313799E-3
9.872737125E0,1.081472146E-3,8.890544996E-4,-8.569080383E-3,8.682691893E-3
9.882694125E0,-1.625364763E-3,1.050176099E-3,-1.210069843E-2,1.225445155E-2
9.892651125E0,1.946502249E-3,1.078270376E-3,-1.460736245E-2,1.477587817E-2
9.902608125E0,-1.752382377E-4,-1.230690628E-3,-1.190212369E-2,1.196686493E-2
9.912565125E0,-1.506520202E-4,-3.464771435E-4,-7.931005210E-3,7.939999123E-3
9.922522125E0,2.857868094E-5,2.236789092E-3,-4.380745813E-3,4.918838894E-3
9.932479125E0,6.770788459E-4,-1.140149310E-3,-6.791280583E-3,6.919528030E-3
9.942435125E0,4.547048593E-4,9.043589234E-4,-1.076045446E-2,1.080796011E-2
9.952392125E0,8.129437920E-4,-3.716051579E-4,-1.521644183E-2,1.524267266E-2
9.962349125E0,1.039845170E-3,-2.025428228E-3,-1.465691067E-2,1.483268917E-2
9.972306125E0,7.528106216E-4,2.077100798E-4,-1.118754596E-2,1.121476936E-2
9.982263125E0,-1.165198046E-3,-2.176085487E-3,-7.122496143E-3,7.538102270E-3
9.992220125E0,-5.195983686E-4,-1.029063947E-3,-5.883540958E-3,5.995415689E-3
1.000217713E1,1.379501773E-3,-2.947072499E-3,-4.826266319E-3,5.820748065E-3
1.001213413E1,2.071052324E-3,2.101857215E-3,-1.048713364E-2,1.089435787E-2
1.002209112E1,-1.646714518E-4,1.558847725E-4,-1.418519951E-2,1.418701174E-2
1.003204813E1,-8.339196211E-4,1.059250906E-3,-1.435914449E-2,1.442229056E-2
1.004200513E1,-2.277885564E-3,1.069104299E-3,-1.017505303E-2,1.048157673E-2
1.005196213E1,1.019454096E-3,-3.226324916E-4,-5.392894149E-3,5.497880108E-3
1.006191838E1,1.466332586E-3,1.554629765E-3,-4.412051290E-3,4.902366933E-3
1.007187538E1,1.556689152E-3,9.184153751E-4,-8.797666058E-3,8.981408352E-3
1.008183238E1,-3.293616464E-4,-7.055802271E-4,-1.282516308E-2,1.284877934E-2
1.009178938E1,3.305302234E-4,-1.493589953E-4,-1.387045346E-2,1.387519505E-2
1.010174638E1,-1.133942045E-3,-6.252657622E-4,-1.670086198E-2,1.675098721E-2
1.011170338E1,6.555218715E-5,6.029224023E-4,-1.167955250E-2,1.169528790E-2
1.012166037E1,-1.158969244E-3,1.541154459E-3,-7.081072778E-3,7.338934422E-3
1.013161738E1,-6.506321952E-4,-1.622239128E-3,-5.560286343E-3,5.828530369E-3
1.014157438E1,7.427338278E-4,-2.174046822E-3,-7.807461545E-3,8.138463546E-3
1.015153138E1,1.051865052E-3,-1.986594871E-3,-1.038058102E-2,1.062117892E-2
1.016148838E1,3.748894669E-4,3.838846460E-4,-1.150923036E-2,1.152173134E-2
1.017144538E1,-2.274829894E-4,3.618439659E-4,-1.065482013E-2,1.066338931E-2
1.018140138E1,1.841260586E-3,-1.750841737E-3,-9.316582233E-3,9.656831356E-3
1.019135838E1,8.958007675E-5,-4.833964631E-4,-6.501020864E-3,6.519583499E-3
1.020131538E1,-2.467771992E-4,2.026334405E-4,-7.775343955E-3,7.781897770E-3
1.021127238E1,9.127929807E-4,-5.036704242E-4,-1.144996099E-2,1.149732498E-2
1.022122938E1,6.480747834E-4,8.169282228E-5,-1.048376411E-2,1.050409371E-2
1.023118638E1,-1.522263745E-3,-1.502986997E-3,-1.445885189E-2,1.461624626E-2
1.024114338E1,6.095966091E-4,4.325984046E-4,-9.969562292E-3,9.997545784E-3
1.025110038E1,2.150376095E-3,-1.587125473E-3,-8.946401998E-3,9.337086983E-3
1.026105738E1,1.436915249E-3,-3.876378760E-4,-7.938662544E-3,8.076964253E-3
1.027101438E1,-3.888352076E-4,8.043991402E-4,-7.867543027E-3,7.918111143E-3
1.028097138E1,-2.591802273E-3,-1.434199512E-4,-8.824948221E-3,9.198789019E-3
1.029092838E1,6.266650744E-4,-1.237746328E-4,-1.508934237E-2,1.510285676E-2
1.030088438E1,1.530541922E-3,3.595892340E-4,-1.177610271E-2,1.188059165E-2
1.031084138E1,5.445035640E-5,-2.450668253E-3,-1.033707894E-2,1.062374420E-2
1.032079837E1,1.908010454E-3,-5.667479709E-4,-1.001590118E-2,1.021175712E-2
1.033075538E1,-1.991502941E-3,6.619468331E-4,-8.351998404E-3,8.611627890E-3
1.034071238E1,5.241191247E-4,7.301233709E-4,-6.958898157E-3,7.016697553E-3
1.035066938E1,2.557038097E-4,-7.627848536E-4,-9.790157899E-3,9.823157174E-3
1.036062638E1,2.683974104E-3,-1.198984683E-4,-1.247462444E-2,1.276065624E-2
1.037058338E1,3.226404078E-4,5.518291146E-4,-1.068628579E-2,1.070538725E-2
1.038054038E1,-2.368896967E-4,1.217885874E-3,-1.043062285E-2,1.050415421E-2
1.039049738E1,-1.929072547E-3,-4.874216393E-4,-9.842343628E-3,1.004144556E-2
1.040045438E1,7.162452675E-4,-8.189845830E-4,-1.058243588E-2,1.063821846E-2
1.041041137E1,8.512943750E-4,-1.618713140E-4,-7.410958409E-3,7.461448182E-3
1.042036738E1,5.423676921E-4,2.748165280E-3,-9.071704000E-3,9.494334552E-3
1.043032438E1,6.691343151E-5,-1.909441315E-3,-9.361082688E-3,9.554073091E-3
1.044028138E1,-3.820954589E-4,8.101789281E-4,-1.348472014E-2,1.351443910E-2
1.045023838E1,2.363409381E-3,1.153330319E-3,-1.039312407E-2,1.072067641E-2
1.046019538E1,-1.332525513E-3,-6.264606491E-4,-1.104400121E-2,1.114172517E-2
1.047015238E1,1.240515616E-3,2.598734573E-4,-1.000968367E-2,1.008960754E-2
1.048010938E1,-1.301205484E-3,1.683066599E-3,-7.011497393E-3,7.327137544E-3
1.049006638E1,-9.176714811E-4,-5.153324455E-4,-5.944566801E-3,6.037016062E-3
1.050002338E1,1.428839634E-3,-6.586108357E-4,-5.167989060E-3,5.402171958E-3
1.050998038E1,-2.373711672E-3,1.000184566E-3,-1.144122519E-2,1.172759609E-2
1.051993738E1,-2.499413211E-3,2.123239450E-3,-1.225908287E-2,1.269016647E-2
1.052989438E1,2.610049909E-3,1.162180677E-3,-1.376947947E-2,1.406277317E-2