"Time (s)","Gyroscope x (rad/s)","Gyroscope y (rad/s)","Gyroscope z (rad/s)","Absolute (rad/s)"
4.924333334E-3,3.205059329E-4,1.615899615E-3,2.426160686E-2,2.431747156E-2
1.488133334E-2,-9.586103261E-4,8.611595258E-4,2.587814443E-2,2.591020819E-2
2.483833333E-2,-2.241310431E-3,7.549086586E-4,2.707133815E-2,2.717444955E-2
3.479533334E-2,1.326526515E-3,-1.801280305E-4,2.506757528E-2,2.510329558E-2
4.475233334E-2,1.695872983E-3,7.960377261E-4,2.557193115E-2,2.564046264E-2
5.470833334E-2,8.303455543E-4,7.821898907E-4,2.443209663E-2,2.445871298E-2
6.466533334E-2,-1.636568923E-3,1.839510165E-3,2.548572235E-2,2.560437851E-2
7.462233333E-2,-5.366834812E-4,-1.956558786E-3,2.557760291E-2,2.565794072E-2
8.457933334E-2,1.338479575E-3,8.856998757E-4,2.653985471E-2,2.658834105E-2
9.453633333E-2,-5.952415522E-4,3.002583981E-5,2.621601522E-2,2.622278910E-2
1.044933333E-1,1.843768987E-3,-4.402510822E-4,2.657828294E-2,2.664579571E-2
1.144503333E-1,8.818352362E-4,-1.118292101E-3,2.515801974E-2,2.519829692E-2
1.244073333E-1,-2.360483631E-5,6.670011207E-4,2.458972856E-2,2.459878449E-2
1.343643333E-1,-8.698808961E-5,2.713373862E-3,2.574154362E-2,2.588430089E-2
1.443213333E-1,-5.667530932E-4,-9.210901335E-4,2.772082202E-2,2.774191035E-2
1.542783333E-1,-7.622290868E-4,-4.513086751E-4,2.629390173E-2,2.630881869E-2
1.642348750E-1,-2.228514990E-3,-1.933099702E-3,2.871751413E-2,2.886864685E-2
1.741918750E-1,4.578153603E-4,-2.662278712E-4,2.750897408E-2,2.751407143E-2
1.841488750E-1,-1.313373679E-3,-1.421011984E-5,2.768675983E-2,2.771789715E-2
1.941058750E-1,7.737455890E-4,-1.432343386E-3,2.588220313E-2,2.593335167E-2
2.040628750E-1,8.812153246E-4,-8.433079347E-4,2.530323528E-2,2.533261582E-2
2.140188750E-1,-1.741199289E-3,-1.222807914E-3,2.545370348E-2,2.554247550E-2
2.239758750E-1,9.700141381E-4,9.390609339E-4,2.498950064E-2,2.502594464E-2
2.339328750E-1,-1.301928656E-3,-8.913297206E-4,2.424940467E-2,2.430068134E-2
2.438898750E-1,-3.484009299E-3,2.519159578E-3,2.312969230E-2,2.352588259E-2
2.538468750E-1,2.049773000E-3,6.372481585E-5,2.421439625E-2,2.430108261E-2
2.638038750E-1,-3.744622227E-4,2.951179631E-3,2.632340975E-2,2.649097175E-2
2.737608750E-1,9.533899138E-4,-6.629964337E-4,2.549063973E-2,2.551707723E-2
2.837178750E-1,-2.651096554E-3,2.389920875E-3,2.621450648E-2,2.645638646E-2
2.936748750E-1,6.118082674E-4,2.567021176E-3,2.510343492E-2,2.524175810E-2
3.036318750E-1,5.573492963E-4,-6.580138579E-4,2.632882446E-2,2.634294247E-2
3.135888750E-1,7.501621731E-4,1.264521852E-3,2.517407760E-2,2.521697725E-2
3.235458750E-1,6.952161202E-4,3.144731745E-4,2.485045977E-2,2.486217146E-2
3.335028750E-1,-2.052633325E-3,3.480296582E-4,2.517962642E-2,2.526554996E-2
3.434598750E-1,8.387891576E-4,1.169807278E-3,2.064165287E-2,2.069178217E-2
3.534168750E-1,9.634250309E-4,4.270514473E-4,2.535757609E-2,2.537946465E-2
3.633738750E-1,-6.735685747E-4,7.485989481E-4,2.506671101E-2,2.508693078E-2
3.733298750E-1,-4.597168881E-4,1.068178564E-3,2.783027291E-2,2.785455861E-2
3.832868750E-1,2.009170828E-3,2.574459650E-3,2.537932619E-2,2.558856792E-2
3.932438750E-1,-2.148556057E-3,-2.157711424E-3,2.829974890E-2,2.846309539E-2
4.032008750E-1,3.504304914E-4,1.348732039E-4,2.593213692E-2,2.593485527E-2
4.131578750E-1,-4.035104066E-4,-1.631351188E-4,2.434755489E-2,2.435144478E-2
4.231148750E-1,1.536647440E-3,1.828046516E-4,2.402852662E-2,2.407830547E-2
4.330718750E-1,-1.487105619E-3,1.946083270E-3,2.550897561E-2,2.562628650E-2
4.430288750E-1,1.286855200E-3,6.657177582E-4,2.395196073E-2,2.399574127E-2
4.529858750E-1,3.113392740E-4,-1.300349832E-4,2.284355275E-2,2.284604438E-2
4.629428750E-1,1.451636897E-3,-1.094183885E-3,2.314760536E-2,2.321887426E-2
4.728998750E-1,1.476670615E-3,1.632094383E-3,2.316358313E-2,2.326791507E-2
4.828568750E-1,5.199896405E-4,-1.627719961E-3,2.620129287E-2,2.625695355E-2
4.928138750E-1,-1.361533534E-3,1.748370007E-3,2.399353310E-2,2.409564695E-2
5.027708750E-1,5.112546496E-4,1.749804243E-3,2.676417492E-2,2.682618600E-2
5.127278750E-1,-1.842180733E-3,-3.330539912E-4,2.440728061E-2,2.447896856E-2
5.226848750E-1,7.284412859E-4,3.071501851E-4,2.560470998E-2,2.561691124E-2
5.326418750E-1,-1.594101544E-3,6.003640592E-4,2.629100904E-2,2.634613355E-2
5.425978750E-1,9.145244258E-4,-4.776930436E-4,2.361863106E-2,2.364115646E-2
5.525548750E-1,-1.904165139E-3,1.306891441E-3,2.240955830E-2,2.252825144E-2
5.625118750E-1,6.569564575E-4,-8.333707228E-4,2.345866151E-2,2.348265101E-2
5.724688750E-1,-7.981946692E-4,2.576503903E-5,2.437611856E-2,2.438919708E-2
5.824258750E-1,-1.699123066E-3,1.525200903E-3,2.361715958E-2,2.372727299E-2
5.923828750E-1,-1.189660281E-3,2.055702731E-3,2.541825548E-2,2.552898190E-2
6.023398750E-1,2.998634009E-4,-1.287380233E-3,2.467006259E-2,2.470544988E-2
6.122968750E-1,2.156314440E-5,-6.852392107E-4,2.255498059E-2,2.256539756E-2
6.222538750E-1,-8.627923671E-4,1.232055016E-3,2.470874973E-2,2.475448814E-2
6.322108750E-1,5.707871169E-4,2.838740125E-3,2.257609181E-2,2.276102293E-2
6.421678750E-1,-3.167078830E-3,2.115052193E-3,2.521038800E-2,2.549642127E-2
6.521248750E-1,-7.832834963E-4,2.282029018E-4,2.279490232E-2,2.280949762E-2
6.620818750E-1,3.113325220E-4,-1.699933782E-3,1.990474761E-2,1.997963163E-2
6.720388750E-1,-3.592513967E-4,1.029273495E-3,2.343716472E-2,2.346250532E-2
6.819958750E-1,-1.819790108E-3,1.517850906E-4,2.592751943E-2,2.599174750E-2
6.919528750E-1,2.633343684E-4,-4.045488313E-4,2.477410249E-2,2.477880463E-2
7.019088750E-1,-2.028098796E-3,-1.560728997E-4,2.469552867E-2,2.477915817E-2
7.118658750E-1,2.377036028E-3,-5.861734971E-4,2.450804226E-2,2.463002304E-2
7.218228750E-1,-2.048084512E-3,-1.754312776E-3,2.451571822E-2,2.466359064E-2
7.317798750E-1,-1.951145474E-3,-2.093332820E-3,2.285363898E-2,2.303210423E-2
7.417368750E-1,-2.085489221E-3,6.555179134E-4,1.996265538E-2,2.008199639E-2
7.516938750E-1,-3.473262303E-3,-4.614116624E-4,2.081246860E-2,2.110533821E-2
7.616508750E-1,-1.975003630E-3,7.589850575E-4,1.979699545E-2,1.990973948E-2
7.716078750E-1,-2.455171198E-3,-1.859050244E-4,2.265829407E-2,2.279168086E-2
7.815648750E-1,-1.469761599E-3,1.140097156E-4,2.337479964E-2,2.342123941E-2
7.915218750E-1,-1.517165685E-3,-4.883976653E-4,2.388825640E-2,2.394136834E-2
8.014788750E-1,-1.193925273E-4,-1.045462675E-3,2.290292270E-2,2.292708257E-2
8.114358750E-1,5.333481822E-4,-3.772759810E-4,2.237987705E-2,2.238941031E-2
8.213928750E-1,-1.103175804E-3,-1.400577836E-3,1.925357990E-2,1.933594978E-2
8.313498750E-1,-1.068821177E-3,4.135677591E-4,2.030978911E-2,2.034209799E-2
8.413068750E-1,-2.598253544E-3,1.470101997E-4,1.935100183E-2,1.952520948E-2
8.512638750E-1,1.650287537E-3,-1.494828612E-3,1.917230338E-2,1.930117039E-2
8.612198750E-1,1.768994145E-3,1.697244123E-3,1.914554276E-2,1.930185963E-2
8.711768750E-1,1.114655519E-3,-6.439406425E-4,2.192241885E-2,2.196018134E-2
8.811338750E-1,2.343362430E-3,-2.863528207E-4,2.192725427E-2,2.205397528E-2
8.910908750E-1,-4.068841226E-4,-1.293294132E-3,2.078209259E-2,2.082627035E-2
9.010478750E-1,1.298621646E-3,2.247267403E-3,1.988906227E-2,2.005770243E-2
9.110048750E-1,-3.300125012E-3,1.146076247E-4,2.024113201E-2,2.050871485E-2
9.209618750E-1,2.056214726E-3,-1.738182269E-3,1.863189042E-2,1.882542528E-2
9.309188750E-1,1.654343680E-3,-1.307282597E-3,1.718046889E-2,1.730937180E-2
9.408758750E-1,-6.482622121E-4,-1.050727442E-4,2.096743137E-2,2.097771347E-2
9.508328750E-1,1.325406367E-3,-5.000196397E-4,2.040443942E-2,2.045355396E-2
9.607898750E-1,1.864871942E-3,4.098461941E-4,1.882632077E-2,1.892289816E-2
9.707468750E-1,2.989332424E-4,8.569909260E-4,1.674612612E-2,1.677070465E-2
9.807038750E-1,-6.752402987E-4,-6.804047152E-4,1.805007644E-2,1.807551270E-2
9.906608750E-1,-1.312534790E-3,-6.849318743E-4,1.922319643E-2,1.928012345E-2
1.000617875E0,-6.646390539E-4,1.434423029E-5,1.759886928E-2,1.761142103E-2
1.010574875E0,-1.204461791E-3,1.569097862E-3,2.126231231E-2,2.135412656E-2
1.020530875E0,6.776222726E-4,-1.504517160E-3,2.137544565E-2,2.143903964E-2
1.030487875E0,-1.312025357E-3,-3.622872755E-4,2.007582597E-2,2.012191470E-2
1.040444875E0,-1.189978793E-3,1.348031685E-3,2.148698270E-2,2.156208860E-2
1.050401875E0,-6.200622302E-4,-5.172565579E-5,1.699982211E-2,1.701120526E-2
1.060358875E0,1.070916303E-3,5.466984585E-4,1.517253742E-2,1.522010619E-2
1.070315875E0,-7.221901324E-4,-2.032481134E-4,1.874943078E-2,1.876443505E-2
1.080272875E0,-2.198980423E-3,4.187673330E-4,1.717786863E-2,1.732310745E-2
1.090229875E0,-1.854633680E-3,2.192699350E-3,2.092147246E-2,2.111766101E-2
1.100186875E0,-7.173838094E-4,-1.379450783E-3,2.123273909E-2,2.128959214E-2
1.110143875E0,1.754029654E-3,-1.241765916E-3,1.894374937E-2,1.906526272E-2
1.120100875E0,7.092769956E-4,-2.431803383E-3,2.122288011E-2,2.137352057E-2
1.130057875E0,-8.374869358E-4,1.557346433E-3,1.922524162E-2,1.930638826E-2
1.140014875E0,5.160622532E-4,-4.914356396E-4,1.736577973E-2,1.738039513E-2
1.149971875E0,-7.151172031E-4,-6.690686569E-4,1.697962359E-2,1.700784121E-2
1.159928875E0,-5.789331626E-4,1.455141231E-3,1.759340987E-2,1.766297456E-2
1.169886208E0,4.451279528E-5,1.434900798E-3,1.692149416E-2,1.698228154E-2
1.179842208E0,-2.062470652E-3,-1.067370176E-4,2.082441561E-2,2.092657314E-2
1.189799208E0,1.983669819E-3,-1.147500239E-3,1.945155673E-2,1.958608593E-2
1.199756208E0,1.242591301E-3,2.504334785E-3,1.902286895E-2,1.922720127E-2
1.209713208E0,4.686767934E-4,-6.011780351E-4,1.903884672E-2,1.905410080E-2
1.219670208E0,-6.403331645E-5,-4.632147029E-4,1.570830494E-2,1.571526367E-2
1.229627208E0,-9.988027159E-4,1.366376877E-3,1.549392194E-2,1.558609026E-2
1.239584208E0,-1.567762345E-3,-5.214689299E-4,1.638698578E-2,1.647006714E-2
1.249541208E0,5.212211981E-4,-3.795223311E-4,1.942778379E-2,1.943847966E-2
1.259498208E0,-1.054676482E-3,1.127831638E-4,2.076169103E-2,2.078876805E-2
1.269455208E0,4.572001053E-4,-2.198575065E-3,1.705350354E-2,1.720071938E-2
1.279412208E0,-1.262406120E-3,2.586809918E-3,1.611763798E-2,1.637264514E-2
1.289369208E0,5.746424431E-4,2.735881135E-4,1.482760347E-2,1.484125632E-2
1.299326208E0,-1.741247717E-3,-1.389561221E-4,1.309575886E-2,1.321174297E-2
1.309283208E0,-7.144571282E-5,2.237648703E-3,1.652404293E-2,1.667501637E-2
1.319240208E0,-6.268089637E-4,-4.185978323E-4,1.841277629E-2,1.842819699E-2
1.329197208E0,-1.316301525E-3,-2.982234582E-4,1.859413832E-2,1.864305680E-2
1.339153208E0,3.558794269E-4,-7.621683180E-4,2.140402049E-2,2.142054256E-2
1.349110208E0,-2.014067722E-3,-8.005183190E-4,1.922236010E-2,1.934415742E-2
1.359067208E0,-4.842747003E-4,-5.035055801E-4,2.119205147E-2,2.120356303E-2
1.369024208E0,-2.051545074E-3,-1.788214780E-3,1.961918920E-2,1.980704759E-2
1.378981208E0,-2.729192376E-3,-2.703582868E-4,1.929444820E-2,1.948838926E-2
1.388938208E0,-1.325440127E-3,2.833129838E-4,1.667416468E-2,1.672916094E-2
1.398895208E0,-2.170344582E-3,-1.135985367E-3,1.594772749E-2,1.613477209E-2
1.408852208E0,2.164482605E-3,-1.059552655E-3,1.512747444E-2,1.531822835E-2
1.418809208E0,-1.372025115E-3,3.247400746E-4,1.528713480E-2,1.535201613E-2
1.428766208E0,9.808776667E-4,-8.566379547E-4,1.806747168E-2,1.811434466E-2
1.438723208E0,-2.368076239E-4,-1.274101436E-3,1.636903360E-2,1.642025193E-2
1.448680208E0,1.529933419E-3,1.398913562E-3,1.744521782E-2,1.756796175E-2
1.458637208E0,1.057830523E-3,-1.432502642E-3,1.708989590E-2,1.718242158E-2
1.468594208E0,-2.359331120E-4,4.538139328E-4,1.423232257E-2,1.424151036E-2
1.478551208E0,-3.088079393E-4,-8.657351136E-4,1.701885462E-2,1.704365783E-2
1.488507208E0,1.111189486E-3,1.000341959E-3,1.867027953E-2,1.873004976E-2
1.498464208E0,6.408507470E-4,7.189270109E-4,1.637470350E-2,1.640300156E-2
1.508421208E0,-1.314974623E-3,2.487798221E-3,1.768577844E-2,1.790823993E-2
1.518378208E0,-3.329580650E-4,2.309683710E-3,1.684798673E-2,1.700882585E-2
1.528335208E0,-2.200366464E-3,9.056646377E-4,1.591561362E-2,1.609250130E-2
1.538292208E0,7.794471458E-6,-1.797731034E-3,1.745908521E-2,1.755139750E-2
1.548249208E0,-7.101937663E-4,-5.391212180E-4,1.719116978E-2,1.721427737E-2
1.558206208E0,-1.405912684E-3,-1.359153539E-3,1.650651917E-2,1.662194525E-2
1.568163208E0,2.989900997E-3,-2.532541752E-3,1.959126070E-2,1.997925853E-2
1.578120208E0,-5.034685601E-4,1.712905243E-3,1.804046333E-2,1.812859184E-2
1.588077208E0,-4.624559078E-4,2.787932754E-4,2.081281692E-2,2.081982083E-2
1.598034208E0,1.914451132E-3,-5.536321551E-4,1.682648435E-2,1.694409063E-2
1.607991208E0,-5.042902194E-5,2.613756806E-5,1.529809833E-2,1.529820377E-2
1.617948208E0,9.418155532E-4,1.289211214E-4,1.241327263E-2,1.244961745E-2
1.627905208E0,-6.275852211E-4,-4.711374640E-5,1.228437386E-2,1.230048471E-2
1.637862208E0,-1.128491480E-3,1.768282615E-3,1.282316819E-2,1.299361223E-2
1.647818208E0,1.692861319E-3,-6.397254765E-5,1.250012964E-2,1.261440101E-2
1.657775208E0,-8.952822536E-4,-5.589332432E-5,1.613185555E-2,1.615677622E-2
1.667732208E0,2.665097825E-3,9.012464434E-4,1.558750868E-2,1.583936294E-2
1.677689208E0,4.793080734E-4,-1.459687017E-3,1.827571727E-2,1.834018169E-2
1.687646208E0,1.513946103E-3,2.536652610E-3,1.759075187E-2,1.783707349E-2
1.697603208E0,1.734866994E-3,2.369154245E-4,1.926513761E-2,1.934454496E-2
1.707560208E0,-8.420075756E-4,6.221141666E-5,1.776071638E-2,1.778077314E-2
1.717517208E0,-5.645889323E-4,-7.360428572E-4,1.901736856E-2,1.903997969E-2
1.727474208E0,-2.909502247E-3,-6.510885432E-4,1.760669053E-2,1.785734221E-2
1.737431208E0,5.391936284E-4,2.218522131E-4,1.739744656E-2,1.740721388E-2
1.747388208E0,-3.577589523E-4,4.777824506E-4,1.704697497E-2,1.705742135E-2
1.757345208E0,2.705313964E-4,4.867091775E-6,1.471073925E-2,1.471322739E-2
1.767302208E0,6.303244736E-4,-4.947418347E-4,1.494909078E-2,1.497055088E-2
1.777259208E0,-6.725359708E-4,9.467806667E-4,1.557362080E-2,1.561686150E-2
1.787216208E0,-1.878149109E-3,-1.242337748E-3,1.482846960E-2,1.499847852E-2
1.797172208E0,-5.304687656E-4,8.817100897E-4,1.562099904E-2,1.565485295E-2
1.807129208E0,-2.319284249E-4,-2.567907795E-4,1.814993843E-2,1.815323656E-2
1.817086208E0,1.179025276E-3,-1.261680387E-3,1.672235131E-2,1.681127513E-2
1.827043208E0,5.212244578E-4,-1.912290230E-3,1.730158925E-2,1.741475005E-2
1.837000208E0,-7.087462582E-4,-2.004615963E-4,1.862692088E-2,1.864147761E-2
1.846957208E0,1.145879040E-3,1.276527531E-3,1.690092683E-2,1.698775703E-2
1.856914208E0,9.268105496E-4,8.606165648E-4,1.734791696E-2,1.739396049E-2
1.866871208E0,-1.865779981E-3,-1.257129014E-3,1.736442745E-2,1.750956450E-2
1.876828208E0,5.224200431E-4,-5.200998858E-4,1.516868360E-2,1.518658582E-2
1.886785208E0,-1.299981028E-3,1.093508676E-3,1.396280341E-2,1.406575952E-2
1.896742208E0,5.414708285E-4,7.181148976E-4,1.457889564E-2,1.460661076E-2
1.906699208E0,-8.196707349E-4,-2.763094380E-4,1.341030188E-2,1.343816965E-2
1.916656208E0,4.355515121E-4,-1.003116369E-3,1.635668240E-2,1.639320002E-2
1.926613208E0,2.435375936E-4,7.279375568E-4,1.255395450E-2,1.257739946E-2
1.936570208E0,-4.918330815E-4,1.162888482E-3,1.374351792E-2,1.380139465E-2
1.946527208E0,8.621180896E-4,-7.561855018E-4,1.339837350E-2,1.344735946E-2
1.956483208E0,-2.122223377E-4,1.668811776E-3,1.693212055E-2,1.701548346E-2
1.966440208E0,-4.106278066E-4,-2.625128254E-4,1.222977601E-2,1.223948322E-2
1.976397208E0,-1.981554786E-3,1.510046422E-5,1.347164810E-2,1.361661081E-2
1.986354208E0,-2.194341039E-3,1.101669855E-3,1.603307948E-2,1.622000143E-2
1.996311208E0,-2.886620583E-3,2.457404509E-3,1.303038187E-2,1.357063989E-2
2.006268208E0,1.409440301E-5,2.981135622E-4,1.545012929E-2,1.545301153E-2
2.016225208E0,-3.461984452E-4,1.033987850E-3,1.239775866E-2,1.244561787E-2
2.026182208E0,2.002823167E-4,-1.035555266E-3,1.562018320E-2,1.565575328E-2
2.036139208E0,3.103429917E-4,1.181028783E-4,1.465888321E-2,1.466264363E-2
2.046096208E0,-1.594349742E-3,-1.208151691E-3,1.474357024E-2,1.487865736E-2
2.056053208E0,-1.051658066E-3,4.890840501E-4,1.298737153E-2,1.303905699E-2
2.066010208E0,-1.299598254E-3,-5.340110511E-5,1.461456344E-2,1.467233014E-2
2.075967208E0,1.675081672E-3,2.021621913E-4,1.570916735E-2,1.579951603E-2
2.085924208E0,-1.377966255E-3,-4.481822252E-4,1.611982845E-2,1.618482399E-2
2.095881208E0,1.587894512E-4,2.340776846E-4,1.754496805E-2,1.754724795E-2
2.105837208E0,-3.240415826E-4,9.637838230E-4,1.861449145E-2,1.864224166E-2
2.115794208E0,-1.153860008E-3,1.991743222E-3,1.566548645E-2,1.583369508E-2
2.125751208E0,-1.865190221E-3,1.991689205E-4,1.660638303E-2,1.671198851E-2
2.135708208E0,-7.794396952E-4,1.480148174E-3,1.265052333E-2,1.276064675E-2
2.145665208E0,9.050095687E-4,-1.226422377E-3,1.174797863E-2,1.184644065E-2
2.155622208E0,-1.479954459E-3,1.777607016E-3,1.504838467E-2,1.522511192E-2
2.165578208E0,1.800527214E-3,2.040194348E-3,1.400895417E-2,1.427077742E-2
2.175535208E0,2.162214136E-3,-9.658578783E-4,1.479803398E-2,1.498632247E-2
2.185492208E0,-9.158675093E-4,-2.175465226E-3,1.304514334E-2,1.325696899E-2
2.195449208E0,-6.655836478E-5,3.506997600E-4,1.290556788E-2,1.291050358E-2
2.205406208E0,-5.163662136E-4,-1.130816527E-3,1.420439407E-2,1.425868827E-2
2.215363208E0,5.128127523E-4,8.899969980E-4,1.302081905E-2,1.306127101E-2
2.225320208E0,2.713116352E-3,1.275089569E-3,1.237659715E-2,1.273448117E-2
2.235277208E0,5.795757752E-4,-6.275996566E-5,1.660619304E-2,1.661642242E-2
2.245233208E0,1.441641012E-3,1.091720536E-3,1.348869503E-2,1.360937456E-2
2.255190208E0,6.888920907E-4,1.218892634E-3,1.717619225E-2,1.723316140E-2
2.265147208E0,-3.774375655E-4,-3.465134650E-4,1.320035756E-2,1.321029789E-2
2.275104208E0,-6.553959101E-4,4.684645683E-4,1.181207970E-2,1.183951982E-2
2.285061208E0,2.940403996E-3,3.360924311E-3,1.502598077E-2,1.567551868E-2
2.295018208E0,-2.983477898E-4,3.215335310E-4,1.294503361E-2,1.295246271E-2
2.304975208E0,-1.292772125E-3,1.795860007E-3,1.540526003E-2,1.556336755E-2
2.314932208E0,1.630121144E-3,1.368038356E-3,1.485719159E-2,1.500882960E-2
2.324889208E0,-1.863413723E-3,-1.373952255E-3,1.434347034E-2,1.452911548E-2
2.334846208E0,-1.860971330E-3,-1.384662464E-4,1.187256537E-2,1.201832749E-2
2.344803208E0,7.329473738E-4,-1.203730702E-3,1.216977648E-2,1.225110767E-2
2.354760208E0,-1.088352641E-3,-1.509102061E-3,1.500138268E-2,1.511632835E-2
2.364717208E0,-1.217516139E-3,-9.309966117E-5,1.703151315E-2,1.707522924E-2
2.374674208E0,-5.922724959E-4,-7.933313027E-4,1.858586259E-2,1.861221238E-2
2.384631208E0,1.872348366E-4,-1.118237153E-3,1.556876488E-2,1.560999523E-2
2.394588208E0,-4.679383710E-4,5.370276049E-4,1.357557625E-2,1.359425008E-2
2.404544208E0,-2.250580583E-4,3.340952098E-4,1.088871062E-2,1.089615940E-2
2.414501208E0,-2.630601171E-3,2.355838194E-3,1.292215660E-2,1.339597579E-2
2.424458208E0,-1.303281402E-3,2.567349002E-4,1.175995171E-2,1.183473360E-2
2.434415208E0,-4.949492868E-4,1.780864783E-3,1.419359632E-2,1.431344231E-2
2.444372208E0,-3.795069642E-5,-5.794949830E-4,1.679097675E-2,1.680101648E-2
2.454329208E0,7.014023140E-4,3.264220431E-3,1.574900374E-2,1.609901298E-2
2.464286208E0,-2.616629936E-3,1.432616264E-4,1.556018367E-2,1.577930899E-2
2.474243208E0,1.383828232E-3,-3.646333702E-3,1.415614411E-2,1.468356722E-2
2.484200208E0,-1.993059879E-3,1.781455241E-3,1.415800676E-2,1.440815831E-2
2.494157208E0,4.575506318E-4,-2.092192881E-3,1.193389669E-2,1.212454180E-2
2.504114208E0,9.329249151E-4,-7.694009691E-4,1.393153146E-2,1.398391560E-2
2.514071208E0,-1.114055049E-4,-1.531159505E-4,1.756898314E-2,1.757000353E-2
2.524028208E0,-6.432388909E-4,-6.210338324E-4,1.828563958E-2,1.830748629E-2
2.533985208E0,-2.041185508E-3,-7.835291326E-4,1.253780350E-2,1.272701351E-2
2.543941208E0,3.205059329E-4,-1.680478454E-5,1.058330759E-2,1.058817293E-2
2.553898208E0,3.284154227E-3,2.155434340E-4,1.110253669E-2,1.158008847E-2
2.563855208E0,-1.022709766E-3,-1.046795398E-3,1.242586412E-2,1.251174708E-2
2.573812208E0,-6.470922381E-5,-1.347223297E-3,1.175506227E-2,1.183218859E-2
2.583769208E0,-1.296903938E-4,4.088645801E-4,1.333298348E-2,1.333988149E-2
2.593726208E0,-7.563226391E-4,-1.039891504E-3,1.567615941E-2,1.572880708E-2
2.603683208E0,-1.926249126E-3,-3.155115992E-4,1.415576041E-2,1.428970035E-2
2.613640208E0,-2.377233468E-4,-8.409433067E-4,1.161391661E-2,1.164674877E-2
2.623597208E0,3.684122348E-4,1.146307215E-3,9.507354349E-3,9.583294555E-3
2.633554208E0,-3.038686700E-4,1.007840037E-3,1.065076888E-2,1.070266113E-2
2.643511208E0,-1.774200005E-3,-2.585562877E-3,1.041587815E-2,1.087765777E-2
2.653468208E0,7.457241882E-4,1.186099835E-3,1.269824058E-2,1.277529848E-2
2.663425208E0,-9.568347596E-4,3.581233323E-4,1.341116801E-2,1.345002648E-2
2.673382208E0,-9.050453082E-5,4.389863461E-4,1.700670272E-2,1.701260819E-2
2.683339208E0,9.068492800E-4,-1.667574048E-3,1.515846699E-2,1.527685506E-2
2.693295208E0,-1.342345728E-3,1.192270778E-3,1.262423396E-2,1.275126209E-2
2.703252208E0,8.145485772E-4,-1.779550686E-3,1.246976852E-2,1.262241724E-2
2.713209208E0,-2.803786891E-3,-1.644717529E-3,1.114514843E-2,1.160950689E-2
2.723166208E0,9.041321464E-4,5.867453292E-4,1.214676350E-2,1.219449009E-2
2.733123208E0,-2.027806360E-3,8.863164112E-4,1.131851971E-2,1.153284197E-2
2.743080208E0,-1.222999068E-3,-1.442885026E-3,1.354359090E-2,1.367503194E-2
2.753037208E0,1.351793297E-3,6.466917694E-5,1.526895538E-2,1.532881357E-2
2.762994208E0,7.062430959E-4,-1.533494331E-3,1.392911747E-2,1.403106189E-2
2.772951208E0,2.170444932E-4,-1.320653595E-3,1.284439862E-2,1.291393860E-2
2.782908208E0,-8.096313104E-5,1.635455526E-3,1.466040686E-2,1.475156938E-2
2.792865208E0,-9.465843905E-4,1.359079033E-3,1.308070123E-2,1.318513794E-2
2.802822208E0,9.913978865E-4,-1.915544271E-3,1.239307225E-2,1.257936482E-2
2.812779208E0,1.770148287E-3,7.968796417E-4,1.480855048E-2,1.493524721E-2
2.822736208E0,1.802106271E-3,-1.299827360E-3,1.285938174E-2,1.304993628E-2
2.832693208E0,3.939074231E-4,-5.286736414E-4,1.336395368E-2,1.338020616E-2
2.842649208E0,1.622157404E-3,-3.004409373E-4,1.482975855E-2,1.492123983E-2
2.852606208E0,1.110258745E-3,1.369180158E-3,1.238110848E-2,1.250596561E-2
2.862563208E0,-3.638009075E-4,-1.018609852E-3,1.459445991E-2,1.463448588E-2
2.872520208E0,-1.945797121E-3,-1.480758190E-3,1.236722246E-2,1.260662376E-2
2.882477208E0,2.683552448E-4,1.264960505E-3,1.315924898E-2,1.322263110E-2
2.892434208E0,-5.462057889E-4,1.115603372E-4,1.160900109E-2,1.162237896E-2
2.902391208E0,-7.438124157E-4,-8.056322113E-4,1.216107421E-2,1.221040646E-2
2.912348208E0,7.027543616E-4,-6.251167506E-4,1.133922301E-2,1.137816388E-2
2.922305208E0,3.839739366E-4,-9.979587048E-4,1.198317669E-2,1.203078889E-2
2.932262208E0,-2.531997859E-3,1.256245188E-3,1.308355853E-2,1.338539013E-2
2.942219208E0,-1.276051160E-3,-2.099337988E-3,1.426653564E-2,1.447651773E-2
2.952176208E0,1.088371733E-3,-5.705449730E-4,1.280634664E-2,1.286516960E-2
2.962133208E0,1.558686025E-3,1.372497529E-3,1.467029192E-2,1.481656898E-2
2.972090208E0,7.270843489E-4,-3.100586124E-3,1.296328194E-2,1.334874394E-2
2.982047208E0,1.106851036E-3,1.795369200E-3,1.229323260E-2,1.247285203E-2
2.992003208E0,1.512402087E-3,1.254373230E-3,1.045642793E-2,1.063944065E-2
3.001960208E0,1.551284222E-3,-1.047130674E-3,1.169559732E-2,1.184440636E-2
3.011917208E0,1.155982958E-3,-1.707430929E-3,1.392099261E-2,1.407286937E-2
3.021874208E0,-1.749525778E-3,-9.614787996E-4,1.520649716E-2,1.533697616E-2
3.031831208E0,6.235886831E-4,-4.099775106E-4,1.396838203E-2,1.398830372E-2
3.041788208E0,4.728068598E-5,1.639058813E-3,1.366451383E-2,1.376254654E-2
3.051745208E0,-2.546771429E-5,1.359225251E-3,1.299100742E-2,1.306194532E-2
3.061702208E0,-2.438470256E-4,2.204779536E-3,9.948346764E-3,1.019265017E-2
3.071659208E0,-6.797150709E-4,6.499662995E-4,1.206760667E-2,1.210419760E-2
3.081616208E0,1.045480720E-3,4.361150786E-4,1.222925819E-2,1.228161155E-2
3.091573208E0,-2.952435752E-3,-3.988128155E-4,1.438512839E-2,1.469039984E-2
3.101530208E0,-1.909542130E-3,-1.975936815E-3,1.267724298E-2,1.297162931E-2
3.111487208E0,-1.693136059E-3,1.409490593E-3,1.485355012E-2,1.501603558E-2
3.121444208E0,1.102916664E-3,-2.075522207E-3,1.076346822E-2,1.101709879E-2
3.131401208E0,-1.334850676E-4,6.712283939E-4,1.020526700E-2,1.022818852E-2
3.141357208E0,-1.264263177E-3,6.358083338E-4,1.486819424E-2,1.493538796E-2
3.151314208E0,2.178499009E-3,2.046677284E-3,1.349063963E-2,1.381781833E-2
3.161271208E0,3.217664314E-3,-5.978420377E-4,1.200752333E-2,1.244553716E-2
3.171228958E0,-6.531870458E-4,1.750330441E-3,1.250480860E-2,1.264359712E-2
3.181185958E0,-1.781302039E-3,1.886524260E-4,1.125818118E-2,1.139979255E-2
3.191142958E0,-1.563095255E-3,-1.501749270E-3,1.214240491E-2,1.233436317E-2
3.201099958E0,-1.545492560E-4,-1.680979505E-3,1.307317987E-2,1.318171497E-2
3.211056958E0,1.740886364E-4,-3.886409104E-6,1.420459338E-2,1.420566066E-2
3.221013958E0,-1.737528248E-3,-2.504950389E-4,1.294172369E-2,1.306024365E-2
3.230970958E0,-1.427508891E-3,-1.006294042E-4,1.321552880E-2,1.329278411E-2
3.240927958E0,5.530839553E-4,-1.467896625E-3,1.054464467E-2,1.066068260E-2
3.250884958E0,1.582835568E-3,-2.160624601E-3,1.168345101E-2,1.198652137E-2
3.260841958E0,1.684307354E-4,-3.763064742E-4,1.225150563E-2,1.225844059E-2
3.270798958E0,-6.486617494E-4,-6.675506011E-4,1.133997180E-2,1.137810820E-2
3.280754958E0,-9.639798664E-4,2.176971175E-3,1.483190618E-2,1.502178091E-2
3.290711958E0,-1.724243164E-3,6.654188037E-4,1.356215030E-2,1.368750223E-2
3.300668958E0,-6.635061000E-4,-4.634950310E-4,1.474965364E-2,1.477184316E-2
3.310625958E0,-8.006643038E-4,-3.802571446E-4,1.313101128E-2,1.316089343E-2
3.320582958E0,2.000714885E-3,-1.436732709E-3,1.579790190E-2,1.598876998E-2
3.330539958E0,-8.117908146E-4,7.528103888E-4,1.199817285E-2,1.204914435E-2
3.340496958E0,3.043399192E-4,6.191190332E-4,1.231109351E-2,1.233040772E-2
3.350453958E0,-2.120323945E-3,-1.721465029E-3,9.610518813E-3,9.991060371E-3
3.360410958E0,-4.499894567E-4,-4.953239113E-5,1.443297043E-2,1.444006854E-2
3.370367958E0,6.912334356E-4,1.143431291E-4,1.541163027E-2,1.542754762E-2
3.380324958E0,-1.423358917E-4,-1.019630581E-3,1.146642491E-2,1.151254995E-2
3.390281958E0,-1.121209003E-3,6.423518062E-5,1.259629801E-2,1.264626266E-2
3.400238958E0,-2.309142146E-4,-9.502191097E-5,1.473801211E-2,1.474012725E-2
3.410195958E0,-3.862651065E-4,2.027876675E-3,1.223202609E-2,1.240499684E-2
3.420152958E0,7.285340689E-4,-2.011340111E-3,1.598867960E-2,1.613115391E-2
3.430108958E0,2.009891672E-3,6.174426526E-4,1.460689493E-2,1.475744827E-2
3.440065958E0,-6.822978612E-4,-8.289208636E-4,1.288515888E-2,1.292980895E-2
3.450022958E0,2.184694866E-3,-1.683282666E-3,1.142450422E-2,1.175268603E-2
3.459979958E0,-3.318558447E-5,-2.286489122E-3,1.082023233E-2,1.105922970E-2
3.469936958E0,-1.758110011E-3,2.187797800E-4,1.031128317E-2,1.046237908E-2
3.479893958E0,-1.649453072E-3,-8.161244914E-4,1.096215844E-2,1.111555992E-2
3.489850958E0,-9.234803729E-4,-5.304096267E-4,1.204617135E-2,1.209315487E-2
3.499807958E0,-5.940473638E-4,-3.535766155E-4,1.292634569E-2,1.294481833E-2
3.509764958E0,-4.073099699E-4,1.094471663E-3,1.468342543E-2,1.472979130E-2
3.519721958E0,2.186875325E-3,8.108448237E-4,1.496332511E-2,1.514400843E-2
3.529678958E0,3.389664926E-5,8.616056293E-4,1.216643676E-2,1.219695440E-2
3.539635958E0,-1.876784954E-4,1.578528434E-3,8.119497448E-3,8.273645753E-3
3.549592958E0,2.289674943E-3,-1.835399307E-3,1.274237037E-2,1.307590550E-2
3.559549958E0,-5.902673583E-4,1.220246777E-4,1.260069013E-2,1.261509799E-2
3.569506958E0,-5.250680260E-4,-5.514454097E-4,1.524307951E-2,1.526208575E-2
3.579462958E0,-1.274748007E-3,2.291277051E-4,1.225341484E-2,1.232167429E-2
3.589419958E0,-2.183103934E-4,-2.794470638E-4,1.256219298E-2,1.256719708E-2
3.599376958E0,-8.348319679E-4,-2.605452202E-3,1.128520444E-2,1.161211285E-2
3.609333958E0,8.793476736E-4,3.561694175E-4,1.023517922E-2,1.027905650E-2
3.619290958E0,4.026418319E-4,-2.645744942E-3,6.966944784E-3,7.463270487E-3
3.629247958E0,8.396144258E-4,-1.505818218E-3,8.038409054E-3,8.221220166E-3
3.639204958E0,-2.422225429E-3,-1.197690144E-3,1.123340428E-2,1.155383094E-2
3.649161958E0,-7.222881541E-4,-1.080646180E-3,1.545407996E-2,1.550864545E-2
3.659118958E0,2.750474028E-3,-8.859690279E-4,1.307294890E-2,1.338850408E-2
3.669075958E0,-1.240895828E-3,4.839980975E-4,1.444851235E-2,1.450977552E-2
3.679032958E0,9.492877871E-4,-1.219891943E-3,9.488906711E-3,9.613981185E-3
3.688989958E0,1.349173952E-3,7.448624820E-5,1.146396436E-2,1.154332263E-2
3.698946958E0,2.948284382E-4,-6.064837798E-4,1.115929894E-2,1.117965560E-2
3.708903958E0,1.101572532E-3,2.928539179E-3,1.151099429E-2,1.192865429E-2
3.718860958E0,-9.919384029E-4,-2.558903769E-3,1.253684238E-2,1.283371914E-2
3.728816958E0,5.120200804E-4,-2.288785763E-3,7.236907259E-3,7.607465511E-3
3.738773958E0,1.105638687E-3,8.217860013E-4,1.266309805E-2,1.273781070E-2
3.748730958E0,1.382847084E-3,6.139520556E-4,1.123536937E-2,1.133678650E-2
3.758687958E0,-4.121235106E-4,-2.254538238E-3,1.022523083E-2,1.047893763E-2
3.768644958E0,1.037798123E-3,8.969912305E-4,1.115242392E-2,1.123646641E-2
3.778601958E0,-6.461185403E-4,2.044813707E-3,1.113431528E-2,1.133894656E-2
3.788558958E0,1.463698689E-3,-1.261848025E-3,1.298459992E-2,1.312762390E-2
3.798515958E0,1.176609891E-3,-1.459986903E-3,1.288499683E-2,1.302071872E-2
3.808472958E0,1.356462017E-4,7.096659392E-4,1.090109162E-2,1.092500911E-2
3.818429958E0,-1.682760194E-3,1.417001709E-3,1.356424950E-2,1.374148610E-2
3.828386958E0,-3.497926285E-3,1.055914909E-4,1.033002138E-2,1.090669426E-2
3.838343958E0,-1.477385871E-3,-1.132115722E-5,1.074467599E-2,1.084577611E-2
3.848300958E0,1.571299275E-3,1.374569722E-3,8.830972016E-3,9.074386485E-3
3.858257958E0,7.443877403E-4,1.439817250E-3,1.020037010E-2,1.032834629E-2
3.868213958E0,1.897258684E-3,-1.451515593E-3,1.036226377E-2,1.063404901E-2
3.878170958E0,-1.189345028E-3,-1.664302312E-3,1.124243811E-2,1.142702316E-2
3.888127958E0,9.855970275E-4,9.482586756E-4,1.171354577E-2,1.179312302E-2
3.898084958E0,3.286301857E-3,-1.754317433E-3,1.170209423E-2,1.228073364E-2
3.908041958E0,-7.310390938E-4,2.085702494E-3,1.092728227E-2,1.114854569E-2
3.917998958E0,-1.657020068E-3,2.923291177E-4,1.126816869E-2,1.139310306E-2
3.927955958E0,-1.564271515E-3,-1.088347286E-3,1.195786893E-2,1.210876024E-2
3.937912958E0,-1.522193430E-3,5.202013999E-4,8.679252118E-3,8.827066311E-3
3.947869958E0,3.094039159E-3,3.107087687E-4,7.541142404E-3,8.157110212E-3
3.957826958E0,-2.046926878E-3,-2.245232463E-5,1.036622375E-2,1.056640945E-2
3.967783958E0,-5.992187653E-4,1.753006130E-3,1.091332734E-2,1.106945379E-2
3.977740958E0,-4.155281931E-5,-6.235986948E-4,1.269285008E-2,1.270822746E-2
3.987697958E0,3.874996910E-4,-2.228382044E-3,1.335901767E-2,1.354914003E-2
3.997654958E0,1.849042485E-3,-5.439324304E-4,1.044924930E-2,1.062551794E-2
4.007611958E0,1.398104592E-3,-7.129022852E-4,8.583134040E-3,8.725429277E-3
4.017567958E0,2.740870463E-3,-2.830647863E-3,1.025080495E-2,1.098198253E-2
4.027524958E0,-8.021402173E-4,-2.029268071E-4,1.083686016E-2,1.086840128E-2
4.037481958E0,1.490841387E-3,-3.230940551E-3,1.177908666E-2,1.230481481E-2
4.047438958E0,-8.859764785E-4,6.536049768E-4,1.147988811E-2,1.153256194E-2
4.057395958E0,-6.369708572E-4,-2.116560936E-4,1.063966006E-2,1.066081124E-2
4.067352958E0,2.218466951E-3,-1.764838584E-3,9.603355080E-3,1.001302550E-2
4.077309958E0,-1.631132560E-3,-1.981619745E-3,1.062973589E-2,1.093520440E-2
4.087266958E0,1.979091438E-3,1.862132922E-4,8.878108114E-3,9.097927346E-3
4.097223958E0,5.873234477E-4,-7.634703070E-4,1.277804002E-2,1.281429446E-2
4.107180958E0,-1.762347063E-3,2.793105319E-3,9.487669915E-3,1.004605320E-2
4.117137958E0,-1.208143309E-3,1.464454457E-3,1.242141053E-2,1.256565465E-2
4.127094958E0,-1.133525977E-3,4.844190553E-4,8.308559656E-3,8.399506326E-3
4.137051958E0,6.334814243E-4,-1.648599282E-4,9.354382753E-3,9.377257286E-3
4.147008958E0,-1.076019602E-3,1.081748866E-3,1.097848639E-2,1.108400479E-2
4.156964958E0,-1.644870732E-3,1.459118910E-3,1.064265892E-2,1.086741996E-2
4.166921375E0,-1.146357507E-3,-1.911977306E-4,9.640086442E-3,9.709889738E-3
4.176878375E0,-8.795086760E-4,9.512985125E-4,1.091813669E-2,1.099473570E-2
4.186835375E0,-1.039193012E-4,-1.697115600E-3,1.123806834E-2,1.136596589E-2
4.196792375E0,-1.156400423E-3,-4.355767742E-4,1.147722080E-2,1.154355173E-2
4.206749375E0,7.864857325E-4,3.109108657E-4,9.958844632E-3,9.994689179E-3
4.216706375E0,1.277039992E-3,7.111839950E-4,9.582806379E-3,9.693646987E-3
4.226663375E0,1.791095128E-4,3.009594977E-3,8.621953428E-3,9.133883241E-3
4.236620375E0,5.173309473E-4,-2.450542524E-4,8.192919195E-3,8.212892781E-3
4.246577375E0,-3.882483579E-4,1.245250925E-3,8.857846260E-3,8.953369590E-3
4.256534375E0,-7.858583704E-4,6.202068180E-4,7.712420076E-3,7.777123717E-3
4.266491375E0,-2.891634125E-3,-2.080593258E-4,1.107325777E-2,1.144647869E-2
4.276448375E0,-3.262108658E-4,-4.069972783E-4,9.554456919E-3,9.568683678E-3
4.286405375E0,-2.572638215E-3,-4.933811724E-4,1.178148575E-2,1.206918800E-2
4.296362375E0,9.808177128E-4,-1.555982046E-3,7.031472400E-3,7.268059412E-3
4.306318375E0,3.174704034E-3,1.234980300E-4,6.723690778E-3,7.436532468E-3
4.316275375E0,-1.130295917E-3,1.470791176E-3,9.278994054E-3,9.462585598E-3
4.326232375E0,1.750503317E-3,-1.510488801E-3,9.917151183E-3,1.018310983E-2
4.336189375E0,-1.207469730E-3,-2.656713128E-3,1.043114066E-2,1.083165746E-2
4.346146375E0,-3.073959844E-3,2.898261882E-3,1.147519611E-2,1.222821642E-2
4.356103375E0,-1.032913337E-3,-1.931115054E-3,1.012177952E-2,1.035599034E-2
4.366060375E0,-4.453794099E-5,-2.246061340E-4,1.054640301E-2,1.054888847E-2
4.376017375E0,-4.362890031E-4,-1.138069667E-3,7.461929694E-3,7.560816452E-3
4.385974375E0,1.125569455E-3,9.772889316E-4,6.362905726E-3,6.535179380E-3
4.395931375E0,-4.004219081E-4,6.755525246E-4,9.870557114E-3,9.901747657E-3
4.405888375E0,1.008841558E-3,-1.276214607E-3,1.018409245E-2,1.031320629E-2
4.415845375E0,-8.439195808E-4,-1.029605977E-3,1.149197109E-2,1.156882398E-2
4.425802375E0,-2.992260270E-3,-1.480630599E-3,1.183971576E-2,1.230141284E-2
4.435759375E0,-2.593244426E-4,3.854464740E-4,7.387446240E-3,7.402038915E-3
4.445716375E0,1.158982748E-3,9.943610057E-4,8.261136711E-3,8.401093653E-3
4.455672375E0,1.377628301E-3,-1.139363274E-3,1.041137055E-2,1.056374200E-2
4.465629375E0,-4.755232949E-4,-2.119177952E-4,9.610919282E-3,9.625009143E-3
4.475586375E0,1.931974315E-3,1.494735479E-4,9.350994602E-3,9.549657959E-3
4.485543375E0,-1.909248531E-4,2.640485764E-4,8.094303310E-3,8.100859215E-3
4.495500375E0,-9.733615443E-4,-8.935295045E-5,8.880998939E-3,8.934626954E-3
4.505457375E0,8.933838690E-4,-2.274753526E-3,8.460149169E-3,8.806063951E-3
4.515414375E0,-3.339606337E-5,-1.117610373E-3,1.019945741E-2,1.026056040E-2
4.525371375E0,-3.109968500E-3,-5.038036034E-4,9.692465886E-3,1.019164447E-2
4.535328375E0,-2.212749096E-3,-2.081925049E-4,8.324401453E-3,8.615988755E-3
4.545285375E0,-2.011433244E-4,-2.888329327E-4,8.890615776E-3,8.897580119E-3
4.555242375E0,-3.803055733E-6,-1.665687189E-3,9.762002155E-3,9.903091151E-3
4.565199375E0,-6.979110185E-4,-1.409848221E-3,1.051256061E-2,1.062961346E-2
4.575156375E0,-1.459841384E-3,3.145486116E-4,6.540190428E-3,6.708514630E-3
4.585113375E0,-2.441401361E-3,1.280158758E-4,7.136505097E-3,7.543641937E-3
4.595069375E0,2.602093155E-3,-1.928955317E-4,8.128799498E-3,8.537299266E-3
4.605026375E0,-5.808589049E-4,-2.079552040E-3,6.717978045E-3,7.056427054E-3
4.614983375E0,8.660366293E-4,-9.820638224E-4,7.380304858E-3,7.495556590E-3
4.624940375E0,-1.724113012E-3,1.032642089E-3,9.916495532E-3,1.011809266E-2
4.634897375E0,7.733994862E-4,2.310959622E-3,8.871469647E-3,9.200089936E-3
4.644854375E0,2.511503873E-3,-3.745751455E-4,1.019971818E-2,1.051105176E-2
4.654811375E0,-8.241054602E-4,7.503442466E-4,6.439331919E-3,6.535071680E-3
4.664768375E0,-7.727835327E-4,-1.222999766E-3,4.373833537E-3,4.606879923E-3
4.674725375E0,4.709126661E-4,4.226807505E-5,8.255921304E-3,8.269448707E-3
4.684682375E0,3.905034391E-4,-9.639421478E-4,9.733390063E-3,9.788797654E-3
4.694639375E0,2.746602055E-3,-1.017471775E-3,9.132582694E-3,9.590784031E-3
4.704596375E0,-6.143082865E-4,1.370512880E-3,9.836213663E-3,9.950215046E-3
4.714553375E0,-1.937100431E-3,8.101016283E-5,1.016564481E-2,1.034887700E-2
4.724510375E0,-2.661933890E-3,-1.546003856E-3,8.951496333E-3,9.466007952E-3
4.734467375E0,-2.616266720E-4,1.119820401E-3,7.871050388E-3,7.954613784E-3
4.744423375E0,-1.266012667E-3,-1.351783052E-3,8.227171376E-3,8.433057236E-3
4.754380375E0,-6.739920937E-4,-1.443928108E-3,6.034588441E-3,6.241430235E-3
4.764337375E0,1.351813553E-4,-1.566642895E-4,8.420249447E-3,8.422791607E-3
4.774294375E0,5.756682949E-4,-9.838417172E-4,8.523313329E-3,8.599198138E-3
4.784251375E0,-9.396474343E-4,-7.040984929E-5,1.107200794E-2,1.111203198E-2
4.794208375E0,-1.713828184E-3,4.249382764E-4,1.179665513E-2,1.192806992E-2
4.804165375E0,3.096217522E-3,-2.634322271E-3,8.182071149E-3,9.136328861E-3
4.814122375E0,-5.664278287E-4,1.268273219E-3,6.798826158E-3,6.939264700E-3
4.824079375E0,-8.378014900E-4,1.448729075E-3,7.260203362E-3,7.450589247E-3
4.834036375E0,-8.612372912E-4,9.957235307E-5,4.222869873E-3,4.310948189E-3
4.843993375E0,-7.872630376E-4,1.366318204E-3,7.020378485E-3,7.195298646E-3
4.853950375E0,1.426090254E-3,4.270216450E-4,6.188405678E-3,6.364938784E-3
4.863907375E0,1.743205357E-4,-4.187291488E-4,6.802076474E-3,6.817181683E-3
4.873864375E0,-5.007907748E-4,-2.643267624E-3,9.918240830E-3,1.027663156E-2
4.883821375E0,1.506694360E-3,-2.569308504E-3,8.163690567E-3,8.690070066E-3
4.893777375E0,-1.729615033E-4,-1.246250235E-3,7.626529783E-3,7.729619128E-3
4.903734375E0,-4.436110612E-4,-3.219032660E-4,7.180208340E-3,7.201097437E-3
4.913691375E0,-1.813274808E-3,1.457621343E-3,6.785793230E-3,7.173535758E-3
4.923648375E0,1.301266020E-3,1.030975953E-3,6.993502378E-3,7.187856439E-3
4.933605375E0,-4.505612887E-4,-5.905609578E-5,6.978854537E-3,6.993633086E-3
4.943562375E0,-1.800104743E-3,4.235552624E-4,7.826773450E-3,8.042273235E-3
4.953519375E0,-4.823724739E-4,-2.677429467E-3,5.354827270E-3,6.006287276E-3
4.963476375E0,3.982684575E-3,-1.414422877E-3,8.165579289E-3,9.194512147E-3
4.973433375E0,6.401507417E-4,-1.168879680E-3,8.671846241E-3,8.773653167E-3
4.983390375E0,-4.866519012E-4,-1.365057193E-3,9.824229404E-3,9.930543520E-3
4.993347375E0,1.122429967E-3,-1.159727573E-3,1.007083617E-2,1.019934107E-2
5.003304375E0,-4.831417464E-4,-5.645565689E-4,1.042093895E-2,1.044739770E-2
5.013261375E0,-8.924696594E-4,-5.853287876E-4,7.600383833E-3,7.674955784E-3
5.023218375E0,-2.884964226E-3,-8.528102189E-4,9.125344455E-3,9.608444998E-3
5.033174375E0,-6.577624008E-4,-1.280248165E-3,5.686402321E-3,5.865735938E-3
5.043131375E0,-5.483133718E-4,9.623002261E-4,5.057603121E-3,5.177452907E-3
5.053088375E0,-1.719571650E-3,1.031543128E-3,5.711674690E-3,6.053448245E-3
5.063045375E0,6.975373253E-4,-1.879017800E-4,6.277013570E-3,6.318446388E-3
5.073002375E0,1.721789129E-3,-2.390069887E-3,7.544677705E-3,8.099330438E-3
5.082959375E0,-1.554749906E-4,1.521147788E-4,6.758484989E-3,6.761984230E-3
5.092916375E0,-8.114115335E-4,3.446610644E-4,7.802974433E-3,7.852616756E-3
5.102873375E0,-6.778875832E-4,-1.602061093E-5,8.696207777E-3,8.722603850E-3
5.112830375E0,-1.037102193E-4,-7.997890934E-4,9.146282449E-3,9.181770039E-3
5.122787375E0,1.102980226E-3,9.673535824E-4,6.090715528E-3,6.264914522E-3
5.132744375E0,5.232100375E-4,-5.288105458E-4,7.663045079E-3,7.699068074E-3
5.142701375E0,2.989772009E-3,2.118241973E-3,6.914634258E-3,7.825461816E-3
5.152658375E0,-1.139192842E-3,-9.644217789E-5,6.937269121E-3,7.030843782E-3
5.162615375E0,-3.056626767E-3,-1.521036029E-4,8.578296751E-3,9.107869007E-3
5.172572458E0,-1.940229442E-3,-5.483822897E-4,7.232069969E-3,7.507865839E-3
5.182528458E0,-1.045641489E-3,7.315613329E-4,7.176812738E-3,7.289388808E-3
5.192485458E0,1.048934646E-3,5.243681371E-4,5.932319909E-3,6.047118764E-3
5.202442458E0,-3.349296283E-3,-6.119078025E-4,7.956607267E-3,8.654467976E-3
5.212399458E0,-2.128914930E-4,-1.519246958E-3,5.772547796E-3,5.972917392E-3
5.222356458E0,-1.436872873E-3,5.148667842E-4,7.639596239E-3,7.790579064E-3
5.232313458E0,2.663063817E-3,8.544204757E-4,7.679542527E-3,8.172962539E-3
5.242270458E0,3.601646284E-3,-1.024785452E-3,6.612176076E-3,7.598875813E-3
5.252227458E0,-3.035750240E-3,-8.772462606E-4,8.229782805E-3,8.815592183E-3
5.262184458E0,7.390946848E-4,-6.589135155E-4,5.129341036E-3,5.224037465E-3
5.272141458E0,-1.476388890E-3,-1.347074285E-3,6.808198988E-3,7.095484955E-3
5.282098458E0,1.061544986E-3,-3.480245359E-3,8.197501302E-3,8.968724163E-3
5.292055458E0,-2.210414736E-3,-4.756674170E-4,6.317578256E-3,6.709991641E-3
5.302012458E0,-3.418801352E-4,-1.418102533E-3,8.420415223E-3,8.545834619E-3
5.311969458E0,1.388109289E-3,1.067958772E-3,6.831571460E-3,7.052499695E-3
5.321925458E0,-2.936412115E-3,-9.769862518E-4,5.378648639E-3,6.205391158E-3
5.331882458E0,1.192020020E-3,1.385237090E-3,7.586408406E-3,7.803421431E-3
5.341839458E0,-1.348980702E-3,-9.536268190E-4,6.114415824E-3,6.333658810E-3
5.351796458E0,-1.017949777E-3,-2.636744641E-3,4.625711590E-3,5.420871864E-3
5.361753458E0,-1.283472404E-3,-6.749629974E-4,5.888249725E-3,6.064186779E-3
5.371710458E0,-8.704159409E-4,2.215365879E-3,7.872037590E-3,8.224016397E-3
5.381667458E0,-1.197353005E-3,7.758690044E-4,1.037155092E-2,1.046922611E-2
5.391624458E0,-2.956066746E-4,-1.304859295E-3,5.570404232E-3,5.728825743E-3
5.401581458E0,-1.704890048E-3,-6.136205047E-5,7.290758193E-3,7.487694598E-3
5.411538458E0,-3.376822453E-3,2.809525467E-3,8.077453822E-3,9.194651895E-3
5.421495458E0,8.079223335E-8,6.926720962E-4,7.975921035E-3,8.005942230E-3
5.431452458E0,-2.418868244E-3,2.902681008E-4,4.352957010E-3,4.988327764E-3
5.441409458E0,2.008649986E-3,1.114427112E-3,6.577633321E-3,6.967200490E-3
5.451366458E0,-8.683628403E-4,2.891132608E-4,5.746193230E-3,5.818623303E-3
5.461323458E0,-8.529487532E-4,-1.423488371E-3,6.719764322E-3,6.921638048E-3
5.471279458E0,2.052826341E-3,-3.382507712E-4,7.219374180E-3,7.513179961E-3
5.481236458E0,-1.402653288E-3,1.358571462E-3,6.018191576E-3,6.327067449E-3
5.491193458E0,-5.794700701E-4,6.011687219E-4,7.039781660E-3,7.089126548E-3
5.501150458E0,-1.370217185E-3,-7.413700223E-4,7.224142551E-3,7.390220582E-3
5.511107458E0,-1.847988460E-3,7.355771959E-5,8.497398347E-3,8.696335478E-3
5.521064458E0,-5.838684738E-4,-9.794961661E-4,4.470311105E-3,4.613458194E-3
5.531021458E0,1.957852393E-3,4.262570292E-5,4.390418530E-3,4.807367035E-3
5.540978458E0,-9.768172167E-4,-3.026018851E-3,3.153141588E-3,4.478087073E-3
5.550935458E0,-9.246191476E-4,-1.907225698E-3,1.546721905E-3,2.623886256E-3
5.560892458E0,3.124799114E-4,1.439990476E-3,4.787541926E-3,5.009168989E-3
5.570849458E0,-1.125605777E-4,2.401391976E-3,5.089808255E-3,5.628987598E-3
5.580806458E0,-2.076542005E-4,1.243542880E-3,8.745238185E-3,8.835649952E-3
5.590763458E0,1.302091870E-3,-8.718054742E-4,8.449893445E-3,8.593962256E-3
5.600720458E0,-3.202089574E-4,8.956510574E-4,6.131190807E-3,6.204532642E-3
5.610677458E0,1.178085571E-3,-5.421899259E-4,5.304280668E-3,5.460517278E-3
5.620633458E0,-1.141640358E-3,6.959931925E-4,4.680398852E-3,4.867636248E-3
5.630590458E0,8.911504410E-4,-2.150126733E-3,1.980219036E-3,3.055889643E-3
5.640547458E0,4.377259174E-4,-1.271590590E-4,5.533609539E-3,5.552351568E-3
5.650504458E0,-9.875979740E-4,-4.030624405E-4,7.812213153E-3,7.884699324E-3
5.660461458E0,3.476666752E-4,-6.545111537E-4,7.285218686E-3,7.322818328E-3
5.670418458E0,1.315459376E-3,-9.903358296E-4,6.413035095E-3,6.621043540E-3
5.680375458E0,-1.479940256E-3,-1.643463038E-3,7.658418268E-3,7.971358999E-3
5.690332458E0,6.908023497E-4,-5.821930245E-4,3.767807037E-3,3.874600169E-3
5.700289458E0,-5.699689500E-4,-2.291317098E-3,3.850758076E-3,4.517005247E-3
5.710246458E0,-2.222460229E-3,1.580652781E-3,6.344541907E-3,6.905867411E-3
5.720203458E0,2.245611977E-3,9.329253808E-4,7.308311760E-3,7.702242771E-3
5.730160458E0,-1.169625670E-3,-4.324773327E-4,6.026800722E-3,6.154460804E-3
5.740117458E0,1.203477383E-3,5.003623664E-5,3.508869559E-3,3.709855390E-3
5.750074458E0,7.973454194E-4,-2.421377227E-3,6.127819419E-3,6.636941933E-3
5.760030458E0,-2.638261532E-3,3.098221496E-4,4.144161940E-3,4.922447751E-3
5.769987458E0,-1.669669989E-3,3.138631582E-3,3.925248981E-3,5.295883840E-3
5.779944458E0,-1.960678492E-3,2.692980692E-3,3.620404750E-3,4.919729231E-3
5.789901458E0,8.574787062E-4,-1.241307706E-3,3.462214023E-3,3.776644078E-3
5.799858458E0,1.123604132E-3,-9.432984516E-4,7.340714335E-3,7.485879051E-3
5.809815458E0,2.187270671E-3,1.760076731E-3,7.034450769E-3,7.574002952E-3
5.819772458E0,-5.414430052E-5,5.042394623E-4,4.479233176E-3,4.507850805E-3
5.829729458E0,-1.029393869E-3,-7.952563465E-5,7.677957416E-3,7.747064356E-3
5.839686458E0,1.238551689E-3,-1.043537632E-4,2.539545298E-3,2.827399921E-3
5.849643458E0,-3.633396700E-4,-1.941025257E-4,4.077788442E-3,4.098542434E-3
5.859600458E0,-9.472169913E-4,2.475706860E-4,4.606857896E-3,4.709740008E-3
5.869557458E0,-1.526188105E-3,4.800641909E-4,7.807444781E-3,7.969686680E-3
5.879514458E0,1.992039150E-3,-4.894956946E-4,4.898503423E-3,5.310664910E-3
5.889471458E0,-1.994760241E-4,-2.455497161E-4,4.351753742E-3,4.363238015E-3
5.899428458E0,-1.009345055E-3,7.101530209E-4,5.709607154E-3,5.841464594E-3
5.909384458E0,1.216258621E-3,-2.139429562E-3,5.666196346E-3,6.177558168E-3
5.919341458E0,-7.644409779E-4,5.626706406E-4,4.080668092E-3,4.189608613E-3
5.929298458E0,8.441081736E-4,1.052958891E-3,4.562169313E-3,4.757586560E-3
5.939255458E0,-2.420919482E-4,2.227215096E-3,4.889443517E-3,5.378266775E-3
5.949212458E0,3.874794347E-4,4.551475868E-4,4.794102162E-3,4.831222949E-3
5.959169458E0,-1.344945515E-3,1.538160257E-3,5.867205560E-3,6.212802628E-3
5.969126458E0,-1.447211020E-3,3.740927204E-4,4.065576941E-3,4.331660301E-3
5.979083458E0,4.300212022E-4,3.259256482E-5,6.871074438E-3,6.884594719E-3
5.989040458E0,9.107217193E-4,1.460047439E-3,4.425760359E-3,4.748526858E-3
5.998997458E0,-1.603772864E-3,-1.146644354E-3,7.661260664E-3,7.910865670E-3
6.008954458E0,-2.346418332E-4,9.913416579E-4,4.622593522E-3,4.733517291E-3
6.018911458E0,9.965322679E-4,-1.396160573E-3,4.730559886E-3,5.031951683E-3
6.028868458E0,1.143538742E-3,4.659220576E-4,5.856543779E-3,5.985304442E-3
6.038825458E0,-7.669299375E-4,-2.723652869E-5,5.822788924E-3,5.873141767E-3
6.048782458E0,-2.818096662E-3,-6.159208715E-5,4.037138075E-3,4.923814194E-3
6.058738458E0,3.487610957E-4,2.286862582E-5,3.563471138E-3,3.580570322E-3
6.068695458E0,1.735250698E-4,3.754710779E-4,6.647147238E-3,6.660004196E-3
6.078652458E0,1.077398658E-3,4.565529525E-4,4.644293338E-3,4.789435152E-3
6.088609458E0,9.708921425E-5,3.023574129E-3,6.223812699E-3,6.920062958E-3
6.098566458E0,-1.942241564E-3,1.365255564E-3,7.215965539E-3,7.596471794E-3
6.108523458E0,-2.202414908E-4,-7.711257786E-5,6.882801652E-3,6.886756221E-3
6.118480458E0,1.241888967E-3,5.250517279E-5,2.102233469E-3,2.442218369E-3
6.128437458E0,1.047744532E-3,-1.504644752E-3,1.761615276E-3,2.542638947E-3
6.138394458E0,1.135215629E-3,1.159844920E-3,2.699658275E-3,3.149938025E-3
6.148351458E0,1.968518831E-3,1.213374548E-3,5.033653229E-3,5.539405114E-3
6.158308458E0,-1.225512009E-3,3.194781020E-4,2.953551710E-3,3.213629357E-3
6.168265958E0,-3.618488554E-4,2.201423049E-4,7.217805833E-3,7.230222560E-3
6.178222958E0,-7.486320101E-5,1.075567678E-3,3.960866481E-3,4.104986432E-3
6.188179958E0,-1.975561259E-3,-9.777294472E-4,5.468748510E-3,5.896270637E-3
6.198135958E0,3.772588680E-4,-4.902295768E-5,1.504339278E-3,1.551697189E-3
6.208092958E0,-1.772444695E-3,-9.007016197E-4,2.494238317E-3,3.189678414E-3
6.218049958E0,-1.705385279E-3,-3.713788465E-4,2.554707229E-3,3.093992602E-3
6.228006958E0,-1.599924173E-3,-1.368732192E-3,5.409084260E-3,5.804427423E-3
6.237963958E0,-1.513949595E-3,1.187530346E-3,4.820842296E-3,5.190644675E-3
6.247920958E0,-6.050127558E-4,-1.037807204E-3,5.713533610E-3,5.838454465E-3
6.257877958E0,2.240362810E-4,-9.890580550E-4,5.041897297E-3,5.142874337E-3
6.267834958E0,-3.922505304E-3,-4.431102425E-4,5.258679390E-3,6.575416601E-3
6.277791958E0,5.999010755E-4,-5.743093789E-5,4.539374262E-3,4.579202802E-3
6.287748958E0,-1.918650232E-3,1.209168695E-3,1.366220415E-3,2.647615128E-3
6.297705958E0,-1.312644454E-3,2.045235597E-3,4.100807011E-3,4.766827273E-3
6.307662958E0,-7.584406994E-4,-3.601312637E-4,4.266988486E-3,4.348806453E-3
6.317619958E0,6.938377628E-4,-1.584878191E-3,5.558475852E-3,5.821503545E-3
6.327576958E0,8.370750584E-5,-5.369242281E-4,5.489498377E-3,5.516329124E-3
6.337532958E0,-2.487350488E-3,7.020365447E-4,4.605580121E-3,5.281205924E-3
6.347489958E0,7.780641317E-5,1.033600420E-3,4.061762244E-3,4.191932274E-3
6.357446958E0,3.528489033E-4,1.778238453E-3,3.177121282E-3,3.657968560E-3
6.367403958E0,3.912858665E-5,-1.145114191E-3,4.909772426E-3,5.041694440E-3
6.377360958E0,-1.178712584E-3,5.018301308E-4,6.215885282E-3,6.346528710E-3
6.387317958E0,-2.595514525E-3,-1.640949398E-3,6.223607808E-3,6.939935499E-3
6.397274958E0,-1.595442416E-3,6.486102939E-5,5.511891097E-3,5.738517833E-3
6.407231958E0,-1.232468057E-4,-2.026253380E-3,5.122270435E-3,5.509859068E-3
6.417188958E0,1.725513022E-3,-1.615930349E-3,2.033490688E-3,3.118286462E-3
6.427145958E0,-2.673305571E-4,-4.786159843E-5,3.355484456E-3,3.366456935E-3
6.437102958E0,-1.682879170E-3,1.579320058E-3,2.366807312E-3,3.305769351E-3
6.447059958E0,2.344353124E-3,1.462940127E-3,4.662983119E-3,5.420294914E-3
6.457016958E0,8.035707287E-5,2.504700795E-3,6.994172931E-3,7.429565150E-3
6.466973958E0,-1.404621406E-3,3.896178678E-4,7.962498814E-3,8.094822465E-3
6.476930958E0,-5.641442258E-4,1.255501993E-3,2.230852842E-3,2.621306614E-3
6.486886958E0,-1.810503658E-3,-1.443877816E-3,3.829549998E-3,4.475283212E-3
6.496843958E0,3.851567162E-4,1.036082394E-3,3.242038190E-3,3.425291820E-3
6.506800958E0,-1.325618941E-4,1.449882984E-4,2.982378006E-3,2.988841386E-3
6.516757958E0,9.127171943E-4,-1.039509661E-3,3.330867738E-3,3.606703883E-3
6.526714958E0,7.071211003E-4,-3.811763600E-4,6.473928690E-3,6.523577880E-3
6.536671958E0,-5.021232646E-4,2.694331110E-3,5.823217332E-3,6.435946550E-3
6.546628958E0,-6.454011891E-4,1.043437980E-3,5.985669792E-3,6.110118523E-3
6.556585958E0,8.077467792E-4,-2.157986164E-4,2.594836056E-3,2.726205799E-3
6.566542958E0,-2.998618875E-4,-1.148646697E-4,3.461427987E-3,3.476290372E-3
6.576499958E0,1.005730592E-4,-5.861632526E-4,3.628820181E-3,3.677232411E-3
6.586456958E0,1.661185408E-3,-1.987252384E-3,4.394747317E-3,5.101226615E-3
6.596413958E0,-1.654038206E-4,-5.090776831E-4,7.346484810E-3,7.365959379E-3
6.606370958E0,-5.062883720E-4,1.481901854E-4,6.401598454E-3,6.423297518E-3
6.616327958E0,1.158814412E-4,1.982189715E-4,3.673534840E-3,3.680703396E-3
6.626283958E0,-6.556361914E-4,2.471493557E-3,3.967545927E-3,4.720122869E-3
6.636240958E0,-6.643484812E-4,8.571604267E-4,3.898195922E-3,4.046234589E-3
6.646197958E0,1.119703054E-3,2.009570599E-4,1.730117947E-3,2.070610243E-3
6.656154958E0,3.755621146E-4,1.521862112E-3,5.556076765E-3,5.772962862E-3
6.666111958E0,1.891699736E-3,6.946837530E-4,5.239162594E-3,5.613371366E-3
6.676068958E0,1.556424890E-3,1.444788650E-4,5.731068552E-3,5.940410703E-3
6.686025958E0,7.044796366E-4,-5.828309804E-4,4.771262407E-3,4.858078681E-3
6.695982958E0,-1.263991930E-3,8.003255352E-4,4.599280655E-3,4.836484168E-3
6.705939958E0,1.634592656E-3,7.260236889E-4,1.989647746E-3,2.675388140E-3
6.715896958E0,-1.400411827E-3,-1.074386761E-3,1.132860780E-4,1.768698373E-3
6.725853958E0,-2.850801684E-4,-1.355617307E-3,4.542391747E-3,4.748925328E-3
6.735810958E0,-1.995322760E-3,-1.631028950E-3,5.243122578E-3,5.842251511E-3
6.745767958E0,4.390728427E-4,7.229391485E-4,6.386417896E-3,6.442185926E-3
6.755724958E0,-1.767489128E-3,4.372326657E-4,5.267262459E-3,5.573082094E-3
6.765681958E0,4.967303248E-4,3.259126097E-4,4.637692124E-3,4.675590688E-3
6.775637958E0,6.671957672E-4,-6.975689903E-4,1.059617847E-3,1.433367598E-3
6.785594958E0,1.253623865E-3,1.382892951E-3,2.001844347E-3,2.737032425E-3
6.795551958E0,-8.470478933E-4,2.287016250E-3,4.274465144E-3,4.921278871E-3
6.805508958E0,1.484418754E-4,-4.339357838E-4,5.134664476E-3,5.155105676E-3
6.815465958E0,-3.879573196E-4,1.201694831E-4,7.760304958E-3,7.770925596E-3
6.825422958E0,9.066051571E-4,4.245685413E-4,6.368272007E-3,6.446478085E-3
6.835379958E0,-1.777516445E-3,2.416875213E-4,2.251185477E-3,2.878508923E-3
6.845336958E0,1.852904679E-3,-4.539303482E-4,5.318347365E-3,5.650143998E-3
6.855293958E0,-5.376129411E-5,9.339600801E-4,3.148362041E-3,3.284410944E-3
6.865250958E0,1.154248719E-3,-4.884339869E-4,4.782211035E-3,4.943723319E-3
6.875207958E0,-1.903804950E-3,9.000720456E-4,4.596970975E-3,5.056356902E-3
6.885164958E0,-2.189562190E-3,-1.479994506E-3,5.241189152E-3,5.869806645E-3
6.895121958E0,1.325770281E-3,-7.481649518E-4,4.264149815E-3,4.527735778E-3
6.905078958E0,2.074118471E-3,4.699649289E-4,6.907604635E-3,7.227574715E-3
6.915035958E0,-3.949678503E-4,-2.352443524E-3,4.287153482E-3,4.906085519E-3
6.924991958E0,9.866800392E-4,-7.348395884E-4,5.098354071E-3,5.244686927E-3
6.934948958E0,-4.375737626E-4,-1.885140315E-3,2.745009959E-3,3.358616453E-3
6.944905958E0,-2.767573111E-3,1.255259849E-3,3.253407776E-3,4.451943438E-3
6.954862958E0,-5.915621296E-4,-3.973031417E-4,4.356905818E-3,4.414796014E-3
6.964819958E0,1.209001057E-3,-1.529678702E-3,4.876486957E-3,5.251830684E-3
6.974776958E0,1.539341290E-3,-3.091773950E-3,2.748485655E-3,4.413933751E-3
6.984733958E0,1.508714864E-3,3.354484215E-4,3.494970500E-3,3.821461106E-3
6.994690958E0,2.337159123E-3,-2.311535180E-3,3.174133599E-3,4.569532991E-3
7.004647958E0,3.762735287E-4,-8.076485246E-4,3.621809185E-3,3.729796198E-3
7.014604958E0,-6.587291136E-4,-3.389138728E-4,2.915363759E-3,3.008011387E-3
7.024561958E0,4.459500778E-4,-1.466229558E-3,2.197641879E-3,2.679240642E-3
7.034518958E0,-4.596966319E-4,-3.027554601E-3,3.177285194E-3,4.412771132E-3
7.044475958E0,-2.746819519E-3,1.554413699E-3,2.923749387E-3,4.302270318E-3
7.054432958E0,1.286894549E-4,2.627391368E-4,4.454005510E-3,4.463603691E-3
7.064389958E0,-6.201914512E-4,3.610095009E-4,5.937386304E-3,5.980595407E-3
7.074345958E0,1.341964467E-3,1.026093960E-3,4.766240716E-3,5.056756669E-3
7.084302958E0,1.226383261E-3,2.264996059E-3,3.593917936E-3,4.421591250E-3
7.094259958E0,-1.355903689E-3,8.373362944E-4,4.577491432E-3,4.846961388E-3
7.104216958E0,1.546675572E-3,1.544139348E-3,5.305066705E-3,5.737621841E-3
7.114173958E0,1.447199844E-3,-4.424294457E-4,2.938039601E-3,3.304876382E-3
7.124130958E0,2.128246706E-4,3.655739129E-4,4.378546029E-3,4.398932138E-3
7.134087958E0,-1.002057223E-3,-3.415158950E-3,4.392523319E-3,5.653467116E-3
7.144044958E0,1.214225311E-3,-1.340555958E-3,4.723019898E-3,5.057504359E-3
7.154001958E0,2.408663975E-3,6.446056068E-4,5.900043994E-3,6.405286697E-3
7.163958958E0,1.705433242E-4,-9.090825915E-4,2.934347838E-3,3.076672459E-3
7.173915458E0,1.615634537E-3,8.832765743E-4,2.080053091E-4,1.853029593E-3
7.183872458E0,1.143988688E-3,-3.082221374E-4,2.172619104E-3,2.474668619E-3
7.193829458E0,1.123982365E-3,-3.674533218E-5,2.190276980E-3,2.462112879E-3
7.203786458E0,8.715146687E-4,3.608642146E-4,3.346353769E-3,3.476757735E-3
7.213743458E0,9.817556711E-4,5.422160029E-5,3.411039710E-3,3.549926208E-3
7.223699458E0,-6.406754255E-5,-1.200660132E-3,3.936748952E-3,4.116270364E-3
7.233656458E0,-8.729635738E-4,1.216175966E-3,2.673681825E-3,3.064265635E-3
7.243613458E0,9.465081384E-4,-2.299463376E-3,-4.310309887E-4,2.523726845E-3
7.253570458E0,1.151858130E-3,1.604529098E-4,3.095671535E-3,3.306917679E-3
7.263527458E0,-1.646591583E-3,3.135837615E-4,4.091963172E-3,4.421963503E-3
7.273484458E0,-1.905886456E-4,-6.206789985E-4,6.192695349E-3,6.226639715E-3
7.283441458E0,-2.526403405E-4,9.918650612E-4,3.863494843E-3,3.996775681E-3
7.293398458E0,2.176431008E-4,1.506038010E-3,4.349362105E-3,4.607870411E-3
7.303355458E0,1.652820501E-3,-2.410938963E-3,3.261268139E-4,2.941224404E-3
7.313312458E0,1.275768504E-3,1.441705972E-4,5.827285349E-4,1.409944318E-3
7.323269458E0,7.396740839E-4,5.676131696E-4,2.377167344E-3,2.553473525E-3
7.333226458E0,-8.099409752E-5,-4.266323522E-4,4.852082580E-3,4.871476221E-3
7.343183458E0,-1.275688177E-3,1.101755537E-3,5.424663424E-3,5.680512200E-3
7.353140458E0,-2.923335414E-4,1.091941260E-3,4.822291434E-3,4.953008105E-3
7.363096458E0,2.442732919E-3,-9.236577898E-5,1.109845936E-3,2.684629128E-3
7.373053458E0,3.684797557E-4,2.126675099E-5,3.934986889E-4,5.395097990E-4
7.383010458E0,4.916684702E-5,-3.555705771E-4,1.877944916E-3,1.911942709E-3
7.392967458E0,-2.230282174E-3,1.449012198E-3,2.381950617E-3,3.570361840E-3
7.402924458E0,4.174326314E-4,-1.304429956E-3,5.286395550E-3,5.460930820E-3
7.412881458E0,-1.465834444E-3,-1.023122109E-3,6.305046380E-3,6.553553183E-3
7.422838458E0,2.039418090E-3,-1.619137824E-3,2.785414457E-3,3.813052208E-3
7.432795458E0,1.465325709E-3,-4.640780389E-5,2.806559205E-3,3.166402958E-3
7.442752458E0,1.652545878E-3,5.927504972E-4,3.286194056E-3,3.725766016E-3
7.452709458E0,-1.040147617E-5,-1.202997752E-3,2.118095756E-3,2.435906692E-3
7.462666458E0,-7.819191087E-4,1.554172486E-3,4.146892577E-3,4.497062114E-3
7.472623458E0,-9.180863854E-4,-1.557438634E-3,6.601803005E-3,6.844874040E-3
7.482580458E0,-2.575904131E-3,-1.463162713E-3,4.978075624E-3,5.792871838E-3
7.492537458E0,-3.716954263E-3,-1.366155222E-3,5.339592695E-3,6.647810108E-3
7.502494458E0,-2.910639159E-4,9.352341294E-5,1.698251814E-3,1.725550363E-3
7.512451458E0,2.248200122E-3,9.156875312E-4,5.960315466E-4,2.499628182E-3
7.522407458E0,-7.997876965E-4,1.491730101E-3,3.814462572E-3,4.173133567E-3
7.532364458E0,1.251125475E-3,-1.131446101E-3,4.057288170E-4,1.734964296E-3
7.542321458E0,-2.596609527E-3,1.019322313E-3,7.700473070E-4,2.893850699E-3
7.552278458E0,-7.134596817E-4,8.880468085E-4,5.452055484E-3,5.569790019E-3
7.562235458E0,5.597976269E-4,8.536921814E-4,5.603324622E-3,5.695560599E-3
7.572192458E0,-2.221434843E-3,1.285496168E-3,4.169840366E-3,4.896411118E-3
7.582149458E0,-8.983763400E-4,-1.764888875E-3,5.618065596E-3,5.956892968E-3
7.592106458E0,-2.386366948E-3,5.923714489E-4,2.012152225E-3,3.177169766E-3
7.602063458E0,5.289952969E-4,-1.147737727E-3,-2.600174397E-3,2.891028331E-3
7.612020458E0,5.963320145E-4,1.316921785E-3,1.987442374E-4,1.459244370E-3
7.621977458E0,2.887715818E-3,-1.372604631E-3,3.483485430E-3,4.728384171E-3
7.631934458E0,1.472772681E-3,-4.634028301E-4,4.752997309E-3,4.997477861E-3
7.641891458E0,-1.847123960E-3,3.973310813E-4,3.470152617E-3,3.951164144E-3
7.651848458E0,-8.878712542E-4,2.336973324E-3,4.146881402E-3,4.842146739E-3
7.661804458E0,-2.702842467E-4,-1.203433610E-3,9.950324893E-4,1.584738364E-3
7.671761458E0,-4.291557707E-4,-1.277148724E-3,2.233453095E-3,2.608370423E-3
7.681718458E0,-2.119197976E-3,-6.001731381E-4,1.226291060E-4,2.205956879E-3
7.691675458E0,2.063298598E-5,4.989290610E-4,1.314312220E-3,1.405977432E-3
7.701632458E0,2.123805461E-4,-3.431625664E-4,4.342060536E-3,4.360774672E-3
7.711589458E0,5.819589132E-4,-5.206102505E-4,3.538794816E-3,3.623917763E-3
7.721546458E0,-1.964904368E-5,1.545008272E-4,4.827767611E-3,4.830279153E-3
7.731503458E0,-1.535755582E-4,1.715474762E-3,3.850977868E-3,4.218586215E-3
7.741460458E0,2.472301712E-4,-1.466204412E-3,2.836048603E-3,3.202194531E-3
7.751417458E0,1.933387131E-3,-5.332492292E-4,4.130575806E-3,4.591731376E-3
7.761374458E0,-8.818404749E-4,-1.197974198E-3,1.905769110E-3,2.417589854E-3
7.771331458E0,-8.677910082E-4,-1.649593003E-3,5.150135607E-3,5.477053503E-3
7.781288458E0,-7.298393175E-4,-2.599275671E-3,2.964746207E-3,4.009815397E-3
7.791245458E0,-9.497629944E-4,-7.791165262E-5,6.687276065E-3,6.754833910E-3
7.801202458E0,-2.784414450E-3,1.452607103E-3,5.380995572E-3,6.230420898E-3
7.811158458E0,-1.429497264E-3,4.876032472E-5,2.877000719E-3,3.212938396E-3
7.821115458E0,-1.316312701E-3,5.006985739E-4,4.856258631E-3,5.056345130E-3
7.831072458E0,-1.346061472E-4,-4.414524883E-4,8.877664804E-4,1.000564060E-3
7.841029458E0,1.645450830E-3,1.288298517E-5,2.487525344E-3,2.982525229E-3
7.850986458E0,1.321109012E-4,-2.399269491E-3,2.160239965E-3,3.231189268E-3
7.860943458E0,-1.572578447E-3,1.075640321E-4,4.976280034E-4,1.652938784E-3
7.870900458E0,-1.825187355E-4,-2.041290514E-3,3.027714789E-3,3.656123206E-3
7.880857458E0,3.066005185E-3,5.552917719E-4,3.374192864E-3,4.592811147E-3
7.890814458E0,-1.089657424E-3,-1.441729255E-3,1.663006842E-3,2.455916998E-3
7.900771458E0,3.439220600E-4,2.769753337E-6,2.642519772E-3,2.664807836E-3
7.910728458E0,-9.891733062E-4,7.553631440E-4,1.683693379E-3,2.093767108E-3
7.920685458E0,-4.584053531E-4,-4.933932796E-4,2.610206604E-3,2.695691175E-3
7.930642458E0,7.364924531E-4,2.079168335E-4,2.821650356E-3,2.923587056E-3
7.940599458E0,1.038494986E-3,9.248396382E-4,5.713310093E-3,5.880111598E-3
7.950556458E0,2.572694095E-3,4.197200760E-4,3.865137696E-3,4.661996274E-3
7.960512458E0,-1.096609049E-3,-2.948064357E-4,4.578333348E-3,4.717054005E-3
7.970469458E0,-7.921464276E-4,-5.504591390E-4,5.301117897E-3,5.388167795E-3
7.980426458E0,-9.189129341E-4,-1.173905097E-3,2.932503819E-3,3.289685822E-3
7.990383458E0,9.978294838E-4,8.848654106E-4,2.457521856E-3,2.796080139E-3
8.000340458E0,-1.719660126E-3,2.198869362E-3,1.683343202E-3,3.259739523E-3
8.010297458E0,-3.703206312E-4,1.389901154E-3,2.449765801E-3,2.840829996E-3
8.020254458E0,-1.252892427E-3,2.299636602E-3,1.170650125E-3,2.868534408E-3
8.030211458E0,2.045202535E-3,-4.063732922E-4,3.174148500E-3,3.797790326E-3
8.040168458E0,-7.468555123E-4,-9.025633335E-5,4.006650299E-3,4.076663584E-3
8.050125458E0,-1.983684720E-3,1.321773976E-3,4.488114268E-3,5.081856078E-3
8.060082458E0,-2.140278695E-3,-9.485706687E-4,2.958130091E-3,3.772414723E-3
8.070039458E0,-1.131747849E-3,-1.937120222E-3,3.341056406E-3,4.024418698E-3
8.079996458E0,-1.103784656E-3,5.123205483E-6,7.096305490E-5,1.106075300E-3
8.089953458E0,1.200912753E-3,4.944661632E-4,9.061917663E-4,1.583626138E-3
8.099910458E0,5.953100044E-4,9.160442278E-4,1.215383410E-3,1.634223933E-3
8.109867458E0,2.812256571E-4,-6.885798648E-4,1.631930470E-3,1.793440035E-3
8.119823458E0,-2.996097319E-4,1.450471580E-3,5.264215171E-3,5.468600842E-3
8.129780458E0,1.060482580E-3,-9.270571172E-5,5.622848868E-3,5.722730734E-3
8.139737458E0,-3.267686814E-3,-9.976485744E-4,4.549860954E-3,5.689843099E-3
8.149694458E0,1.412241254E-3,-2.190588973E-3,2.964869142E-3,3.947601099E-3
8.159651458E0,-1.914313063E-3,1.788251102E-4,3.611750901E-3,4.091615511E-3
8.169609000E0,2.321823267E-4,1.340780407E-3,1.721434295E-3,2.194296417E-3
8.179566000E0,-1.431760611E-3,-1.221979037E-3,2.230629325E-3,2.918711770E-3
8.189523000E0,8.653630503E-4,-5.028732121E-4,2.622835338E-3,2.807311861E-3
8.199480000E0,2.999739954E-4,8.595176041E-5,3.418054432E-3,3.432268667E-3
8.209437000E0,1.631026855E-3,-1.750948839E-3,4.214588553E-3,4.846527324E-3
8.219394000E0,1.147130504E-3,-1.438293606E-3,4.399679601E-3,4.768833975E-3
8.229351000E0,9.603765793E-4,6.048837677E-4,4.971887916E-3,5.099791858E-3
8.239308000E0,1.238777768E-4,-1.184760593E-3,2.085287124E-3,2.401546534E-3
8.249265000E0,1.199643593E-3,-4.898253828E-4,2.227731049E-3,2.577180491E-3
8.259222000E0,-1.592680812E-3,-1.394501887E-3,7.485609502E-3,7.779178446E-3
8.269178000E0,-1.777992817E-3,6.010755897E-5,3.997460008E-3,4.375449450E-3
8.279135000E0,1.377853099E-3,-1.171870157E-3,5.286697298E-3,5.587568984E-3
8.289092000E0,-6.407136098E-4,1.394369639E-3,3.824956715E-3,4.121295245E-3
8.299049000E0,-1.178672072E-3,-8.022058755E-4,4.027090967E-3,4.272032745E-3
8.309006000E0,-1.501472434E-3,9.994208813E-5,4.591941833E-3,4.832218713E-3
8.318963000E0,-5.379407667E-4,2.032723278E-4,1.007061452E-3,1.159686456E-3
8.328920000E0,-2.047375310E-4,2.923549153E-3,2.526737750E-3,3.869555628E-3
8.338877000E0,-2.915565856E-4,-4.054885358E-5,1.897964627E-3,1.920655923E-3
8.348834000E0,-1.745912712E-3,-8.939951658E-5,2.555724233E-3,3.096438249E-3
8.358791000E0,-1.140309731E-3,-1.272375695E-3,4.426062107E-3,4.744393741E-3
8.368748000E0,-3.059974406E-4,-1.224811189E-3,2.438135445E-3,2.745596717E-3
8.378705000E0,-1.522529405E-3,-1.714566723E-3,1.810960472E-3,2.921885122E-3
8.388662000E0,-1.902657095E-4,-4.056934267E-4,3.561295569E-3,3.589375200E-3
8.398619000E0,-1.309325919E-3,-1.722626388E-3,2.078447491E-3,3.000286654E-3
8.408576000E0,-1.375370193E-3,-1.563588157E-4,1.629073173E-3,2.137748968E-3
8.418533000E0,-6.786871236E-4,-1.481026411E-4,-1.117445529E-3,1.315764080E-3
8.428489000E0,-1.752155367E-3,2.111382782E-4,4.849039018E-3,5.160213872E-3
8.438446000E0,8.931626799E-4,6.726644933E-4,4.223994911E-3,4.369479385E-3
8.448403000E0,-1.252276590E-3,-1.701261848E-3,2.817116678E-3,3.521169537E-3
8.458360000E0,-1.389695564E-3,-8.791871369E-5,3.541231155E-3,3.805167744E-3
8.468317000E0,-2.669378882E-3,1.414624043E-3,-2.358593047E-4,3.030243292E-3
8.478274000E0,-2.181753749E-3,-3.771502525E-4,1.895468682E-3,2.914634327E-3
8.488231000E0,-7.704370655E-4,2.197297290E-4,2.922117710E-5,8.016909024E-4
8.498188000E0,-2.873395570E-4,4.556858912E-4,4.145137966E-3,4.179997896E-3
8.508145000E0,4.420340993E-4,-6.712162867E-4,9.831637144E-4,1.269856818E-3
8.518102000E0,-1.016312977E-3,-1.234740950E-3,5.249813199E-3,5.487988330E-3
8.528059000E0,-1.322888071E-3,-6.034448743E-4,5.185347050E-3,5.385350740E-3
8.538016000E0,-3.057138762E-3,8.969800547E-4,2.621788532E-3,4.126069041E-3
8.547973000E0,-7.309806533E-4,-7.311152294E-4,5.457922816E-4,1.169081438E-3
8.557930000E0,-3.173919395E-4,2.138440497E-3,9.524561465E-4,2.362379757E-3
8.567887000E0,-5.841634702E-4,7.021911442E-4,3.644179553E-3,3.756908833E-3
8.577843000E0,2.358237980E-4,-5.886433646E-4,5.392543972E-3,5.429700209E-3
8.587800000E0,-1.325160265E-4,1.711250283E-3,5.763173103E-3,6.013327053E-3
8.597757000E0,1.021964243E-3,-9.769443423E-4,3.322117031E-3,3.610442179E-3
8.607714000E0,-1.189221628E-3,3.738533705E-4,3.041416407E-3,3.286978579E-3
8.617671000E0,-9.327591397E-4,4.918314517E-4,5.588196218E-4,1.193405698E-3
8.627628000E0,-7.520215586E-4,2.234426327E-3,2.533543855E-3,3.460786312E-3
8.637585000E0,-1.899045194E-3,1.296460629E-3,2.572160214E-3,3.450100140E-3
8.647542000E0,1.171060372E-3,2.906279638E-3,3.961820155E-3,5.051124892E-3
8.657499000E0,1.194229815E-3,-8.945837617E-4,2.757538110E-3,3.135359850E-3
8.667456000E0,7.818307495E-4,-2.226096578E-3,2.588972449E-3,3.502790836E-3
8.677413000E0,-6.514824927E-4,-1.430077478E-3,1.280028373E-3,2.026826008E-3
8.687370000E0,8.705747314E-5,-4.803240299E-4,4.261173308E-4,6.479707995E-4
8.697327000E0,-1.786476234E-3,-3.234641626E-4,1.678600907E-3,2.472615499E-3
8.707284000E0,-1.754404511E-4,2.537807450E-4,3.915786743E-3,3.927921822E-3
8.717241000E0,-4.263103474E-4,3.762859851E-4,4.583440721E-3,4.618577757E-3
8.727198000E0,7.998967776E-4,-1.704207622E-3,1.381758600E-3,2.335254869E-3
8.737154000E0,-2.476856578E-3,-1.015780494E-3,2.426516265E-3,3.613116342E-3
8.747111000E0,-2.172759967E-3,-3.340374678E-5,-2.799704671E-4,2.190978126E-3
8.757068000E0,1.207543537E-4,8.909795433E-4,1.075044274E-3,1.401480058E-3
8.767025000E0,5.927858874E-4,-8.064713329E-4,1.992769539E-3,2.230004833E-3
8.776982000E0,-2.180097625E-3,-2.534596249E-3,6.034649909E-3,6.898840723E-3
8.786939000E0,7.993086474E-4,8.425451815E-4,3.237541765E-3,3.439542612E-3
8.796896000E0,2.584159141E-3,-1.205159351E-3,4.508934915E-3,5.334864722E-3
8.806853000E0,-1.624820987E-3,-1.361895353E-3,2.042248845E-3,2.943736153E-3
8.816810000E0,-2.455699723E-4,-1.970161684E-3,2.658769488E-3,3.318267148E-3
8.826767000E0,2.356114099E-3,-1.589458436E-3,-2.778619528E-4,2.855671380E-3
8.836724000E0,-5.858798977E-4,-6.866464391E-4,2.954948694E-3,3.089734676E-3
8.846681000E0,2.304380527E-3,3.844182938E-4,2.064965665E-3,3.118017036E-3
8.856638000E0,8.260597242E-4,1.403609291E-3,5.165152252E-3,5.415837100E-3
8.866595000E0,-4.297578707E-4,-2.034819685E-3,2.948045731E-3,3.607791098E-3
8.876552000E0,-7.719739806E-4,2.120891586E-4,3.026612103E-3,3.130703828E-3
8.886509000E0,-5.790079013E-5,-5.125263706E-4,2.439226955E-3,2.493163436E-3
8.896465000E0,9.314636700E-4,-2.007891424E-3,-7.871910930E-4,2.349238676E-3
8.906422000E0,-3.402247094E-4,3.755353391E-4,2.207934856E-3,2.265337938E-3
8.916379000E0,-6.614020094E-4,-2.167250961E-3,2.102740109E-3,3.091269207E-3
8.926336000E0,-3.114913357E-3,-5.108425394E-4,3.608152270E-3,4.793997093E-3
8.936293000E0,-4.162546247E-5,-1.561726443E-3,4.147175699E-3,4.431680093E-3
8.946250000E0,3.165309317E-5,-2.560310066E-3,4.423733801E-3,5.111321775E-3
8.956207000E0,1.186932437E-3,-8.209990337E-4,3.421850502E-3,3.713745937E-3
8.966164000E0,-7.613049820E-4,-1.622905955E-3,1.901533455E-3,2.613281174E-3
8.976121000E0,1.603049459E-3,1.533739269E-3,1.704726368E-3,2.797894870E-3
8.986078000E0,-3.087813966E-4,3.206096590E-4,8.135028183E-4,9.273205162E-4
8.996035000E0,-3.308856394E-4,1.618852839E-4,-7.247403264E-4,8.129825904E-4
9.005992000E0,-1.923385076E-3,-1.171714626E-3,2.705499530E-3,3.520234797E-3
9.015949000E0,1.097438391E-3,1.256821677E-3,3.350786865E-3,3.743226464E-3
9.025906000E0,3.734286875E-4,-5.135089159E-4,2.973161638E-3,3.040202381E-3
9.035863000E0,-3.456766717E-5,-1.644287258E-3,3.000326455E-3,3.421525149E-3
9.045820000E0,-5.973894149E-4,-3.939559683E-4,2.774097025E-3,2.864906582E-3
9.055776000E0,1.162161003E-3,5.079247057E-5,9.490326047E-4,1.501286434E-3
9.065733000E0,-5.237329751E-4,-1.325919293E-3,1.427453011E-3,2.017419218E-3
9.075690000E0,-2.004983136E-3,-8.382946253E-4,2.549175173E-3,3.349774518E-3
9.085647000E0,4.794779234E-4,-1.588680781E-3,3.801509738E-4,1.702445437E-3
9.095604000E0,-3.004203085E-3,2.913125791E-3,3.413759172E-3,5.400489768E-3
9.105561000E0,5.705994554E-4,-7.682228461E-4,4.995241761E-3,5.086078090E-3
9.115518000E0,5.631425884E-4,1.697598025E-3,2.392802387E-3,2.987385461E-3
9.125475000E0,9.646848775E-4,1.534642652E-4,9.256750345E-4,1.345749777E-3
9.135432000E0,-9.370783810E-4,-4.169847816E-4,2.492293715E-4,1.055512899E-3
9.145389000E0,1.541512087E-3,-1.647081226E-4,1.049209386E-3,1.871958497E-3
9.155346000E0,-3.111296566E-3,1.369006932E-3,1.947760582E-3,3.917667366E-3
9.165303000E0,-6.573502906E-4,-6.772736087E-4,3.261484206E-3,3.395303841E-3
9.175259583E0,-9.524284396E-4,-3.625079989E-5,2.984780818E-3,3.133265164E-3
9.185216583E0,-2.136199735E-3,7.604956627E-4,3.841828555E-3,4.461092871E-3
9.195173583E0,2.253754996E-3,1.005642116E-4,2.395998687E-3,3.290947348E-3
9.205130583E0,-5.686001386E-4,-1.409308054E-3,9.776614606E-4,1.807007814E-3
9.215086583E0,2.454620320E-3,-1.351783052E-3,7.884576917E-5,2.803336404E-3
9.225043583E0,-7.152999751E-5,1.373735256E-3,2.174802125E-3,2.573330406E-3
9.235000583E0,1.595342532E-3,1.196525991E-4,1.672260463E-3,2.314279498E-3
9.244957583E0,3.101343289E-3,-1.149452291E-3,3.912515938E-3,5.123216932E-3
9.254914583E0,1.212363248E-3,-8.951406926E-5,4.663791507E-3,4.819625363E-3
9.264871583E0,7.840219187E-4,-3.244858235E-4,4.811771214E-3,4.886013061E-3
9.274828583E0,-2.985531464E-4,6.773956120E-4,1.554727554E-3,1.721968805E-3
9.284785583E0,7.365057245E-4,7.159644738E-4,2.641193569E-4,1.060568171E-3
9.294742583E0,7.514193421E-4,-3.381147981E-4,5.259104073E-4,9.775143993E-4
9.304699583E0,-2.755804220E-3,-1.674501225E-3,2.032615244E-3,3.811815314E-3
9.314656583E0,1.442136476E-3,4.349881783E-4,1.512501389E-3,2.134627082E-3
9.324613583E0,-1.291397959E-3,-2.091462724E-3,3.508023918E-3,4.283474854E-3
9.334570583E0,-3.039763076E-3,5.531124771E-5,2.718660980E-3,4.078521352E-3
9.344527583E0,-3.412078135E-3,-4.615839571E-4,2.567347139E-3,4.294951487E-3
9.354484583E0,4.902515793E-4,6.244536489E-4,5.225837231E-5,7.956254823E-4
9.364441583E0,2.128695603E-3,1.599323004E-4,1.203447580E-3,2.450552875E-3
9.374398583E0,-1.371216495E-4,-8.717756718E-4,1.501984894E-3,1.742054474E-3
9.384354583E0,3.556187963E-3,-1.114644110E-4,3.720410168E-4,3.577333038E-3
9.394311583E0,1.802762737E-3,-1.628641039E-4,4.796884954E-3,5.127044321E-3
9.404268583E0,-5.987447221E-4,-7.823901251E-4,4.063941538E-3,4.181656415E-3
9.414225583E0,4.390890244E-4,6.610425189E-4,1.381341368E-3,1.593072615E-3
9.424182583E0,1.576696988E-3,-3.429407254E-3,1.441854984E-3,4.040513989E-3
9.434139583E0,-2.486488083E-3,2.910280600E-4,1.375541091E-3,2.856472232E-3
9.444096583E0,-1.939393347E-3,-1.067848876E-3,2.869125456E-3,3.624007265E-3
9.454053583E0,1.377839828E-3,3.910306841E-4,3.109607846E-3,3.423595849E-3
9.464010583E0,1.130736782E-3,1.162540168E-3,3.903225064E-3,4.226728193E-3
9.473967583E0,-1.496737823E-3,7.247170433E-4,3.408942372E-3,3.792931188E-3
9.483924583E0,2.660269383E-4,-1.025903970E-3,1.910287887E-3,2.184593577E-3
9.493881583E0,1.998413121E-3,-4.666019231E-5,1.823201776E-3,2.705530797E-3
9.503838583E0,-7.613718044E-4,-1.355743967E-3,1.872621477E-3,2.434017240E-3
9.513795583E0,1.382739050E-3,-8.175196126E-4,-1.360721886E-3,2.105200620E-3
9.523752583E0,-2.709490480E-3,3.278283402E-4,1.019664109E-3,2.913507332E-3
9.533709583E0,-2.902750857E-4,5.078576505E-4,1.597568393E-3,1.701294739E-3
9.543665583E0,-1.468126895E-3,4.268959165E-4,3.496199846E-3,3.815894399E-3
9.553622583E0,1.431789249E-3,-2.604845911E-3,2.610698342E-3,3.956133025E-3
9.563579583E0,9.350695182E-4,-1.134178601E-3,-8.147358894E-4,1.680628059E-3
9.573536583E0,-6.737459917E-4,-1.449497417E-3,2.177730203E-4,1.613196055E-3
9.583493583E0,1.226907829E-3,2.683242783E-4,4.795528948E-4,1.344348064E-3
9.593450583E0,-3.709888551E-4,7.772548124E-4,1.182891428E-3,1.463212187E-3
9.603407583E0,1.068682177E-3,-5.187913775E-4,2.551373094E-3,2.814379284E-3
9.613364583E0,-1.800740138E-4,-7.025497034E-4,1.809947193E-3,1.949849116E-3
9.623321583E0,-7.758426946E-4,1.379522495E-3,1.076597720E-3,1.914177853E-3
9.633278583E0,-1.292229630E-3,-1.495359465E-3,1.255560666E-3,2.341450391E-3
9.643235583E0,-6.784657016E-4,8.620005101E-4,2.504616976E-3,2.734312854E-3
9.653192583E0,-5.210728850E-4,-1.720999368E-3,-3.755912185E-4,1.836960679E-3
9.663149583E0,5.454496713E-4,-2.767499536E-4,8.118264377E-4,1.016448742E-3
9.673106583E0,5.044370191E-4,2.050320618E-3,8.315369487E-4,2.269300562E-3
9.683063583E0,-1.524748513E-3,1.566464081E-3,1.749940217E-3,2.800171157E-3
9.693020583E0,-2.659255406E-3,5.368860438E-4,1.332886517E-3,3.022659823E-3
9.702976583E0,-2.028251765E-3,1.230286434E-4,1.123920083E-3,2.322097677E-3
9.712933583E0,-1.822123071E-3,1.440681517E-4,2.097837627E-3,2.782410974E-3
9.722890583E0,-1.123787370E-4,-7.672924548E-4,2.837337554E-3,2.941402911E-3
9.732847583E0,-1.245553838E-3,4.084929824E-4,2.982478589E-3,3.257828942E-3
9.742804583E0,-1.444104128E-3,-1.037390903E-3,1.785490662E-3,2.519839979E-3
9.752761583E0,-2.669868991E-4,2.062262967E-3,7.692277431E-4,2.217187829E-3
9.762718583E0,1.574601047E-4,-8.659027517E-4,2.532403916E-3,2.680979458E-3
9.772675583E0,-8.012778126E-4,-8.499240503E-4,2.878613770E-3,3.106579190E-3
9.782632583E0,-2.743385034E-3,1.124522649E-3,1.545399427E-3,3.343496975E-3
9.792589583E0,2.917962847E-3,-1.272854395E-3,1.283075660E-3,3.432338655E-3
9.802546583E0,-1.424111659E-3,-3.565596417E-3,2.428710461E-3,4.543149384E-3
9.812503583E0,-1.774850069E-3,-2.397001721E-3,3.785587847E-3,4.819376035E-3
9.822460583E0,-2.552899765E-3,1.465586014E-3,4.219286144E-3,5.144668613E-3
9.832417583E0,-8.237094153E-4,-1.562694088E-3,3.557492048E-3,3.971933998E-3
9.842374583E0,3.932046238E-3,-3.738617525E-4,-3.224313259E-4,3.962918393E-3
9.852331583E0,-1.609725645E-3,-7.078219205E-4,-3.892742097E-4,1.801044956E-3
9.862287583E0,-9.537455626E-4,1.005046070E-3,2.169031650E-3,2.573800011E-3
9.872244583E0,5.940838018E-4,-7.089637220E-4,1.293383539E-3,1.590096255E-3
9.882201583E0,7.982020034E-4,-2.195303328E-3,8.069425821E-4,2.471363889E-3
9.892158583E0,3.342792625E-4,-4.440080374E-4,8.229203522E-4,9.930174564E-4
9.902115583E0,1.018753857E-3,-2.880360931E-3,1.887079328E-3,3.591017531E-3
9.912072583E0,-2.540827263E-3,1.452602446E-3,2.335287631E-3,3.744252311E-3
9.922029583E0,-6.641473155E-4,-1.474761404E-3,3.440540284E-3,3.801753582E-3
9.931986583E0,1.891294960E-4,2.176699229E-3,-1.803491265E-3,2.833084933E-3
9.941943583E0,-4.958945792E-4,-1.179431565E-3,-1.586452127E-4,1.289239525E-3
9.951900583E0,2.233845415E-3,-1.700611785E-3,4.557482898E-4,2.844266563E-3
9.961857583E0,-1.874245470E-3,1.386620104E-3,8.182115853E-4,2.470826096E-3
9.971814583E0,1.797721139E-3,7.959315553E-4,1.467756927E-3,2.453491131E-3
9.981771583E0,2.581154695E-3,-4.576863721E-4,9.022317827E-4,2.772338104E-3
9.991728583E0,-6.256531924E-5,1.232622191E-3,1.054830849E-3,1.623557823E-3
1.000168558E1,1.311742351E-3,-1.646134071E-3,1.994911581E-3,2.900016826E-3
1.001164258E1,-4.780129530E-5,-9.830482304E-5,1.566410065E-3,1.570219505E-3
1.002159958E1,-1.303753350E-3,8.711703122E-4,-3.203835338E-3,3.566969496E-3
1.003155658E1,2.404165920E-3,7.488485426E-5,-3.318823874E-4,2.428120143E-3
1.004151258E1,-1.557039097E-3,5.250554532E-4,7.869675756E-4,1.821914362E-3
1.005146958E1,-4.085710738E-3,-2.089235932E-5,3.702331334E-3,5.513685340E-3
1.006142658E1,9.008417837E-4,-1.665138640E-3,2.799805254E-3,3.379809472E-3
1.007138358E1,7.948479615E-4,-9.703198448E-4,1.907646656E-3,2.283072414E-3
1.008134058E1,-2.374325646E-3,-1.286481507E-3,2.576503903E-3,3.732402618E-3
1.009129758E1,1.467284164E-3,-1.359954476E-4,-4.826672375E-4,1.550608024E-3
1.010125458E1,-8.997577243E-4,-3.449270502E-3,-5.639232695E-4,3.609022085E-3
1.011121158E1,3.924081102E-4,2.687186003E-3,2.834007144E-3,3.925117735E-3
1.012116858E1,2.248046221E-3,-1.248644665E-3,5.391053855E-4,2.627443611E-3
1.013112558E1,3.646586556E-4,-1.048374921E-3,3.193479031E-3,3.380883647E-3
1.014108258E1,1.150774653E-3,-5.331356078E-4,3.256324679E-3,3.494591005E-3
1.015103958E1,-3.209885443E-3,7.600951940E-4,1.153491437E-3,3.494517385E-3
1.016099658E1,3.357048379E-3,1.052794978E-4,9.968094528E-4,3.503496351E-3
1.017095388E1,-3.730422352E-3,5.979640409E-4,4.230950028E-3,5.672261458E-3
1.018091088E1,-1.470339019E-3,-1.210172661E-3,1.096859574E-3,2.197615896E-3
1.019086788E1,-1.765150810E-3,2.111322246E-3,1.379419118E-3,3.078349576E-3
1.020082488E1,2.098032273E-4,-1.180119812E-3,3.547571599E-3,3.744591355E-3
1.021078088E1,-1.600879943E-3,-7.952935994E-4,1.123622060E-4,1.791070564E-3
1.022073788E1,3.299191594E-3,5.831113085E-4,1.028291881E-4,3.351903611E-3
1.023069488E1,-1.175984275E-3,2.984199673E-4,8.008442819E-4,1.453734864E-3
1.024065188E1,-9.472295642E-4,1.545966603E-3,2.104181796E-3,2.777559651E-3
1.025060888E1,3.651763545E-4,-1.831454225E-3,-1.505199820E-3,2.398583925E-3
1.026056588E1,-5.743785296E-4,9.639831260E-4,2.224188298E-3,2.491222139E-3
1.027052288E1,6.607956020E-4,-4.504220560E-4,-1.278933138E-3,1.508376885E-3
1.028047988E1,1.409158576E-4,-2.083458938E-3,2.683658153E-3,3.400394022E-3
1.029043688E1,-5.669053644E-5,1.652689651E-3,3.327079117E-3,3.715380512E-3
1.030039388E1,1.070859376E-3,6.030984223E-4,2.445157617E-3,2.736651838E-3
1.031035088E1,-1.796565950E-3,-5.726879463E-4,6.919987500E-4,2.008602242E-3
1.032030788E1,3.252960974E-3,5.984799936E-4,2.741154283E-3,4.295795643E-3
1.033026488E1,5.895334762E-4,4.749093205E-4,2.057787031E-3,2.192618537E-3
1.034022188E1,-2.434274647E-4,3.315329552E-3,3.202576190E-3,4.615968070E-3
1.035017887E1,2.429587301E-3,-1.957826316E-4,6.648488343E-4,2.526509304E-3
1.036013588E1,-4.369763192E-4,8.053444326E-4,3.213562071E-3,3.341632706E-3
1.037009288E1,-1.046573743E-3,3.267740831E-4,6.721056998E-4,1.286010876E-3
1.038004888E1,1.177711296E-3,-1.052252017E-3,5.126036704E-4,1.660421852E-3
1.039000588E1,1.089827041E-3,-2.734570764E-3,9.342283010E-5,2.945221226E-3
1.039996288E1,-9.556936566E-4,-1.831939444E-4,1.739852130E-3,1.993488355E-3
1.040991988E1,-7.285259198E-4,1.819502562E-3,2.941206098E-3,3.534407008E-3
1.041987688E1,-1.848209649E-5,4.380494356E-4,3.561496735E-3,3.588382350E-3
1.042983388E1,5.863218103E-4,-6.743529812E-4,2.299688756E-3,2.467203596E-3
1.043979088E1,1.877937466E-4,-9.624315426E-4,1.293376088E-3,1.623071986E-3
1.044974788E1,2.650951501E-3,-1.906256191E-3,9.761936963E-4,3.407977503E-3
1.045970488E1,1.467618858E-3,9.062020108E-4,2.193875611E-3,2.790734203E-3
1.046966188E1,-7.097816560E-4,-1.871741377E-3,2.787228674E-3,3.431595760E-3
1.047961888E1,-3.653031308E-4,-8.475631475E-4,9.143315256E-4,1.299158114E-3
1.048957588E1,3.478914732E-4,1.350609586E-3,2.570282668E-3,2.924299527E-3
1.049953288E1,-2.543949755E-3,4.616426304E-4,2.701066434E-3,3.739057924E-3
1.050948988E1,-6.989117246E-4,7.916083559E-4,2.967916429E-3,3.150182426E-3
1.051944688E1,1.896286034E-3,-8.709700778E-4,2.932734787E-4,2.107249139E-3
1.052940388E1,-7.514287718E-4,-3.916006535E-4,9.856931865E-4,1.299841271E-3
1.053936088E1,8.134472882E-4,3.320211545E-4,2.352770418E-3,2.511466340E-3
1.054931688E1,-7.359797601E-4,-1.142837107E-3,2.880610526E-3,3.185225245E-3
1.055927388E1,-4.841131158E-5,1.716741361E-3,1.484479755E-3,2.270071518E-3
1.056923088E1,-2.105969470E-3,-2.336781472E-5,9.529143572E-4,2.311644271E-3
1.057918788E1,1.001309720E-3,2.537459135E-3,-5.246177316E-4,2.777866768E-3
1.058914488E1,2.745946404E-3,-4.295678809E-4,2.114839852E-3,3.492463001E-3
1.059910188E1,1.153644407E-3,1.667089760E-3,3.122836351E-4,2.051244685E-3
1.060905888E1,1.932352665E-3,2.849266864E-3,-3.668218851E-4,3.462205479E-3
1.061901588E1,2.341404092E-3,6.355531514E-4,2.508666366E-3,3.489915166E-3
1.062897288E1,-7.052521687E-4,1.509602182E-3,1.314505935E-3,2.122311292E-3
1.063892988E1,9.419538546E-4,-1.436864026E-3,4.425089806E-3,4.746922697E-3
1.064888688E1,1.562736696E-3,-9.705452248E-4,-4.855133593E-4,1.902584357E-3
1.065884388E1,-3.983043134E-3,1.955232583E-3,2.159584314E-3,4.934710880E-3
1.066880088E1,-1.768530346E-4,-2.775611356E-4,2.829633653E-3,2.848709145E-3
1.067875788E1,3.781821579E-5,6.770025939E-4,2.198707312E-3,2.300886041E-3
1.068871488E1,1.791509800E-3,1.588602550E-3,5.392916501E-4,2.454384018E-3
1.069867188E1,-2.338015474E-5,-7.631052285E-4,3.138288856E-3,3.229819370E-3
1.070862888E1,7.781991735E-5,6.742030382E-4,3.326840699E-3,3.395360763E-3
1.071858488E1,-8.055067156E-4,4.670638591E-4,2.434793860E-3,2.606762524E-3
1.072854188E1,-2.305300441E-4,-1.507136971E-3,1.225188375E-3,1.955937755E-3
1.073849888E1,-1.391837373E-3,1.645130105E-3,1.235328615E-3,2.483888307E-3
1.074845588E1,1.561341807E-3,-2.406537533E-4,2.765581012E-3,3.184986782E-3
1.075841288E1,-1.926195808E-3,-8.347695693E-4,2.309691161E-3,3.121176666E-3
1.076836988E1,-1.701691188E-3,2.597246319E-3,3.139000386E-3,4.415287620E-3
1.077832688E1,-4.098603968E-4,-7.224353030E-4,6.810650229E-4,1.074126565E-3
1.078828388E1,-6.982807536E-4,1.364151016E-3,6.408542395E-4,1.661083430E-3
1.079824088E1,-6.997741293E-4,4.499591887E-4,3.843046725E-4,9.164263117E-4
1.080819788E1,5.180895096E-4,-7.157064974E-4,4.442259669E-4,9.889333851E-4
1.081815488E1,7.220904808E-4,-2.412301488E-3,-7.486306131E-4,2.626987044E-3
1.082811188E1,-7.429143880E-4,1.778448932E-3,-1.341186464E-3,2.348102111E-3
1.083806888E1,7.114049513E-4,1.409566030E-3,2.003896981E-3,2.551191194E-3
1.084802588E1,-2.713952912E-3,-2.032443881E-4,1.320261508E-3,3.024886633E-3
1.085798288E1,3.710878082E-5,-6.794529036E-4,2.259030938E-3,2.359291014E-3
1.086793988E1,9.263383690E-4,-4.794495180E-4,1.769542694E-3,2.054082754E-3
1.087789688E1,-2.698581433E-3,1.294589601E-3,4.723034799E-4,3.030078310E-3
1.088785388E1,8.468818851E-5,1.374218613E-3,1.112528145E-3,1.770132131E-3
1.089780988E1,-1.287516905E-3,5.317358300E-4,-1.049153507E-4,1.396943093E-3
1.090776688E1,-2.263298957E-3,-2.406630665E-5,4.961602390E-4,2.317169898E-3
1.091772388E1,-3.155015875E-4,-1.246323809E-4,6.037205458E-4,6.924976386E-4
1.092768088E1,1.651989296E-4,8.053435013E-4,2.556350082E-3,2.685292272E-3
1.093763788E1,1.465817564E-3,-8.268840611E-5,2.782221884E-3,3.145825347E-3
1.094759488E1,-7.861515041E-4,-3.396992572E-3,-4.705637693E-4,3.518383575E-3
1.095755188E1,-1.621104311E-4,1.227122732E-3,1.095958054E-3,1.653249541E-3
1.096750888E1,-7.882195059E-4,1.733123325E-3,-1.645501703E-3,2.516482129E-3
1.097746588E1,9.775161743E-5,1.643961295E-3,-1.121532172E-3,1.992485516E-3
1.098742288E1,2.342796419E-3,5.033295602E-4,-1.670408994E-3,2.921010427E-3
1.099737988E1,-1.900625415E-3,-1.362578943E-3,1.065626740E-3,2.569933598E-3
1.100733688E1,1.432587043E-3,1.138774678E-4,1.657646149E-3,2.193869748E-3
1.101729388E1,9.184887167E-4,2.701301128E-4,2.384692430E-3,2.569698385E-3
1.102725088E1,-8.136311080E-4,-1.260122284E-3,2.011049539E-3,2.508829209E-3
1.103720788E1,9.794812649E-4,2.050986513E-4,6.017535925E-4,1.167714174E-3
1.104716488E1,-1.659444999E-3,4.133582115E-4,-1.489359885E-3,2.267777675E-3
1.105712188E1,1.766551286E-4,1.997519284E-4,4.511661828E-4,5.240789939E-4
1.106707888E1,9.585592197E-4,9.534265846E-4,9.270757437E-4,1.639307007E-3
1.107703488E1,1.064528828E-3,-1.229481772E-3,8.599124849E-4,1.839645763E-3
1.108699188E1,-4.864961375E-4,-1.142929308E-3,2.668198198E-3,2.943169638E-3
1.109694888E1,1.546419808E-3,-1.210961491E-4,1.562349498E-3,2.201593617E-3
1.110690588E1,9.394853842E-4,3.976877779E-4,3.601983190E-4,1.081910895E-3
1.111686288E1,2.206745557E-4,2.031889744E-3,1.200508326E-3,2.370336144E-3
1.112681988E1,-2.394549549E-3,1.222555526E-3,-8.948668838E-4,2.833601294E-3
1.113677688E1,-2.705034101E-3,1.247465611E-3,-3.064423800E-4,2.994542848E-3
1.114673388E1,4.534750478E-4,1.715486869E-4,8.752010763E-4,1.000522611E-3
1.115669088E1,-5.764248781E-4,2.345636487E-3,5.365386605E-4,2.474297861E-3
1.116664788E1,-3.433981910E-4,-1.486800611E-4,1.751206815E-3,1.790741016E-3
1.117660450E1,7.103828248E-4,-2.206032164E-3,-8.828230202E-4,2.480039950E-3
1.118656150E1,-1.220409060E-3,-1.077117398E-3,1.274339855E-3,2.067249919E-3
1.119651850E1,9.912253590E-4,9.431298822E-4,1.802068204E-3,2.262624913E-3
1.120647550E1,-2.089519287E-3,4.424555227E-4,1.435354352E-3,2.573344099E-3
1.121643250E1,-6.810619961E-4,-3.783125430E-5,2.212055027E-3,2.314835651E-3
1.122638950E1,-1.324748155E-3,-7.371772081E-4,3.443807364E-4,1.554665881E-3
1.123634650E1,-7.363348268E-4,6.135161966E-4,2.248823643E-3,2.444544718E-3
1.124630350E1,6.367909955E-4,5.839550868E-4,-5.869083107E-4,1.044493983E-3
1.125625950E1,-2.185830148E-3,-4.758592695E-5,-7.976107299E-4,2.327294724E-3
1.126621650E1,-1.172230812E-3,3.681341186E-4,-6.964094937E-4,1.412315116E-3
1.127617350E1,-1.413172344E-3,-1.632423140E-3,-2.494752407E-4,2.173499316E-3
1.128613050E1,4.044350935E-4,-1.881695352E-3,1.060534269E-3,2.197516343E-3
1.129608750E1,4.836971639E-4,-1.022989862E-3,1.149952412E-3,1.613338697E-3
1.130604450E1,-4.667851608E-4,-5.153911188E-4,2.120409161E-3,2.231513254E-3
1.131600150E1,-1.725085545E-3,8.870288730E-5,2.786900848E-3,3.278811473E-3
1.132595850E1,-4.694052041E-4,3.996677697E-5,1.210309565E-3,1.298763963E-3
1.133591550E1,-1.014108071E-3,-6.464840844E-4,-3.568828106E-4,1.254480846E-3
1.134587250E1,1.003769110E-3,-4.986785352E-4,7.802881300E-4,1.365680151E-3
1.135582950E1,-2.629926894E-4,5.465559661E-5,2.279095352E-4,3.522714083E-4
1.136578650E1,-2.188991057E-3,-1.528039575E-4,3.117993474E-4,2.216359567E-3
1.137574350E1,-1.055418979E-3,-6.602518260E-5,4.184357822E-4,1.137258568E-3
1.138570050E1,-1.892184373E-3,5.595516413E-4,3.768876195E-4,2.008856396E-3
1.139565750E1,4.658848047E-5,-7.522217929E-4,-1.879934222E-3,2.025379172E-3
1.140561450E1,-4.333129618E-4,-1.321072690E-3,3.035925329E-4,1.423081727E-3
1.141557150E1,9.110942483E-5,6.192456931E-4,2.093102783E-3,2.184684283E-3
1.142552850E1,9.656916372E-4,1.470837742E-5,1.562066376E-3,1.836526079E-3
1.143548450E1,8.672615513E-5,-8.412078023E-5,1.088436693E-3,1.095121987E-3
1.144544150E1,6.701867096E-5,-3.166142851E-4,2.369683236E-3,2.391680319E-3
1.145539850E1,1.293742796E-3,-1.102752052E-3,7.413178682E-4,1.854557816E-3
1.146535550E1,-1.045311568E-3,1.146287657E-3,2.979170531E-3,3.358885041E-3
1.147531250E1,3.091759281E-4,1.510228962E-3,-1.451708376E-4,1.548371998E-3
1.148526950E1,-1.769154798E-3,1.551774330E-3,2.121713012E-3,3.168529372E-3
1.149522650E1,1.839719247E-3,2.117511816E-3,8.901879191E-4,2.942933525E-3
1.150518350E1,8.191959932E-4,-1.631952822E-3,4.981681705E-4,1.892755561E-3
1.151514050E1,5.015202332E-4,-2.024322748E-4,5.919001997E-4,8.017775356E-4
1.152509750E1,1.052528271E-3,-1.481815241E-3,5.855076015E-4,1.909557886E-3
1.153505450E1,6.553668063E-4,9.062569588E-4,6.121546030E-4,1.274966895E-3
1.154501150E1,2.041275846E-3,-7.771262899E-4,-2.206269652E-3,3.104570522E-3
1.155496850E1,-5.425624549E-4,4.763910547E-4,3.073886037E-4,7.847357569E-4
1.156492550E1,2.055883640E-3,-2.719573677E-4,-2.303838730E-3,3.099724382E-3
1.157488250E1,-2.748914296E-3,1.617893577E-3,1.344136894E-3,3.461331163E-3
1.158483950E1,-2.269006800E-4,-5.230214447E-4,1.366775483E-3,1.480915450E-3
1.159479650E1,1.905531157E-3,-9.490754455E-4,3.330953419E-3,3.953105598E-3
1.160475350E1,-2.607195172E-3,2.432223409E-4,-1.343525946E-4,2.621960029E-3
1.161471050E1,-1.118153799E-3,-9.720576927E-4,3.182254732E-3,3.510257719E-3
1.162466650E1,-8.371903095E-4,9.656585753E-4,2.051208168E-3,2.416782789E-3
1.163462350E1,-3.373413347E-5,-7.605860010E-4,2.723228186E-3,2.827649344E-3
1.164458050E1,2.831756137E-5,-2.793530002E-4,2.096854150E-3,2.115570209E-3
1.165453750E1,1.290977001E-3,8.349772543E-5,1.431178302E-3,1.929213523E-3
1.166449450E1,1.059015747E-3,3.982828930E-4,1.468192786E-3,1.853573217E-3
1.167445150E1,4.170276225E-4,-1.412337646E-3,-2.513598651E-3,2.913209200E-3
1.168440850E1,9.166366654E-4,-1.199551858E-3,9.860619903E-4,1.803182100E-3
1.169436550E1,-1.010475680E-4,1.398899592E-3,2.935081720E-4,1.432926281E-3
1.170432250E1,2.518212423E-4,-2.301568165E-4,3.173980862E-3,3.192262616E-3
1.171427950E1,-1.275016228E-3,5.283756182E-4,3.022797406E-3,3.322973267E-3
1.172423650E1,1.590545056E-3,-2.402132377E-4,3.039840609E-3,3.439210215E-3
1.173419350E1,6.443081656E-4,8.125733584E-4,1.705374569E-3,1.995923569E-3
1.174415050E1,5.945070880E-4,2.756947652E-3,6.976351142E-4,2.905321632E-3
1.175410750E1,-1.230899012E-3,-2.432542853E-3,6.497167051E-4,2.802589678E-3
1.176406450E1,1.187783899E-3,5.062557757E-4,2.343751490E-3,2.675873044E-3
1.177402150E1,-2.482009586E-4,1.457067207E-3,2.018485218E-3,2.501785590E-3
1.178397850E1,1.374247950E-4,1.334561966E-3,9.753257036E-4,1.658674605E-3
1.179393550E1,1.177680679E-3,-2.098953351E-3,2.326715738E-3,3.347557778E-3
1.180389150E1,-1.052184030E-3,2.661999315E-4,3.383189440E-3,3.553016243E-3
1.181384850E1,-2.133943606E-3,-1.922227442E-3,2.988785505E-3,4.145058799E-3
1.182380550E1,-4.694678355E-4,7.899357006E-4,1.157060266E-3,1.477561138E-3
1.183376250E1,-3.798229154E-4,2.265240066E-3,1.658421010E-3,2.833008692E-3
1.184371950E1,-1.311396481E-3,1.044712961E-3,-2.872832119E-4,1.701093044E-3
1.185367650E1,-1.387535594E-3,-8.104527369E-4,6.739012897E-4,1.742478583E-3
1.186363350E1,-6.612916477E-4,-1.178502105E-3,2.834793180E-3,3.140418162E-3
1.187359050E1,6.455229595E-4,-5.952399224E-4,1.378696412E-3,1.634568522E-3
1.188354750E1,-9.140241891E-4,1.191209070E-3,1.983765513E-3,2.487919789E-3
1.189350450E1,4.897178151E-4,3.437967971E-4,-2.859905362E-4,6.631819983E-4
1.190346150E1,-7.487228140E-5,1.014114358E-3,1.802459359E-3,2.069515289E-3
1.191341850E1,1.322204596E-3,8.852351457E-4,-3.801733255E-4,1.635970053E-3
1.192337550E1,-1.527910354E-3,-5.115931854E-4,1.692831516E-3,2.337074277E-3
1.193333250E1,-1.712772297E-3,-6.099557504E-4,1.591797918E-3,2.416496549E-3
1.194328950E1,5.280113546E-4,-2.161779441E-3,1.133468002E-3,2.497365823E-3
1.195324650E1,7.789846277E-4,1.644130796E-3,2.854280174E-4,1.841589606E-3
1.196320350E1,-3.851453541E-3,3.306604922E-4,1.224193722E-3,4.054834276E-3
1.197316050E1,2.555549145E-5,-1.412911341E-3,-4.244856536E-4,1.475520115E-3
1.198311750E1,-1.164078712E-3,-1.007578336E-3,-1.695081592E-3,2.289889725E-3
1.199307350E1,-1.286697574E-3,-8.549839258E-4,2.768933773E-4,1.569477016E-3
1.200303050E1,-2.499234630E-3,3.117652610E-3,3.068417311E-3,5.037967479E-3
1.201298750E1,-1.103487564E-3,1.733713783E-3,9.726844728E-4,2.273667383E-3
1.202294450E1,3.916111309E-4,-3.339648247E-4,2.768453211E-3,2.815887953E-3
1.203290150E1,-1.199919265E-3,2.885488793E-4,2.195592970E-3,2.518669328E-3
1.204285850E1,-1.262503676E-3,1.160467975E-3,1.698113978E-3,2.413336391E-3
1.205281550E1,8.364026435E-4,-2.002987079E-3,7.571280003E-4,2.298862639E-3
1.206277250E1,3.524064785E-3,-7.012346759E-4,-4.048086703E-4,3.615886162E-3
1.207272950E1,-6.618474144E-4,2.078268677E-3,2.934016287E-3,3.655912235E-3
1.208268650E1,1.643651049E-3,-1.318060793E-3,3.895416856E-3,4.428673109E-3
1.209264350E1,-8.076142985E-4,-1.274272799E-4,3.682401031E-3,3.772075811E-3
1.210260050E1,-1.367943361E-3,-1.147418283E-3,4.316233099E-3,4.670942722E-3
1.211255750E1,3.944142954E-4,7.842918858E-4,1.326385885E-3,1.590589801E-3
1.212251450E1,1.092695165E-3,7.848246023E-4,-1.401491463E-3,1.942707055E-3
1.213247150E1,1.830630936E-5,-4.400303587E-4,-3.601051867E-4,5.688915389E-4
1.214242850E1,-5.966175813E-4,-9.131617844E-6,1.311562955E-3,1.440914054E-3
1.215238550E1,-1.251024893E-3,2.787497826E-3,1.647721976E-3,3.471339096E-3
1.216234250E1,4.041297361E-4,3.722775728E-4,3.577448428E-3,3.619398940E-3
1.217229996E1,-4.168988671E-4,4.108650610E-4,2.016302198E-3,2.099545026E-3
1.218225596E1,1.996229403E-4,3.562700003E-4,1.859709620E-3,1.904021403E-3
1.219221296E1,2.779809292E-4,-7.191598415E-4,9.910762310E-4,1.255665708E-3
1.220216996E1,1.811162801E-3,-1.089605503E-3,2.986583859E-3,3.658856924E-3
1.221212696E1,-1.814898336E-3,8.241301402E-4,4.823133349E-5,1.993833674E-3
1.222208396E1,-4.436366726E-4,-2.251821570E-3,9.742155671E-4,2.493313027E-3
1.223204096E1,-9.337589145E-4,6.079999730E-4,3.161255270E-3,3.351880750E-3
1.224199796E1,4.814867862E-5,1.431715675E-3,-2.089776099E-4,1.447687711E-3
1.225195496E1,3.613076406E-4,1.514189877E-3,1.076407731E-3,1.892608728E-3
1.226191196E1,4.710297799E-4,1.477217302E-4,-8.908696473E-4,1.018498646E-3
1.227186896E1,8.639451116E-4,-1.702899113E-3,2.551823854E-3,3.187172968E-3
1.228182596E1,-1.088950783E-3,3.810245544E-4,4.998594522E-4,1.257319765E-3
1.229178296E1,-8.291327395E-4,7.448503748E-4,1.049984246E-3,1.531251155E-3
1.230173996E1,-1.332487445E-4,7.299361750E-4,2.279300243E-3,2.397033926E-3
1.231169696E1,2.020661952E-3,-7.448354736E-4,-1.036863774E-3,2.390175954E-3
1.232165396E1,-7.956307381E-4,1.380024478E-4,3.378614783E-4,8.753418336E-4
1.233161096E1,-1.078814501E-3,1.580668613E-4,9.467862546E-4,1.444032573E-3
1.234156796E1,-9.288785513E-4,-8.968105540E-4,5.454495549E-4,1.401641805E-3
1.235152496E1,1.030749641E-3,1.297025941E-3,-6.739459932E-4,1.788553694E-3
1.236148196E1,-2.606171183E-4,-8.135288954E-4,-1.429133117E-4,8.661262960E-4
1.237143796E1,-1.527169487E-3,2.664693631E-3,2.210266888E-3,3.783928977E-3
1.238139496E1,-1.039761119E-4,-1.641371287E-3,-1.322478056E-4,1.649969762E-3
1.239135196E1,1.420042710E-3,7.811011747E-4,2.141520381E-4,1.634778713E-3
1.240130896E1,8.192335954E-4,2.598175779E-3,2.221375704E-3,3.515134575E-3
1.241126596E1,-1.056236215E-5,5.564140156E-4,1.610334963E-3,1.703786023E-3
1.242122296E1,1.911174739E-3,-9.853392839E-7,1.354135573E-3,2.342279446E-3
1.243117996E1,-1.033566426E-3,-6.410209462E-4,3.157928586E-3,3.384033151E-3
1.244113696E1,-2.753643785E-4,-8.711181581E-4,2.877764404E-3,3.019304614E-3
1.245109396E1,8.810360450E-4,-3.381446004E-4,8.262693882E-5,9.473085529E-4
1.246105096E1,5.286998348E-4,1.876805909E-3,7.971525192E-4,2.106508029E-3
1.247100796E1,-2.657227451E-3,1.690023579E-3,2.013593912E-4,3.155563821E-3
1.248096496E1,-1.774389530E-3,8.687051013E-4,1.338794827E-3,2.386520133E-3
1.249092196E1,2.354060765E-3,4.430478439E-4,-7.702708244E-4,2.516189703E-3
1.250087896E1,-1.808726229E-3,4.923166707E-4,3.529936075E-3,3.996788082E-3
1.251083596E1,7.254538359E-4,-2.315972932E-3,4.925876856E-4,2.476420101E-3
1.252079296E1,-2.183516743E-3,-1.374811865E-3,-1.959651709E-3,3.240075285E-3
1.253074996E1,2.299125772E-3,4.690606147E-4,-6.877481937E-4,2.445198306E-3
1.254070696E1,-3.797479440E-4,-8.088164032E-5,2.416167408E-3,2.447164744E-3
1.255066396E1,-1.022097887E-3,-9.116884321E-4,3.052677959E-3,3.345848564E-3
1.256062096E1,9.355918737E-4,-1.211293973E-3,1.444127411E-3,2.104297798E-3
1.257057696E1,-7.286411710E-4,1.672913320E-3,2.885453403E-3,3.414000333E-3
1.258053396E1,-1.081776340E-3,1.767455600E-3,1.217052341E-5,2.072266264E-3
1.259049096E1,-2.454004250E-3,7.892111316E-4,-6.844215095E-4,2.667100275E-3
1.260044796E1,-2.771985717E-3,2.533847466E-3,-1.508403569E-3,4.047168038E-3
1.261040496E1,2.313668840E-3,-9.294711053E-4,-4.212558270E-5,2.493743090E-3
1.262036196E1,-3.292523324E-4,4.196856171E-4,2.467904240E-3,2.524894939E-3
1.263031896E1,1.081053051E-3,1.115338877E-3,2.948265523E-3,3.332405453E-3
1.264027596E1,-7.008679677E-4,5.970876664E-4,1.475270838E-3,1.739009383E-3
1.265023296E1,-1.356558641E-3,-4.642233253E-4,1.742955297E-3,2.256911122E-3
1.266018996E1,1.332168933E-3,-8.383980021E-4,-1.648046076E-3,2.278956153E-3
1.267014696E1,-6.819253322E-4,4.715779796E-4,-1.374017447E-3,1.604784065E-3
1.268010396E1,-3.650090657E-4,3.016684204E-4,-2.306390554E-3,2.354500550E-3
1.269006096E1,4.361756146E-5,4.958463833E-4,2.407211810E-3,2.458136454E-3
1.270001796E1,-1.430442091E-3,6.242105737E-4,3.398973495E-3,3.740163664E-3
1.270997496E1,-8.085661102E-4,-4.092790186E-4,-3.462210298E-4,9.701327080E-4
1.271993196E1,2.894552890E-4,1.707570627E-4,-6.157346070E-4,7.014780432E-4
1.272988896E1,4.942975938E-4,-1.537554897E-3,-1.701295376E-3,2.345807138E-3
1.273984596E1,-4.332812969E-4,3.125434741E-4,-3.334347159E-3,3.376875343E-3
1.274980296E1,1.831511036E-4,9.368378669E-4,-9.357258677E-4,1.336709548E-3
1.275975896E1,-8.219259325E-4,1.723003574E-3,1.485355198E-3,2.418797970E-3
1.276971596E1,-6.157890894E-4,-5.163485184E-4,3.013599664E-3,3.118909253E-3
1.277967296E1,9.980238974E-5,1.348396763E-3,3.513209522E-3,3.764409049E-3
1.278962996E1,1.054394990E-3,-3.187088296E-4,2.815965563E-3,3.023737119E-3
1.279958696E1,7.097818889E-4,-8.398890495E-4,4.558749497E-4,1.190388976E-3
1.280954396E1,2.028308343E-3,-9.794663638E-4,-4.441034049E-3,4.979575536E-3
1.281950096E1,-6.859854329E-4,-1.088790596E-4,1.686327159E-4,7.147500659E-4
1.282945796E1,-1.393296290E-3,-4.227627069E-4,2.018194646E-3,2.488596489E-3
1.283941496E1,-1.504350221E-3,6.957650185E-4,4.410244524E-3,4.711413303E-3
1.284937196E1,3.279577941E-4,1.856276765E-3,2.291485667E-3,2.967191653E-3
1.285932896E1,5.474021891E-4,-1.502235420E-3,2.471782267E-3,2.943818607E-3
1.286928596E1,-1.350082457E-4,2.913724631E-3,-7.129758596E-4,3.002724268E-3
1.287924296E1,9.721936658E-5,2.942401916E-4,-1.584894955E-3,1.614905853E-3
1.288919996E1,-4.954293836E-4,2.937101759E-3,-1.183409244E-3,3.205070117E-3
1.289915696E1,-9.646783583E-4,2.523512580E-3,6.629601121E-4,2.781768535E-3
1.290911396E1,-1.162627712E-3,-1.308603212E-3,3.568571061E-3,3.974776092E-3
1.291907096E1,5.825418048E-4,1.185713336E-3,1.320328563E-3,1.867762989E-3
1.292902796E1,-2.798261354E-3,1.582735218E-3,1.741468906E-3,3.656231848E-3
1.293898496E1,1.493254676E-4,1.185125671E-3,1.149713993E-3,1.657909291E-3
1.294894196E1,-6.106803194E-4,1.104573719E-3,-2.318844199E-4,1.283270797E-3
1.295889796E1,-3.321138211E-4,-3.833342344E-4,9.966306388E-4,1.118265333E-3
1.296885496E1,6.717618089E-4,2.372665331E-4,1.977536827E-3,2.101954148E-3
1.297881196E1,-5.764616653E-4,1.349136233E-3,1.947443932E-3,2.438240041E-3
1.298876896E1,-1.791223884E-3,9.419396520E-4,-1.213677227E-3,2.359819002E-3
1.299872596E1,-8.479321841E-4,9.603146464E-4,-5.254149437E-5,1.282167625E-3
1.300868296E1,8.646640927E-4,2.796811052E-3,1.785326749E-3,3.428875567E-3
1.301863996E1,9.325746214E-4,-9.937584400E-5,2.194918692E-3,2.386888989E-3
1.302859696E1,1.605444122E-3,-1.971657388E-3,2.058703452E-3,3.271565923E-3
1.303855396E1,8.025011048E-4,-2.595130354E-5,2.421624959E-4,8.386442438E-4
1.304851096E1,5.189592484E-4,4.230430350E-4,-7.180385292E-4,9.817654711E-4
1.305846796E1,-1.674154075E-3,4.027631134E-3,3.643706441E-5,4.361872542E-3
1.306842496E1,5.969714839E-4,1.805250533E-3,-1.432385296E-3,2.380552893E-3
1.307838196E1,-4.636589438E-6,-1.974469051E-4,2.531465143E-3,2.539157842E-3
1.308833896E1,6.684267428E-4,-4.405332729E-4,2.312645316E-3,2.447282622E-3
1.309829596E1,1.450863434E-3,-7.887650281E-5,2.618908882E-3,2.994980791E-3
1.310825296E1,1.385370502E-3,-5.895942450E-4,2.856075764E-3,3.228628435E-3
1.311820996E1,-1.031181775E-3,3.802224994E-3,4.715230316E-3,6.144399701E-3
1.312816696E1,-3.590944689E-4,1.827782020E-3,-2.501871437E-3,3.119149986E-3
1.313812396E1,1.186604146E-3,-9.347144514E-4,-1.393817365E-4,1.516953451E-3
1.314808096E1,-2.211529762E-3,2.266690135E-4,-2.043142915E-3,3.019383331E-3
1.315803796E1,2.490281360E-3,-1.762712374E-3,1.491405070E-3,3.396019030E-3
1.316799396E1,-5.970534403E-4,2.282047644E-4,2.085581422E-3,2.181329891E-3
1.317795033E1,8.498420939E-4,-1.803236082E-4,2.618480474E-3,2.758838194E-3
1.318790733E1,3.563653445E-3,1.679938287E-3,1.024268568E-4,3.941105147E-3
1.319786433E1,2.918635961E-3,9.624827653E-4,1.179940999E-3,3.291970490E-3
1.320782133E1,2.125471365E-4,-3.271969035E-4,4.904568195E-4,6.267232170E-4
1.321777833E1,6.746056024E-4,1.795608550E-3,9.618364275E-4,2.145794048E-3
1.322773533E1,-8.315150626E-5,1.333439723E-3,1.482591033E-4,1.344230794E-3
1.323769233E1,2.249761019E-4,3.439201042E-3,1.067049801E-3,3.607951404E-3
1.324764933E1,-6.792659406E-4,-1.799874008E-4,-5.098804832E-5,7.045547981E-4
1.325760633E1,1.759390580E-3,2.313797362E-3,8.361078799E-4,3.024597466E-3
1.326756333E1,1.863284153E-3,2.056493424E-3,-4.734285176E-4,2.815160315E-3
1.327752033E1,7.295764517E-4,-3.462107852E-4,5.680695176E-5,8.095497122E-4
1.328747733E1,2.008708892E-3,1.162244938E-3,7.287003100E-4,2.432432703E-3
1.329743433E1,8.955075173E-4,7.257526740E-4,1.145754009E-3,1.625239339E-3
1.330739133E1,7.607368752E-4,-7.629152387E-4,5.208138376E-3,5.318408183E-3
1.331734833E1,-1.967405202E-3,1.657631248E-3,3.131940961E-3,4.053082625E-3
1.332730533E1,2.406698419E-3,1.290095970E-4,3.243558109E-3,4.040978837E-3
1.333726233E1,-5.086639430E-4,1.819849946E-3,4.187449813E-4,1.935443151E-3
1.334721933E1,2.860641107E-4,-6.994744763E-4,-8.473843336E-4,1.135410687E-3
1.335717633E1,1.205120934E-3,-1.428741962E-4,-3.371793777E-3,3.583534955E-3
1.336713333E1,-9.801595006E-4,-1.057478599E-3,5.257762969E-4,1.534735922E-3
1.337708933E1,1.029195497E-3,-7.698563859E-4,2.259761095E-3,2.599700450E-3
1.338704633E1,1.390789403E-3,6.368355826E-4,9.087808430E-4,1.779251905E-3
1.339700333E1,-8.540088311E-5,-2.262946218E-4,2.336237580E-3,2.348724887E-3
1.340696033E1,-7.350209635E-4,4.010926932E-5,4.245962948E-3,4.309299934E-3
1.341691733E1,6.269195583E-4,-1.110643148E-3,-1.073967665E-3,1.667322069E-3
1.342687433E1,3.156836610E-4,2.140961587E-4,-7.728822529E-4,8.618818457E-4
1.343683133E1,-3.985587973E-3,5.121035501E-4,-1.885853708E-4,4.022775905E-3
1.344678833E1,8.344966918E-4,3.178110346E-4,2.526454628E-4,9.280184870E-4
1.345674533E1,2.299591433E-4,2.108254470E-3,2.404745668E-3,3.206309381E-3
1.346670233E1,-1.201965613E-3,4.906123504E-4,2.124261111E-3,2.489559616E-3
1.347665933E1,8.095199009E-4,-6.830431521E-4,1.328777522E-3,1.699270467E-3
1.348661633E1,1.916024834E-3,8.893292397E-4,4.546344280E-4,2.160729072E-3
1.349657333E1,1.396175707E-3,1.338072121E-3,-9.861364961E-4,2.170762261E-3
1.350653033E1,1.959568122E-3,-1.499559730E-4,-2.358529717E-3,3.070025480E-3
1.351648733E1,-7.656447124E-4,1.309456304E-3,-1.012831926E-3,1.823928767E-3
1.352644433E1,-1.056743320E-3,-1.203352585E-4,6.957501173E-4,1.270926923E-3
1.353640133E1,7.163803093E-5,2.893031575E-3,-7.177144289E-5,2.894808256E-3
1.354635833E1,1.031785039E-3,7.494613528E-4,2.459332347E-3,2.770304727E-3