"Time (s)","Gyroscope x (rad/s)","Gyroscope y (rad/s)","Gyroscope z (rad/s)","Absolute (rad/s)"
1.340250001E-3,-2.575372113E-3,1.698082313E-3,-3.823815496E-4,3.108414501E-3
1.129725000E-2,-1.338229980E-3,2.620475367E-3,2.669973765E-3,3.973224198E-3
2.125425000E-2,2.170561347E-4,-1.617288217E-4,1.179935178E-3,1.210585231E-3
3.121125000E-2,3.641035873E-4,5.053281784E-4,-2.184171928E-3,2.271240851E-3
4.116825000E-2,3.904688638E-4,-1.132782549E-3,-9.071862441E-4,1.502880274E-3
5.112525000E-2,-1.436665189E-4,-7.336400449E-4,4.389678361E-4,8.669259168E-4
6.108225000E-2,-1.315723872E-3,-1.568274572E-3,-1.634835731E-3,2.619790509E-3
7.103825000E-2,-1.796004130E-3,1.116106287E-4,-3.643376287E-3,4.063530304E-3
8.099525000E-2,1.281811157E-3,-6.332751364E-4,-1.733889803E-3,2.247320870E-3
9.095225000E-2,-9.188207332E-4,-7.612621412E-4,4.928202834E-4,1.290977699E-3
1.009092500E-1,-3.869873472E-4,1.585939899E-4,2.011354780E-3,2.054375650E-3
1.108662500E-1,-2.704935614E-4,9.650550783E-5,-4.664879525E-4,5.478057043E-4
1.208232500E-1,-6.638425402E-4,-4.361271858E-4,1.772431657E-3,1.942268730E-3
1.307802500E-1,-5.673945416E-4,1.337678172E-3,-1.925834571E-3,2.412500415E-3
1.407372500E-1,1.127441064E-3,-1.322819851E-3,-1.348587102E-4,1.743319416E-3
1.506932500E-1,-3.175707534E-4,1.422706991E-3,-1.117768465E-3,1.836941128E-3
1.606502500E-1,3.277132055E-4,-1.042581163E-3,-1.071962062E-3,1.530840975E-3
1.706072500E-1,2.899247920E-4,6.856173277E-4,8.248906815E-4,1.111113019E-3
1.805642500E-1,2.695025643E-3,4.584491253E-4,2.492828527E-3,3.699666591E-3
1.905212500E-1,1.136241830E-3,-1.071630977E-3,-1.006991137E-3,1.858351311E-3
2.004782500E-1,7.138644578E-4,-1.048195176E-3,-1.232294599E-3,1.768294537E-3
2.104352500E-1,-3.945055418E-3,2.558100037E-3,-1.776874997E-4,4.705200410E-3
2.203922500E-1,1.721618930E-3,2.600976266E-3,-2.280212357E-4,3.127465901E-3
2.303482500E-1,-2.782364842E-3,-5.633244291E-4,1.650948543E-4,2.843614748E-3
2.403052500E-1,1.060995273E-4,6.156573072E-4,-2.253321698E-3,2.338321985E-3
2.502622500E-1,-9.058584692E-4,8.311681449E-5,4.944915418E-4,1.035379088E-3
2.602192500E-1,-2.118387492E-4,6.628865376E-4,-7.545310073E-4,1.026455678E-3
2.701762500E-1,-1.354505308E-3,-1.778129488E-3,-1.364172436E-3,2.618662930E-3
2.801332500E-1,5.792160518E-4,-1.845507883E-3,-7.116979687E-4,2.061044536E-3
2.900902500E-1,-7.184485439E-4,-1.151570119E-3,-2.122896258E-4,1.373808187E-3
3.000472500E-1,4.291075747E-4,1.739025116E-3,1.133938320E-3,2.119942871E-3
3.100032500E-1,-1.765576657E-3,-1.260068268E-3,8.510238258E-4,2.330080368E-3
3.199602500E-1,-5.604962353E-4,8.584763855E-4,8.608774515E-4,1.338748565E-3
3.299172500E-1,4.350946983E-4,5.519790575E-4,-2.176935668E-4,7.357844558E-4
3.398742500E-1,2.603314351E-5,-1.503981650E-3,6.976348814E-4,1.658111261E-3
3.498312500E-1,8.655845886E-4,-2.115143463E-3,-1.816008473E-3,2.919067543E-3
3.597884583E-1,-4.939307459E-3,1.233515330E-3,1.548096770E-3,5.321176736E-3
3.697454583E-1,-2.176607493E-3,-1.653656363E-3,9.392532520E-4,2.890397243E-3
3.797024583E-1,1.004538382E-3,1.556252129E-3,1.958444947E-3,2.695649210E-3
3.896584583E-1,2.115255920E-4,2.802394331E-3,1.861714059E-3,3.371073464E-3
3.996154583E-1,8.576085092E-4,-3.460029140E-3,-1.478688908E-3,3.859250561E-3
4.095724583E-1,-1.185906469E-3,-6.179073825E-4,-6.736920914E-4,1.497345892E-3
4.195294583E-1,-1.201086328E-3,1.219194382E-4,8.320591878E-4,1.466217995E-3
4.294864583E-1,-1.665137708E-3,7.280241698E-4,1.116012689E-3,2.132647908E-3
4.394434583E-1,1.145296148E-3,-1.290119253E-3,-4.219629045E-4,1.775996522E-3
4.494004583E-1,-2.464732854E-3,-5.026804283E-4,-1.130633755E-3,2.757884758E-3
4.593574583E-1,2.649335191E-3,1.657143235E-3,1.682463335E-3,3.549053892E-3
4.693134583E-1,-1.626667567E-3,1.755417325E-3,1.221686834E-4,2.396343578E-3
4.792704583E-1,-1.763287699E-3,5.359556526E-4,-2.867495874E-3,3.408660229E-3
4.892274583E-1,-1.788206981E-3,-1.951576211E-3,-4.034413141E-4,2.677517284E-3
4.991844583E-1,2.278439933E-3,-1.831733622E-3,1.611506334E-3,3.338186522E-3
5.091414583E-1,-1.852190471E-3,2.476762980E-3,6.423320156E-4,3.158726772E-3
5.190984583E-1,5.811399315E-4,1.529476605E-3,7.549836300E-4,1.801949663E-3
5.290554583E-1,5.494352663E-4,-1.673132181E-3,-1.330282423E-3,2.207011946E-3
5.390124583E-1,5.771321012E-4,6.542047486E-4,1.829824643E-3,2.027146650E-3
5.489684583E-1,-2.807006240E-6,-8.841678500E-4,-2.010652097E-4,9.067457664E-4
5.589254583E-1,1.096812310E-3,-2.482049167E-4,-1.403216040E-3,1.798226398E-3
5.688824583E-1,1.274139970E-3,-6.865998730E-4,-1.941743772E-3,2.421821820E-3
5.788394583E-1,6.672055461E-4,-6.482498720E-4,4.124905681E-4,1.017614665E-3
5.887964583E-1,-1.427689800E-3,-8.910326287E-4,-1.669041114E-3,2.370218461E-3
5.987534583E-1,3.464270849E-3,-9.142020717E-4,2.180748852E-4,3.589497820E-3
6.087104583E-1,5.492205964E-4,-1.820180565E-3,9.943421464E-4,2.145557470E-3
6.186674583E-1,-1.550948247E-3,-1.709126867E-3,2.400491154E-3,3.330001936E-3
6.286234583E-1,-2.203063108E-3,1.085543074E-3,1.034105197E-3,2.664819765E-3
6.385804583E-1,1.957593486E-3,2.122844569E-3,-1.602956909E-3,3.302743128E-3
6.485374583E-1,-1.844046754E-3,6.311573088E-4,-2.529286779E-3,3.193142589E-3
6.584944583E-1,8.928837487E-4,5.187727511E-4,3.480480518E-5,1.033236629E-3
6.684514583E-1,8.999782149E-4,2.374537289E-4,1.840819838E-3,2.062756102E-3
6.784084583E-1,-1.379953930E-3,1.423093490E-3,-2.840751084E-3,3.464005579E-3
6.883654583E-1,-1.208376023E-3,-6.677852944E-4,-3.715263912E-3,3.963495396E-3
6.983214583E-1,6.381608546E-5,-3.390867263E-3,-1.512563322E-3,3.713475608E-3
7.082784583E-1,6.280606613E-4,-6.173504516E-4,3.415449988E-3,3.527163222E-3
7.182354583E-1,-1.473173383E-3,2.127569169E-4,4.616802093E-3,4.850810951E-3
7.281924583E-1,-7.562862011E-4,-9.758565575E-4,-8.301436319E-4,1.487751084E-3
7.381494583E-1,-1.279986463E-6,1.553614624E-3,3.254018957E-4,1.587326819E-3
7.481064583E-1,-1.518083038E-3,4.804981872E-4,1.421119552E-3,2.134252890E-3
7.580634583E-1,-2.768969862E-3,-5.160560831E-4,-1.646575751E-3,3.262624661E-3
7.680204583E-1,3.741937689E-4,-8.194996044E-4,-8.076693630E-4,1.209929906E-3
7.779764583E-1,3.797864774E-4,2.032480203E-3,1.713086385E-4,2.074743404E-3
7.879334583E-1,-2.617466263E-3,7.785856724E-6,1.078987960E-3,2.831149109E-3
7.978904583E-1,1.506172586E-3,-1.331783831E-3,-6.182445213E-4,2.103432985E-3
8.078474583E-1,1.795861172E-4,-6.686635315E-4,-2.308716532E-3,2.410297516E-3
8.178044583E-1,-1.431093784E-3,-1.827937551E-3,1.744614448E-3,2.903973947E-3
8.277614583E-1,-1.815912547E-3,-9.332317859E-5,1.288023544E-3,2.228284597E-3
8.377184583E-1,2.374038799E-3,9.042965248E-4,-5.929672043E-4,2.608720477E-3
8.476754583E-1,-1.153408084E-3,-3.871824592E-4,1.407513162E-3,1.860471383E-3
8.576314583E-1,-1.229841029E-3,-9.464463219E-4,1.842407510E-3,2.408886678E-3
8.675884583E-1,-1.587222097E-3,1.583036035E-3,2.628989285E-3,3.454976373E-3
8.775454583E-1,-1.025028760E-3,-4.465589300E-4,-2.378552454E-3,2.628233363E-3
8.875024583E-1,-2.473788802E-3,-4.633758217E-4,-3.034970956E-3,3.942765133E-3
8.974594583E-1,-1.004256308E-3,-4.063844681E-4,-8.245472563E-4,1.361454093E-3
9.074164583E-1,-4.342184402E-4,-1.418690197E-3,1.463479362E-3,2.083986414E-3
9.173734583E-1,3.088035155E-4,1.277227886E-3,8.655996062E-4,1.573509886E-3
9.273304583E-1,7.447032258E-4,1.660756767E-3,1.859599724E-4,1.829556516E-3
9.372864583E-1,1.066098921E-4,2.144919708E-3,1.414852450E-4,2.152223106E-3
9.472434583E-1,-1.445136266E-3,-2.076380886E-3,1.008398831E-4,2.531786937E-3
9.572004583E-1,7.090945728E-4,1.377705485E-4,5.045750877E-4,8.811310097E-4
9.671574583E-1,-2.500584582E-3,-1.096142456E-3,-1.962233800E-3,3.362263080E-3
9.771144583E-1,1.893364708E-3,-3.904048353E-4,5.107776960E-4,1.999534873E-3
9.870714583E-1,1.244588988E-3,3.251945600E-4,3.967713565E-5,1.286983887E-3
9.970284583E-1,7.111578016E-4,1.804047264E-3,1.499888254E-3,2.451529467E-3
1.006985458E0,-2.745928476E-3,2.621462569E-3,-9.176650783E-4,3.905675151E-3
1.016941458E0,-3.110198304E-5,5.540503189E-4,-2.197580412E-3,2.266560998E-3
1.026898458E0,1.731268130E-4,-1.009237953E-3,-1.124562463E-3,1.520912513E-3
1.036855458E0,1.563489204E-4,7.082344964E-4,6.813270738E-4,9.951118874E-4
1.046812458E0,6.503824843E-4,2.564555034E-4,-3.094615880E-3,3.172603702E-3
1.056769458E0,-4.694766831E-4,-4.581362009E-5,-7.710077916E-4,9.038585390E-4
1.066726458E0,2.033006167E-4,-2.171027474E-3,1.799437450E-4,2.187937656E-3
1.076683458E0,-1.446261303E-3,-1.201637089E-3,-3.039526637E-4,1.904728504E-3
1.086640458E0,5.090646446E-4,1.807901077E-3,-3.664140822E-4,1.913612394E-3
1.096596458E0,-6.669873837E-4,-1.270180568E-3,-4.247704986E-3,4.483439360E-3
1.106553458E0,-1.647825586E-3,1.382093877E-3,-7.356045535E-5,2.151958128E-3
1.116510458E0,8.560784627E-4,9.978003800E-4,3.570726840E-4,1.362342407E-3
1.126467458E0,-2.251151018E-4,-1.143597066E-3,2.351834206E-3,2.624807648E-3
1.136424458E0,2.362427767E-5,-5.715498701E-4,-2.423509140E-4,6.212578579E-4
1.146381458E0,-5.887139123E-4,6.456505507E-4,8.208593354E-4,1.198857269E-3
1.156338458E0,-3.247945569E-4,9.987857193E-4,2.937006997E-3,3.119146441E-3
1.166295458E0,1.620158553E-3,-8.840132505E-4,5.432638573E-4,1.923935753E-3
1.176251458E0,-1.715450548E-3,4.835892469E-5,-2.634075936E-4,1.736229457E-3
1.186208458E0,-1.845445950E-3,-1.598720439E-3,1.040703617E-3,2.654174413E-3
1.196165458E0,-2.011361066E-3,1.800271682E-3,3.335549496E-3,4.290972140E-3
1.206122458E0,-1.411897829E-3,1.817522570E-3,5.660374882E-4,2.370072195E-3
1.216079458E0,-1.436398830E-3,-1.446940005E-4,-1.480868086E-3,2.068126747E-3
1.226036458E0,-1.521892380E-3,6.490014493E-5,-1.722737681E-3,2.299607263E-3
1.235993458E0,-4.054952879E-4,-1.105292700E-3,-2.148558851E-4,1.196771253E-3
1.245950458E0,-5.715885200E-4,3.005834296E-4,5.422119284E-4,8.432423196E-4
1.255906458E0,3.988672979E-4,-2.477616072E-4,-1.160879619E-3,1.252246951E-3
1.265863458E0,-1.092379913E-3,6.921384484E-4,5.155471154E-4,1.392170368E-3
1.275820458E0,1.041344716E-3,3.908172250E-3,2.377362922E-3,4.691488422E-3
1.285777458E0,-3.421772271E-4,-1.714126207E-3,-9.949515807E-4,2.011278836E-3
1.295734458E0,7.206903538E-4,-8.379453793E-4,-3.492197720E-3,3.662921233E-3
1.305691458E0,3.120325273E-4,-4.189722240E-4,-1.157692634E-3,1.270100097E-3
1.315648458E0,-2.498945687E-4,-2.501280978E-4,2.798816422E-4,4.509380162E-4
1.325604458E0,-7.345573977E-6,-2.288587391E-3,-2.065720619E-4,2.297903005E-3
1.335561458E0,2.134368522E-3,-1.599627547E-3,1.691998914E-4,2.672632762E-3
1.345518458E0,1.058051130E-4,1.705718227E-3,4.855034640E-4,1.776621233E-3
1.355475458E0,2.075745258E-3,-3.763409331E-4,2.449851017E-3,3.232974000E-3
1.365432208E0,-6.268837024E-4,7.514236495E-4,-5.333494628E-4,1.114487473E-3
1.375389208E0,-1.316908747E-3,4.880363122E-4,-1.518985373E-3,2.068754372E-3
1.385346208E0,-7.055713795E-4,-8.205138147E-5,-6.069184747E-4,9.342983654E-4
1.395303208E0,3.104245989E-4,-7.497062907E-4,3.686896060E-3,3.775132515E-3
1.405260208E0,-3.325704020E-4,9.787213057E-4,4.127892666E-3,4.255349143E-3
1.415216208E0,3.230998991E-4,1.286407933E-4,-1.803030609E-4,3.917284675E-4
1.425173208E0,-2.236522269E-4,-1.871022396E-3,-1.252437825E-3,2.262597099E-3
1.435130208E0,-1.966690877E-3,-4.132073373E-4,1.433249563E-4,2.014734562E-3
1.445087208E0,-1.713339472E-3,-1.346149482E-3,-1.753560966E-3,2.796895893E-3
1.455044208E0,-6.605405360E-7,8.091470227E-4,-3.140535206E-3,3.243097396E-3
1.465001208E0,3.793070791E-4,5.567502230E-4,4.913241137E-4,8.338129621E-4
1.474958208E0,-2.621542662E-3,-8.406098932E-4,-2.671712311E-3,3.836294774E-3
1.484914208E0,-1.209496986E-4,-1.214504242E-3,-1.310175750E-3,1.790589255E-3
1.494871208E0,1.650585094E-3,-4.736129194E-4,1.449753763E-4,1.723298643E-3
1.504828208E0,-1.497539924E-3,2.901256084E-4,-7.380737225E-5,1.527169350E-3
1.514785208E0,-3.776806407E-4,1.603064127E-3,2.346207155E-3,2.866556345E-3
1.524742208E0,-1.359713729E-3,-7.191579789E-4,8.473810740E-4,1.756150423E-3
1.534699208E0,8.826679550E-4,2.463052981E-3,-1.278886804E-3,2.912264439E-3
1.544656208E0,2.401861129E-4,-3.164310008E-3,-4.656387493E-3,5.634934932E-3
1.554613208E0,5.015172064E-7,-3.695888445E-4,-3.317350289E-3,3.337874938E-3
1.564569208E0,2.250408055E-3,1.601565629E-3,-1.411647070E-3,3.101950408E-3
1.574526208E0,-1.886013662E-3,-3.670435399E-4,2.554598730E-3,3.196520478E-3
1.584483208E0,-2.205383033E-3,1.899321564E-3,3.400088288E-3,4.475682863E-3
1.594440208E0,5.382057279E-4,1.148576848E-3,-1.037270878E-3,1.638543578E-3
1.604397208E0,-1.377952751E-3,-7.619494572E-4,-8.394677425E-4,1.784384165E-3
1.614354208E0,1.608217135E-4,1.554468647E-3,-2.807365963E-4,1.587781293E-3
1.624311208E0,-8.086930029E-5,4.086438566E-4,-2.166573424E-3,2.206257022E-3
1.634268208E0,-1.377029810E-3,4.880055785E-4,4.041758366E-4,1.515822763E-3
1.644224208E0,-1.720616827E-3,9.130686522E-5,3.116081469E-3,3.560733482E-3
1.654181208E0,-1.768287504E-3,2.398936078E-3,1.281163422E-3,3.243935067E-3
1.664138208E0,-1.185640926E-3,6.805500016E-4,-1.750066411E-3,2.220726267E-3
1.674095208E0,-2.569951816E-3,2.207339741E-3,2.971054055E-4,3.400775307E-3
1.684052208E0,-4.005131777E-4,1.505510882E-3,-2.206721343E-3,2.701220633E-3
1.694009208E0,-2.510801889E-3,1.747325994E-3,-9.142892668E-4,3.192678988E-3
1.703966208E0,-1.727091148E-5,1.322857104E-3,-2.380460501E-3,2.723387853E-3
1.713923208E0,-1.180273248E-3,2.018741332E-3,-5.047961022E-4,2.392316996E-3
1.723879208E0,-2.909551840E-4,-2.390055917E-3,1.838294556E-3,3.029248930E-3
1.733836208E0,-3.993457649E-4,-1.282180659E-3,2.324854024E-3,2.684848323E-3
1.743793208E0,-1.827918459E-4,-7.694736123E-4,-5.927451421E-4,9.883568700E-4
1.753750208E0,9.107020451E-4,-1.926084980E-3,-1.655346365E-3,2.698027641E-3
1.763707208E0,-2.349315910E-3,9.030289948E-5,-1.609417493E-3,2.849151545E-3
1.773664208E0,-4.459545016E-4,-1.184893772E-4,-1.172392746E-3,1.259928530E-3
1.783621208E0,1.625401317E-3,1.171579584E-3,-2.316596452E-3,3.062865862E-3
1.793578208E0,-2.368008485E-3,-3.181928769E-4,-1.227896195E-3,2.686343232E-3
1.803534208E0,2.318999264E-3,-3.491463140E-4,1.266233856E-3,2.665147072E-3
1.813491208E0,2.232712694E-3,-1.341173425E-3,5.732794525E-4,2.666908596E-3
1.823448208E0,-3.572290298E-4,-1.179711893E-3,1.798584359E-3,2.180421617E-3
1.833405208E0,-1.154141501E-4,1.134575345E-3,-4.850763362E-4,1.239306536E-3
1.843362208E0,3.588123946E-4,1.101452857E-3,1.506621018E-3,1.900487207E-3
1.853319208E0,8.317513857E-5,-9.651603177E-4,1.835627481E-4,9.859755702E-4
1.863276208E0,-1.618087059E-3,-1.362400129E-3,-2.480344847E-3,3.259823677E-3
1.873233208E0,-1.127000200E-3,9.577460587E-4,1.905394020E-4,1.491211664E-3
1.883189208E0,4.247969482E-4,-9.891567752E-4,5.801481893E-4,1.222888177E-3
1.893146208E0,6.423771847E-4,4.292428493E-4,2.152212197E-3,2.286682141E-3
1.903103208E0,-7.156636566E-4,1.583233476E-3,-1.121111796E-3,2.067775222E-3
1.913060208E0,-4.006116651E-4,3.951974213E-4,-1.720056636E-3,1.809769471E-3
1.923017208E0,1.202709158E-3,-7.195901126E-4,1.651289174E-3,2.165889006E-3
1.932974208E0,1.439197920E-3,-2.059160732E-3,-2.783140400E-3,3.749307144E-3
1.942931208E0,-1.672443468E-3,-4.725204781E-4,-3.207452595E-3,3.648026166E-3
1.952887208E0,-2.279449254E-4,1.386632212E-3,6.618540501E-4,1.553305689E-3
1.962844208E0,-5.797350314E-4,1.504290849E-4,-1.265530009E-4,6.121578867E-4
1.972801208E0,1.804859377E-3,-1.651732251E-3,-1.189953182E-3,2.720611214E-3
1.982758208E0,1.142997760E-3,-7.777428254E-4,-2.962757135E-3,3.269443014E-3
1.992715208E0,1.242333557E-3,-1.216631383E-3,-4.384618718E-3,4.716827948E-3
2.002672208E0,-1.030728687E-3,-3.726612777E-4,1.471431460E-3,1.834772083E-3
2.012629208E0,-5.787902046E-4,6.649456918E-5,-1.973633654E-3,2.057826385E-3
2.022586208E0,2.505696844E-3,-2.195797861E-4,-3.885260783E-3,4.628388846E-3
2.032542208E0,-1.030448359E-3,3.644516692E-4,-1.530760201E-3,1.880924143E-3
2.042499208E0,-1.413953956E-3,1.499364153E-4,7.170498138E-4,1.592453188E-3
2.052456208E0,1.093412284E-3,-1.856219023E-4,1.886710059E-3,2.188533929E-3
2.062413208E0,-3.161344212E-4,4.872996360E-4,1.752279466E-3,1.846045838E-3
2.072370208E0,-2.128681866E-3,1.426063478E-3,5.290895933E-4,2.616272029E-3
2.082327208E0,4.966345150E-4,3.023073077E-5,1.043141121E-3,1.155726238E-3
2.092284208E0,2.001054119E-3,3.634553403E-3,-1.544823754E-4,4.151874375E-3
2.102241208E0,-1.335585257E-3,1.658404246E-3,-5.133652594E-4,2.190350774E-3
2.112197208E0,-9.881309234E-5,-8.047530428E-4,-2.638301346E-3,2.760077079E-3
2.122154208E0,1.099231420E-3,-1.659418456E-3,-5.572010996E-4,2.066991145E-3
2.132111208E0,1.000960823E-3,6.399545819E-4,-9.135320433E-4,1.498667819E-3
2.142068208E0,4.349658266E-4,-6.035733968E-4,-1.905504614E-3,2.045591345E-3
2.152025208E0,-3.525309730E-4,2.041636035E-4,-3.457328537E-3,3.481247116E-3
2.161982208E0,-2.204370685E-4,3.025382757E-4,-4.057261627E-3,4.074493075E-3
2.171939208E0,1.491975505E-3,-7.861619815E-4,9.614654118E-4,1.941251479E-3
2.181896208E0,2.342541236E-3,-9.849928319E-4,1.256770920E-3,2.834992675E-3
2.191852208E0,1.184332650E-3,2.187555656E-4,1.812040107E-3,2.175772776E-3
2.201809208E0,9.744140552E-4,-2.427458763E-3,-6.065139896E-4,2.685125326E-3
2.211766208E0,-1.585416263E-3,-2.724286169E-4,-9.127774974E-4,1.849574232E-3
2.221723208E0,-1.479724189E-3,5.973586813E-4,-1.766829519E-3,2.380778784E-3
2.231680208E0,2.173067536E-3,4.455586895E-4,-2.842480317E-3,3.605612211E-3
2.241637208E0,-1.632766798E-4,-1.360405236E-3,-1.649874961E-3,2.144632619E-3
2.251594208E0,-2.381423488E-3,1.515542157E-3,2.332083415E-3,3.661510469E-3
2.261551208E0,2.388123656E-3,3.051776439E-4,3.732653800E-3,4.441730787E-3
2.271507208E0,5.497436505E-4,-3.012055531E-3,1.642871182E-3,3.474726223E-3
2.281464208E0,-1.374178100E-3,2.762908116E-4,-6.715364289E-4,1.554240406E-3
2.291421208E0,9.348988533E-5,1.406802796E-3,1.342878677E-3,1.947089522E-3
2.301378208E0,-1.694137231E-3,-1.970000565E-3,-1.341942116E-3,2.924348102E-3
2.311335208E0,-1.710915240E-3,2.803709358E-4,-2.917201724E-3,3.393509204E-3
2.321292208E0,-1.362662064E-3,-6.229607388E-4,-2.191602252E-4,1.514252022E-3
2.331249208E0,1.219538972E-3,-1.356661320E-3,1.037585549E-3,2.098663625E-3
2.341206208E0,1.511805458E-3,2.292245626E-4,-2.087742323E-4,1.543271306E-3
2.351162208E0,-9.204596281E-4,4.681097344E-4,-2.209340688E-3,2.438761761E-3
2.361119333E0,-1.350790029E-3,3.920532763E-4,-1.526371692E-3,2.075608349E-3
2.371076333E0,8.345998358E-4,-1.186402515E-3,-7.601802354E-4,1.637675732E-3
2.381033333E0,-6.230073050E-4,1.700524241E-3,1.186260022E-3,2.164978900E-3
2.390990333E0,-5.955768283E-4,-8.715568110E-4,-7.898055483E-4,1.318376212E-3
2.400947333E0,-4.906051327E-4,4.709241912E-4,2.333945595E-4,7.189826218E-4
2.410904333E0,1.816225005E-3,2.684277482E-3,2.405851847E-4,3.249907707E-3
2.420861333E0,5.597758573E-4,1.750939526E-3,-6.152723217E-4,1.938478337E-3
2.430817333E0,-4.955544136E-5,6.987247616E-4,-2.943940461E-3,3.026129123E-3
2.440774333E0,-2.812591381E-3,-1.190251671E-3,-4.686241737E-4,3.089818431E-3
2.450731333E0,-1.476217061E-3,3.128368407E-4,-8.992262883E-5,1.511677803E-3
2.460688333E0,7.770641241E-5,1.227017492E-4,2.617659746E-3,2.621685822E-3
2.470645333E0,1.433255384E-3,1.733023673E-4,2.109610941E-4,1.459026829E-3
2.480602333E0,-1.062208088E-3,2.155521885E-3,-1.607475919E-3,2.891113876E-3
2.490559333E0,-6.390318740E-4,1.060696319E-3,-1.691099140E-3,2.096009236E-3
2.500515333E0,-1.729090465E-3,1.527125947E-3,2.739184070E-3,3.581200478E-3
2.510472333E0,-1.010037027E-3,2.531936392E-3,-2.659268794E-4,2.738903758E-3
2.520429333E0,-2.118912525E-4,1.654079184E-3,-8.077512030E-5,1.669550978E-3
2.530386333E0,-1.093397615E-3,1.311330125E-3,1.285426551E-3,2.137153822E-3
2.540343333E0,-1.856759191E-4,-3.212968819E-3,8.078526007E-4,3.318172690E-3
2.550300333E0,-7.665113080E-4,2.957461402E-4,-3.434318933E-4,8.904778661E-4
2.560257333E0,-1.489561982E-3,-9.676031768E-4,1.807906665E-4,1.785423219E-3
2.570214333E0,3.301759716E-4,6.241677329E-4,-1.182481530E-3,1.377266895E-3
2.580170333E0,-1.417756779E-3,6.153220311E-4,1.740446547E-3,2.327618884E-3
2.590127333E0,8.760238998E-4,2.077397890E-3,4.400248872E-4,2.297089848E-3
2.600084333E0,1.769154333E-4,-5.078287795E-4,-4.754048772E-3,4.784367133E-3
2.610041333E0,5.215284182E-4,-5.315309390E-4,1.530919690E-4,7.602329782E-4
2.619998333E0,-9.865150787E-4,-8.349362761E-4,-9.324607672E-4,1.593679286E-3
2.629955333E0,3.429349745E-4,1.182090491E-4,5.240220344E-4,6.373200676E-4
2.639912333E0,6.385915913E-4,-9.907167405E-4,7.778530708E-4,1.412223169E-3
2.649869333E0,6.638915511E-4,2.209870145E-3,-1.746024704E-3,2.893592977E-3
2.659825333E0,3.190439427E-3,7.695928216E-4,4.845159128E-5,3.282304740E-3
2.669782333E0,-3.307920415E-4,1.548833214E-3,1.036841422E-5,1.583797715E-3
2.679739333E0,-1.421621302E-3,1.205575652E-3,9.251188021E-5,1.866273889E-3
2.689696333E0,1.169900643E-3,-9.830100462E-4,-2.742423210E-3,3.139404614E-3
2.699653333E0,-1.743329922E-4,-5.773212761E-4,-2.427617437E-4,6.500962330E-4
2.709610333E0,-7.309337379E-4,-4.225922748E-4,-3.338418319E-4,9.079089870E-4
2.719567333E0,-1.131364843E-3,-9.005619213E-4,6.131975679E-4,1.570671652E-3
2.729524333E0,-2.027252456E-3,-3.929622471E-5,1.226257300E-3,2.369599899E-3
2.739480333E0,4.194781650E-5,6.613135338E-4,3.693064209E-3,3.752041906E-3
2.749437333E0,5.258441670E-4,1.098072156E-3,-3.919587471E-4,1.279025491E-3
2.759394333E0,1.242193743E-3,-1.379881985E-3,-2.671850380E-3,3.253598629E-3
2.769351333E0,3.000412602E-3,-6.091631949E-4,-4.366685636E-3,5.333057193E-3
2.779308333E0,1.544443192E-3,-1.789659262E-3,1.038902439E-3,2.582150910E-3
2.789265333E0,1.843249891E-3,5.952008069E-4,7.715210086E-4,2.084964946E-3
2.799222333E0,-1.512094634E-3,-1.187482849E-3,7.134680636E-4,2.050751661E-3
2.809179333E0,2.975331619E-3,-3.033876419E-5,-5.006021820E-5,2.975907376E-3
2.819135333E0,1.566719497E-3,8.479887620E-4,-1.537300413E-3,2.353080424E-3
2.829092333E0,2.146223327E-3,-2.087613568E-3,-2.085112501E-3,3.648574944E-3
2.839049333E0,-2.903761342E-4,4.321895540E-5,-2.872137818E-3,2.887102670E-3
2.849006333E0,3.498477163E-4,-6.863381714E-5,-3.200771986E-3,3.220565995E-3
2.858963333E0,-3.494718112E-5,-9.552361444E-4,-1.187548973E-3,1.524457267E-3
2.868920333E0,-1.917269314E-3,4.165582359E-4,3.073508851E-3,3.646354213E-3
2.878877333E0,-3.888348583E-4,-9.573381394E-4,5.204285262E-4,1.156950609E-3
2.888833333E0,6.093177944E-4,1.319398172E-3,-1.912901760E-3,2.402347364E-3
2.898790333E0,6.551673869E-4,-2.028322779E-3,-1.141114277E-3,2.417742623E-3
2.908747333E0,8.818041533E-5,-8.112583309E-4,2.767527476E-4,8.616890091E-4
2.918704333E0,-2.119436394E-3,1.831890084E-3,1.243003178E-3,3.064782017E-3
2.928661333E0,2.369283466E-4,7.024435326E-4,-1.072881743E-3,1.304084811E-3
2.938618333E0,1.333834953E-3,-5.665514618E-4,-3.338529728E-3,3.639488561E-3
2.948575333E0,-1.072330982E-3,1.806324348E-3,2.380076097E-3,3.174502105E-3
2.958532333E0,-3.039418254E-3,-3.199297935E-4,-1.948351273E-4,3.062413937E-3
2.968488333E0,-1.059358241E-3,-3.348439932E-4,-7.453105063E-4,1.337852060E-3
2.978445333E0,2.160629258E-3,5.849944428E-4,-1.945761964E-3,2.965893947E-3
2.988402333E0,9.510214441E-4,1.607527956E-4,2.735276241E-3,2.900348145E-3
2.998359333E0,1.629694598E-3,3.779205494E-3,3.173553851E-4,4.127833946E-3
3.008316333E0,5.519132828E-4,-1.617157832E-3,-2.169504296E-3,2.761622099E-3
3.018273333E0,1.023350982E-3,-2.370942384E-3,-6.538724410E-4,2.663862645E-3
3.028230333E0,1.243061735E-3,1.619905233E-4,2.529339399E-4,1.278835011E-3
3.038187333E0,-1.584140118E-4,-6.287144497E-4,6.873712409E-4,9.449106208E-4
3.048143333E0,-2.953934483E-3,-2.966187894E-4,-2.194968052E-3,3.692099184E-3
3.058100333E0,1.973114908E-3,-5.915416405E-4,-7.658710238E-4,2.197649284E-3
3.068057333E0,1.155790756E-3,-8.320249617E-4,1.389158890E-3,1.989442191E-3
3.078014333E0,9.592543356E-4,1.385136507E-3,1.683487091E-3,2.381785215E-3
3.087971333E0,-1.812031027E-3,-6.897374988E-6,2.562990412E-4,1.830080112E-3
3.097928333E0,-2.635208657E-4,1.574422233E-3,-3.953831038E-5,1.596813042E-3
3.107885333E0,5.604613107E-4,-3.073671833E-4,8.014879422E-4,1.025170419E-3
3.117842333E0,6.757385563E-5,-9.494340047E-4,-6.698887446E-4,1.163933884E-3
3.127798333E0,-1.870142296E-3,-1.362224109E-3,6.001727888E-4,2.390249800E-3
3.137755333E0,1.617359230E-4,-5.946308374E-5,2.518622205E-4,3.051703544E-4
3.147712333E0,-6.393429358E-4,8.414844051E-4,4.558603978E-4,1.150940527E-3
3.157669333E0,-1.431120792E-3,2.459278330E-4,2.577729989E-3,2.958594112E-3
3.167626333E0,-7.853042334E-4,-2.331752330E-5,-9.208647534E-4,1.210470297E-3
3.177583333E0,1.288854750E-3,-2.716388553E-4,-3.582286416E-3,3.816766982E-3
3.187540333E0,2.025751397E-3,-3.427453339E-4,9.496146813E-4,2.263384883E-3
3.197496333E0,-4.074543249E-4,-1.785841770E-3,2.063761931E-3,2.759413554E-3
3.207453333E0,-1.440228196E-3,1.659896225E-4,3.169947304E-4,1.484013298E-3
3.217410333E0,-2.789475722E-3,-1.283771358E-3,-1.488258946E-3,3.412353791E-3
3.227367333E0,1.635898952E-3,-7.309857756E-5,-3.625407116E-4,1.677183518E-3
3.237324333E0,2.198765520E-3,-8.152127266E-4,-1.974113518E-3,3.065332900E-3
3.247281333E0,-1.084912103E-3,2.430382185E-3,-1.130424091E-3,2.891651856E-3
3.257238333E0,3.085170174E-4,-2.108886838E-4,5.987840705E-4,7.058322393E-4
3.267195333E0,-2.692332957E-3,3.545004874E-4,7.090390427E-4,2.806610716E-3
3.277151333E0,-1.755764242E-4,1.437403262E-5,2.234394662E-3,2.241328445E-3
3.287108333E0,-8.586770855E-4,-7.914993912E-4,9.012162918E-4,1.475123191E-3
3.297065333E0,1.788963564E-4,-1.678955741E-3,-4.508370766E-4,1.747612759E-3
3.307022333E0,-4.991444293E-4,1.459047198E-3,-1.917972462E-3,2.461012445E-3
3.316979333E0,2.034017118E-3,-7.627271116E-4,1.372491475E-3,2.569574115E-3
3.326936333E0,-5.709682591E-5,-1.690040343E-3,-3.231847659E-3,3.647510890E-3
3.336893333E0,-1.240429236E-3,-2.116858959E-3,-3.966809250E-3,4.664261160E-3
3.346850333E0,-1.205541892E-3,1.084527001E-3,-2.228297759E-3,2.755873903E-3
3.356806333E0,-7.553477772E-4,3.152750432E-4,1.432422316E-3,1.649782503E-3
3.366763083E0,1.152395271E-4,2.702679485E-4,2.008197829E-3,2.029577156E-3
3.376720083E0,-5.972816143E-4,5.299476907E-4,-1.169394818E-4,8.070097422E-4
3.386677083E0,-6.382942665E-4,8.231615648E-4,2.056998899E-3,2.305701413E-3
3.396634083E0,-8.102660067E-4,-8.808458224E-4,7.971770829E-4,1.438023528E-3
3.406591083E0,-2.646515379E-3,-2.786337398E-3,-5.245801527E-3,6.502780437E-3
3.416548083E0,-8.668517694E-5,2.304460853E-3,-2.141891513E-3,3.147340687E-3
3.426505083E0,6.848324556E-4,7.718112320E-4,-1.463051885E-3,1.790309719E-3
3.436461083E0,-6.809469778E-5,-6.973110139E-4,2.453083172E-3,2.551175531E-3
3.446418083E0,-2.313464647E-4,1.213438809E-4,1.299135620E-3,1.325141080E-3
3.456375083E0,-4.721006844E-4,2.544140443E-4,1.621209085E-3,1.707607818E-3
3.466332083E0,3.135151230E-3,-6.641102955E-4,1.077924157E-3,3.381144215E-3
3.476289083E0,3.584248479E-4,-1.219675876E-3,-4.460430937E-4,1.347231256E-3
3.486246083E0,-1.582284458E-4,-1.147770323E-3,-3.068724182E-3,3.280164791E-3
3.496203083E0,-6.870093057E-4,1.835301518E-4,-1.926016062E-3,2.053095949E-3
3.506160083E0,2.016099170E-3,7.473221049E-4,-1.703908434E-3,2.743437651E-3
3.516116083E0,-1.370899845E-3,1.382246614E-3,2.359011211E-3,3.058579078E-3
3.526073083E0,-2.416989533E-3,2.026998438E-3,1.023435965E-3,3.316320589E-3
3.536030083E0,2.590758959E-4,1.124044880E-3,-4.011009587E-4,1.221261312E-3
3.545987083E0,-2.605067566E-4,2.233637497E-4,8.194257971E-4,8.883770437E-4
3.555944083E0,-2.202773001E-3,-6.030648947E-4,2.977836877E-3,3.752786782E-3
3.565901083E0,6.153840804E-4,-1.090156846E-3,6.864531897E-4,1.427710579E-3
3.575858083E0,-1.332630520E-3,-7.584178820E-4,1.144611044E-3,1.913435713E-3
3.585815083E0,-3.611092689E-4,-2.939617261E-4,6.266263081E-4,7.806881134E-4
3.595771083E0,-2.059621736E-3,-1.457054168E-4,8.686026558E-4,2.240031772E-3
3.605728083E0,9.990190156E-4,1.419167966E-3,-6.957381265E-4,1.869793638E-3
3.615685083E0,5.037110532E-4,8.758455515E-4,-2.567738062E-3,2.759367502E-3
3.625642083E0,1.791349496E-3,-9.940471500E-5,4.552160390E-4,1.850955417E-3
3.635599083E0,7.386977086E-4,5.935542285E-4,-5.903595593E-5,9.494557236E-4
3.645556083E0,1.788782189E-3,7.895622402E-4,1.621418633E-3,2.540107996E-3
3.655513083E0,1.157843508E-5,-6.877668202E-4,1.146343071E-3,1.336884324E-3
3.665469083E0,-1.584187616E-3,1.645960845E-3,-1.071537379E-3,2.523297418E-3
3.675426083E0,-4.471095745E-4,-1.694522798E-4,4.521928495E-4,6.581028946E-4
3.685383083E0,1.179815503E-3,1.561069861E-3,6.239666836E-4,2.053834987E-3
3.695340083E0,-2.720035845E-3,1.459663734E-3,8.346090326E-4,3.197778206E-3
3.705297083E0,-1.224937150E-3,-2.599395812E-4,-2.271435689E-3,2.593734701E-3
3.715254083E0,-8.684222121E-4,7.161824033E-4,1.935495762E-3,2.239021710E-3
3.725211083E0,-6.223460659E-4,9.822323918E-4,-7.473726291E-4,1.382266597E-3
3.735168083E0,1.912401523E-3,5.320133641E-4,-2.638894133E-3,3.302132652E-3
3.745124083E0,-1.400837209E-3,2.316065133E-3,-2.958739642E-3,4.010067687E-3
3.755081083E0,5.689667305E-4,4.846202210E-4,-6.448351196E-4,9.871130789E-4
3.765038083E0,7.351479726E-4,-6.560124457E-4,1.092877472E-3,1.471453716E-3
3.774995083E0,1.790762763E-3,8.992096409E-4,5.910275504E-4,2.089191905E-3
3.784952083E0,1.150272554E-3,2.774607390E-3,-7.917406037E-6,3.003603803E-3
3.794909083E0,7.512705633E-4,-2.307398245E-4,-1.006856677E-3,1.277266102E-3
3.804866083E0,5.443430273E-4,1.762104221E-3,-1.636998495E-4,1.851517825E-3
3.814823083E0,-7.474890444E-4,1.573434100E-3,-5.473748315E-4,1.825939195E-3
3.824779083E0,2.006485825E-3,2.906657755E-5,-1.267493586E-3,2.373472187E-3
3.834736083E0,1.100236317E-3,-3.212932497E-4,-4.890744458E-4,1.246171384E-3
3.844693083E0,-3.556567011E-3,-1.384960487E-3,-1.242482685E-3,4.013856958E-3
3.854650083E0,1.105552190E-3,5.781957880E-4,6.851434009E-4,1.423368362E-3
3.864607083E0,1.027521561E-3,1.098843291E-3,-1.524747582E-3,2.141987938E-3
3.874564083E0,1.548372209E-3,-2.977035008E-3,-1.539960736E-3,3.692109561E-3
3.884521083E0,1.945982222E-3,-1.266752370E-3,-3.311519395E-4,2.345457307E-3
3.894478083E0,-6.473902613E-4,-1.071321778E-3,-3.210935276E-3,3.446295090E-3
3.904434083E0,2.445871243E-3,-1.643635333E-3,-2.681765240E-3,3.984430705E-3
3.914391083E0,-1.086506294E-3,6.033079699E-4,-2.049742965E-3,2.397065426E-3
3.924348083E0,1.126047806E-3,2.802666277E-4,1.020082855E-3,1.545024943E-3
3.934305083E0,-1.049751183E-3,1.124909148E-3,2.456318587E-3,2.898430461E-3
3.944262083E0,-1.264333259E-4,8.721752092E-4,-6.912715035E-4,1.120058602E-3
3.954219083E0,-3.240713617E-3,1.758491620E-3,-3.812461509E-4,3.706732544E-3
3.964176083E0,2.360180719E-3,8.005527779E-4,-8.968341281E-4,2.648707086E-3
3.974133083E0,2.335266443E-3,6.332872435E-4,1.315930858E-3,2.754305015E-3
3.984089083E0,2.534734085E-4,-1.205093227E-3,-2.226606011E-3,2.544459232E-3
3.994046083E0,8.493126370E-5,-1.044768840E-3,-3.590285545E-3,3.740174534E-3
4.004003083E0,8.958637482E-4,2.351459116E-4,3.053864930E-4,9.752570764E-4
4.013960083E0,-7.140757516E-4,5.406327546E-4,-3.813267103E-4,9.734464620E-4
4.023917083E0,2.180514159E-3,-1.009227708E-4,-4.871416371E-3,5.338119975E-3
4.033874083E0,-8.191438392E-4,-1.159850508E-3,-2.504822798E-3,2.879303228E-3
4.043831083E0,6.466599880E-4,1.282534562E-3,3.402320435E-4,1.476083292E-3
4.053787083E0,-8.703959174E-4,7.053231820E-4,1.911855070E-3,2.215910570E-3
4.063744083E0,1.307004597E-3,6.632450968E-4,2.519588452E-3,2.914872389E-3
4.073701083E0,1.204047585E-3,-1.695657149E-3,1.543795690E-3,2.590036464E-3
4.083658083E0,-1.029812032E-3,2.978190780E-3,-9.055136470E-4,3.278732698E-3
4.093615083E0,1.155480626E-3,3.923047334E-4,-1.495589036E-3,1.930239635E-3
4.103572083E0,-1.958073117E-4,2.721967176E-4,-1.558972290E-3,1.594624143E-3
4.113529083E0,-1.843306236E-4,-7.087662816E-4,-7.972183521E-4,1.082536153E-3
4.123486083E0,4.218049580E-4,-1.563906670E-3,-7.673909422E-4,1.792376175E-3
4.133442083E0,8.189638611E-4,-9.856242687E-4,1.979270950E-3,2.357895354E-3
4.143399083E0,4.714212846E-4,8.383747190E-4,1.224264735E-3,1.556898950E-3
4.153356083E0,-4.823624622E-4,1.699334942E-3,-1.733671641E-3,2.475081847E-3
4.163313083E0,2.488659928E-3,2.183496952E-3,-2.393070376E-3,4.085079313E-3
4.173270083E0,-5.861108657E-4,-1.080137677E-3,5.774287274E-4,1.357809738E-3
4.183227083E0,4.879420158E-4,2.247216180E-3,2.459218260E-3,3.366871310E-3
4.193184083E0,4.591983743E-4,-1.007095911E-3,1.006444683E-3,1.496006758E-3
4.203141083E0,-3.120531328E-4,7.018549368E-4,2.249075798E-3,2.376619334E-3
4.213097083E0,6.071444368E-4,2.276711166E-4,3.059641458E-3,3.127597218E-3
4.223054083E0,1.538984478E-3,6.593698636E-4,-1.152680255E-3,2.032710902E-3
4.233011083E0,-2.139568329E-3,1.261419617E-3,-2.080956474E-3,3.240264176E-3
4.242968083E0,-5.094474182E-4,-6.999988109E-4,-1.918237424E-3,2.104559294E-3
4.252925083E0,-1.637904206E-3,8.568074554E-5,2.804001793E-3,3.248460779E-3
4.262882083E0,-4.639828112E-4,6.896853447E-4,1.152841840E-3,1.421263604E-3
4.272839083E0,-1.740884967E-3,1.166782342E-3,3.665278200E-3,4.222123374E-3
4.282796083E0,-1.061246265E-3,6.661079824E-4,-1.254911767E-3,1.773343459E-3
4.292752083E0,2.811104059E-4,1.918133348E-4,3.910728265E-4,5.184142854E-4
4.302709083E0,-5.671065301E-4,5.627917126E-4,2.898726379E-4,8.499238051E-4
4.312666083E0,-9.487983771E-4,-8.463021368E-5,-9.346825536E-4,1.334545657E-3
4.322623083E0,1.813165843E-3,1.306604594E-3,2.810504520E-4,2.252504228E-3
4.332580083E0,2.050806303E-3,8.435845375E-4,1.079356764E-3,2.466262838E-3
4.342537083E0,4.465181846E-4,2.652936615E-3,1.383223571E-3,3.025022086E-3
4.352494083E0,-5.696478765E-4,-6.489604712E-4,1.469586277E-5,8.636343930E-4
4.362452333E0,-1.661810325E-3,-1.903632656E-4,-1.087320154E-3,1.995023019E-3
4.372408333E0,-8.222032338E-4,8.571362123E-4,1.132255187E-3,1.640945597E-3
4.382365333E0,1.078494824E-3,-1.000035554E-4,1.671279082E-3,1.991563599E-3
4.392322333E0,-2.164092846E-3,5.227522925E-4,-1.160515938E-3,2.510650324E-3
4.402279333E0,-2.282413188E-4,-1.986744814E-3,-9.695672779E-4,2.222455795E-3
4.412236333E0,-2.353754826E-4,2.609398216E-4,1.239934703E-3,1.288770452E-3
4.422193333E0,2.440036042E-3,6.076833233E-4,-4.748748033E-4,2.559015628E-3
4.432150333E0,1.501844730E-3,1.178635284E-4,-3.736513667E-3,4.028767031E-3
4.442107333E0,1.197445439E-3,-1.458461396E-3,1.556785312E-3,2.446337207E-3
4.452063333E0,-1.256219111E-4,-1.895650290E-3,5.480520194E-4,1.977278914E-3
4.462020333E0,2.669279929E-4,-1.981509849E-4,2.543824958E-3,2.565455083E-3
4.471977333E0,-2.060471568E-3,1.437654719E-4,-6.144208601E-4,2.154930298E-3
4.481934333E0,-2.668325324E-4,9.158160537E-4,-1.180076506E-4,9.611682736E-4
4.491891333E0,-2.855381928E-3,-1.965173520E-3,1.882767305E-3,3.944607160E-3
4.501848333E0,1.045616227E-3,4.498008639E-5,2.707015490E-3,2.902286920E-3
4.511805333E0,1.355963293E-3,1.249465160E-3,-1.903238590E-4,1.853651211E-3
4.521761333E0,2.422293182E-4,-1.236596145E-3,1.500281505E-4,1.268997050E-3
4.531718333E0,4.625422880E-3,-3.373062238E-3,-2.442327561E-3,6.223909511E-3
4.541675333E0,-1.362161944E-3,2.475239336E-3,-5.506997695E-5,2.825832202E-3
4.551632333E0,1.298268558E-3,1.708225347E-3,-1.108006341E-3,2.414790496E-3
4.561589333E0,-6.548936944E-4,7.691942155E-4,-1.577521674E-3,1.873264564E-3
4.571546333E0,-7.431271952E-4,1.248545013E-3,-6.438590935E-4,1.589231642E-3
4.581503333E0,-1.467506867E-3,1.589429565E-3,-1.923774253E-3,2.894955979E-3
4.591460333E0,-2.619495848E-3,-8.945520967E-4,-8.694105200E-4,2.901354271E-3
4.601416333E0,-1.347569982E-3,-3.573931754E-4,7.993262261E-4,1.607046095E-3
4.611373333E0,1.553199138E-3,-2.800943330E-4,6.169478875E-4,1.694551590E-3
4.621330333E0,-5.610843655E-4,1.645104960E-3,1.207636902E-3,2.116500149E-3
4.631287333E0,-6.276287604E-4,-3.925915807E-4,-5.744249793E-4,9.370219138E-4
4.641244333E0,6.853097584E-4,2.561546862E-4,-7.323504542E-4,1.035182050E-3
4.651201333E0,8.736614836E-4,-1.300872304E-3,-6.956869038E-5,1.568563974E-3
4.661158333E0,-3.175704041E-4,-2.728914842E-4,2.688933630E-3,2.721338786E-3
4.671115333E0,-2.707936801E-4,8.042128757E-4,1.256510150E-3,1.516214141E-3
4.681071333E0,1.889296342E-3,1.472133212E-3,-1.652460545E-3,2.909852696E-3
4.691028333E0,8.844037075E-5,2.710232511E-4,-2.129214816E-3,2.148215779E-3
4.700985333E0,-1.573694171E-4,7.767789066E-5,-6.857814151E-4,7.078807367E-4
4.710942333E0,2.868988318E-3,-2.125346102E-3,-2.128922613E-3,4.156982261E-3
4.720899333E0,4.220758565E-4,6.720386446E-4,-1.791233895E-3,1.959158706E-3
4.730856333E0,1.392517122E-3,-1.253412105E-3,-1.183263725E-3,2.215910396E-3
4.740813333E0,-2.824332099E-3,5.852337927E-4,-2.718309872E-3,3.963402447E-3
4.750770333E0,2.265414223E-3,-4.781577736E-4,-1.852747286E-3,2.965368268E-3
4.760726333E0,3.343559802E-4,-2.286710776E-3,-1.651412342E-3,2.840423000E-3
4.770683333E0,-2.810135949E-3,2.562319860E-4,2.467420883E-3,3.748424296E-3
4.780640333E0,-1.135007478E-3,-9.525772184E-4,5.111407023E-3,5.321853727E-3
4.790597333E0,-2.131901216E-3,3.238786012E-4,7.102566306E-4,2.270322581E-3
4.800554333E0,3.262065351E-3,-1.303578727E-3,-3.376364009E-3,4.872393845E-3
4.810511333E0,3.002576763E-3,-4.365087487E-3,-4.389034584E-3,6.879904110E-3
4.820468333E0,-1.426526345E-3,-7.802061737E-4,2.018264728E-3,2.591735248E-3
4.830425333E0,-2.733804286E-5,-4.523424432E-4,1.294661546E-3,1.371681294E-3
4.840381333E0,-2.953885589E-3,1.115460880E-3,5.279374309E-4,3.201313946E-3
4.850338333E0,-6.034827093E-4,-1.647992991E-3,8.553566877E-4,1.952359429E-3
4.860295333E0,1.140355249E-3,3.586988896E-4,1.683067065E-3,2.064410262E-3
4.870252333E0,-1.751233358E-4,1.633413136E-3,-3.426656593E-3,3.800089744E-3
4.880209333E0,1.849677879E-3,-2.224974334E-3,-1.304649864E-3,3.173945544E-3
4.890166333E0,1.580491196E-3,-4.953658208E-4,-2.937931335E-3,3.372651812E-3
4.900123333E0,9.184294031E-4,1.408625394E-4,4.916875623E-4,1.051242828E-3
4.910079333E0,2.609886928E-3,-9.397566319E-4,2.317734528E-3,3.614767717E-3
4.920036333E0,1.134397462E-4,4.994161427E-4,8.404790424E-4,9.842205445E-4
4.929993333E0,1.014379784E-3,-3.128228709E-4,-1.805780339E-4,1.076769670E-3
4.939950333E0,6.905393675E-4,7.873289287E-4,-6.919049774E-4,1.255174871E-3
4.949907333E0,-2.627687063E-3,3.445328213E-3,-9.491255623E-4,4.435748542E-3
4.959864333E0,1.491956646E-3,-2.024322748E-5,-3.246142878E-4,1.526996679E-3
4.969821333E0,9.277880308E-4,1.493373886E-3,-7.593918126E-4,1.915106294E-3
4.979778333E0,1.652700477E-3,1.958361827E-3,2.354908735E-3,3.480257901E-3
4.989734333E0,-6.031261291E-4,-5.647651851E-4,-3.358424874E-5,8.269514760E-4
4.999691333E0,9.090167005E-4,-2.820995636E-3,-2.602192690E-4,2.975238110E-3
5.009648333E0,1.030155225E-3,-2.586944029E-4,-1.330369734E-3,1.702359013E-3
5.019605333E0,-2.723968355E-4,-1.191450283E-4,-1.090152655E-3,1.129968311E-3
5.029562333E0,-6.470526569E-4,-1.113608479E-3,3.614218440E-4,1.337694560E-3
5.039519333E0,-1.343942713E-4,1.625186764E-3,-2.601078479E-3,3.070000503E-3
5.049476333E0,-2.592995297E-4,-1.675328240E-4,1.608343562E-3,1.637703425E-3
5.059433333E0,-2.847625874E-3,-1.205367036E-3,3.071750514E-3,4.358616068E-3
5.069389333E0,3.088986268E-4,-1.061437652E-3,1.990864053E-3,2.277192993E-3
5.079346333E0,3.288723528E-4,7.812036201E-4,-1.546612941E-3,1.763646141E-3
5.089303333E0,-1.767918933E-3,5.915919319E-4,4.388353555E-4,1.915227098E-3
5.099260333E0,6.363828434E-4,-8.433191106E-4,1.511556562E-3,1.844172846E-3
5.109217333E0,9.624263039E-4,-1.988988370E-4,1.290440792E-3,1.622055047E-3
5.119174333E0,1.134105260E-4,1.271432266E-3,-4.928117851E-4,1.368307498E-3
5.129131333E0,-1.779641141E-3,-9.731203318E-4,-2.463214565E-3,3.190848126E-3
5.139088333E0,-1.873117988E-3,9.515462443E-4,1.875074580E-3,2.816010642E-3
5.149044333E0,-2.705084626E-4,4.730056971E-4,6.514898269E-5,5.487746421E-4
5.159001333E0,4.085976398E-4,-3.336658701E-4,-1.785747940E-3,1.862036694E-3
5.168958333E0,1.166528091E-3,5.441922694E-4,8.076560916E-4,1.519618826E-3
5.178915333E0,7.332317764E-4,-1.370087266E-3,8.992687799E-4,1.795397531E-3
5.188872333E0,1.876716386E-3,-1.491457224E-3,7.451613201E-4,2.510333531E-3
5.198829333E0,6.450043293E-4,2.319792286E-3,-3.210165538E-3,4.012808195E-3
5.208786333E0,2.513652435E-4,1.680396497E-3,1.072153333E-3,2.009086768E-3
5.218743333E0,2.095337957E-3,-1.991836354E-3,4.934484605E-4,2.932804903E-3
5.228699333E0,-6.918192375E-4,-4.166131839E-4,1.385506475E-4,8.193757895E-4
5.238656333E0,1.540442347E-3,1.036407426E-3,6.003427552E-4,1.951285320E-3
5.248613333E0,-2.957213670E-3,-1.171357930E-3,1.965033589E-4,3.186817481E-3
5.258570333E0,-1.636552392E-3,-3.508375958E-4,6.600841880E-5,1.675036674E-3
5.268527333E0,-1.956861233E-4,5.811732262E-4,2.345126588E-3,2.423978979E-3
5.278484333E0,2.629661467E-3,-3.147143871E-4,7.634750800E-4,2.756276251E-3
5.288441333E0,-4.511819221E-3,-1.801999286E-3,-6.561675109E-4,4.902475896E-3
5.298398333E0,2.958880272E-3,1.524947584E-4,-2.879640553E-3,4.131653038E-3
5.308354333E0,-2.627087291E-3,5.437787622E-4,-3.797270474E-4,2.709515752E-3
5.318311333E0,1.901618089E-3,9.629605338E-4,-5.991715007E-4,2.214147879E-3
5.328268333E0,1.482955646E-3,-3.443192691E-4,-8.812364540E-4,1.759059662E-3
5.338225333E0,-1.016154652E-3,5.371868610E-4,1.392304199E-3,1.805450355E-3
5.348182333E0,-2.080071485E-3,-2.830981277E-3,3.892146051E-3,5.243086234E-3
5.358139333E0,-3.663273528E-4,3.269948065E-4,1.657221233E-3,1.728439629E-3
5.368095333E0,1.595845679E-4,9.468691424E-4,-3.007022198E-3,3.156613836E-3
5.378052333E0,7.561326493E-4,1.110919751E-3,-3.190936695E-4,1.381195152E-3
5.388008333E0,4.088095156E-4,-8.980138227E-4,2.016018378E-3,2.244523144E-3
5.397965333E0,-1.317451475E-3,2.564657480E-4,2.055433113E-3,2.454843855E-3
5.407922333E0,1.219247002E-3,-3.539081663E-4,1.535720658E-3,1.992549166E-3
5.417879333E0,2.060539555E-3,3.883149475E-4,-4.720363941E-4,2.149285954E-3
5.427836333E0,1.156859798E-4,8.903071284E-5,-2.182178432E-4,2.625428362E-4
5.437793333E0,-5.741952918E-5,1.169936731E-4,-2.016916871E-3,2.021123001E-3
5.447750333E0,-9.614822920E-4,-1.327990554E-3,-5.177375278E-4,1.719319417E-3
5.457706333E0,1.358663547E-3,-6.113341078E-4,-8.101526182E-4,1.695890117E-3
5.467663333E0,1.194988145E-3,9.318441153E-5,1.686623553E-3,2.069149344E-3
5.477620333E0,-6.436583353E-4,-1.231205650E-3,1.282089390E-3,1.890480523E-3
5.487577333E0,-5.927396705E-4,-1.002588309E-3,7.026171079E-4,1.360218525E-3
5.497534333E0,7.324493490E-4,-5.639651790E-4,-8.872901089E-4,1.281336220E-3
5.507491333E0,-2.046546433E-4,-4.944484681E-5,1.599515090E-4,2.644102894E-4
5.517448333E0,-1.659805886E-3,-1.062777825E-3,-1.049082493E-5,1.970929309E-3
5.527405333E0,-4.280234221E-3,4.482930526E-4,4.944159882E-4,4.331953234E-3
5.537361333E0,-1.634117216E-3,2.749796957E-3,-2.678473946E-3,4.172043271E-3
5.547318333E0,-2.930471674E-4,2.827728167E-4,-3.926819190E-3,3.947878679E-3
5.557275333E0,2.289952710E-3,-8.338904008E-4,-5.108464044E-3,5.660005433E-3
5.567232333E0,-2.196900547E-3,-3.267042339E-4,-1.724247471E-3,2.811785378E-3
5.577189333E0,-8.874246851E-5,-3.133891150E-4,2.242797287E-3,2.266324698E-3
5.587146333E0,1.731139142E-3,-1.327805221E-3,4.812723957E-3,5.284148117E-3
5.597103333E0,6.424388848E-4,5.076453090E-4,2.406824147E-3,2.542289117E-3
5.607060333E0,4.209380131E-4,-9.636394680E-5,2.632390242E-3,2.667574405E-3
5.617016333E0,1.072176965E-4,-1.336065121E-3,-5.295307841E-3,5.462311853E-3
5.626973333E0,-2.647434128E-3,-2.186071128E-3,-2.951603848E-3,4.527668243E-3
5.636930333E0,7.012245478E-4,-7.801884785E-4,-9.102908080E-4,1.388898586E-3
5.646887333E0,-1.888579689E-3,-1.158891246E-4,2.003250411E-3,2.755571763E-3
5.656844333E0,2.574611921E-3,-1.486618072E-3,-1.663123490E-3,3.406558319E-3
5.666801333E0,-2.037789905E-3,3.361543640E-4,1.027880353E-3,2.306973228E-3
5.676758333E0,-1.069981372E-4,-2.066604793E-6,-6.067678914E-4,6.161332212E-4
5.686715333E0,6.104814820E-4,3.357138485E-5,-9.487484931E-4,1.128688788E-3
5.696671333E0,-2.959219273E-3,3.004195169E-4,-3.304847050E-3,4.446261870E-3
5.706628333E0,-1.868265681E-4,-7.446017116E-5,-9.498805739E-4,9.709385090E-4
5.716585333E0,-3.156517167E-3,6.171632558E-4,1.539908582E-3,3.565923380E-3
5.726542333E0,4.635207588E-4,-1.331390813E-4,5.007355474E-3,5.030525455E-3
5.736499333E0,-3.014035057E-3,1.768624410E-3,1.907169819E-3,3.981172735E-3
5.746456333E0,9.611750720E-4,-4.715546966E-4,-1.316757407E-3,1.697077317E-3
5.756413333E0,-7.632216439E-4,6.467066705E-4,1.338664442E-4,1.009285401E-3
5.766370333E0,-3.456075210E-4,8.599320427E-4,-9.051471134E-4,1.295460912E-3
5.776326333E0,6.099346792E-4,3.094570711E-4,-2.742442884E-4,7.368812126E-4
5.786283333E0,-9.040578734E-4,-1.383000053E-3,-7.314036484E-4,1.806920331E-3
5.796240333E0,5.284564104E-4,3.632344306E-4,3.025517566E-3,3.092727271E-3
5.806197333E0,-1.608220628E-4,2.158078365E-3,1.563209575E-3,2.669604866E-3
5.816154333E0,-2.248740289E-3,1.670453697E-3,-8.522776188E-4,2.928075406E-3
5.826111333E0,-3.469799412E-4,3.926521167E-4,-3.527028952E-3,3.565740315E-3
5.836068333E0,-1.710252254E-3,-6.478447467E-4,1.154808211E-3,2.162925702E-3
5.846025333E0,-7.234157529E-4,-1.009987667E-3,7.532393793E-4,1.452850647E-3
5.855981333E0,-1.532329479E-4,-2.189767547E-3,1.433755388E-4,2.199799716E-3
5.865938333E0,-1.827747910E-3,-8.295439184E-4,-5.364195677E-4,2.077631221E-3
5.875895333E0,-7.739349967E-4,2.450421453E-4,-2.410750021E-4,8.468401199E-4
5.885852333E0,-1.367360121E-3,-1.235196367E-3,-5.174100515E-4,1.913921870E-3
5.895809333E0,-3.231347073E-4,-1.203770749E-3,-1.194119221E-3,1.726094079E-3
5.905766333E0,-6.375473458E-4,8.038263768E-4,-2.918914543E-4,1.066678997E-3
5.915723333E0,-2.974471310E-3,-1.929951832E-4,9.424836608E-4,3.126180124E-3
5.925679333E0,2.065869048E-4,2.761144191E-3,1.563000726E-3,3.179554475E-3
5.935636333E0,1.059863716E-3,-1.382390037E-4,-3.259794030E-4,1.117445162E-3
5.945593333E0,8.920659893E-4,7.099471986E-5,-1.358409645E-3,1.626683357E-3
5.955550333E0,1.365575939E-3,4.619462416E-4,8.991520153E-4,1.699019224E-3
5.965507333E0,-2.670481335E-4,1.750044525E-3,3.084869822E-3,3.556739007E-3
5.975464333E0,8.369027637E-5,-1.240214333E-4,-1.059008762E-3,1.069525566E-3
5.985421333E0,-1.426841598E-3,5.611097440E-4,-1.880372874E-3,2.426215827E-3
5.995378333E0,1.947916229E-3,1.520380378E-3,-2.385840751E-3,3.434846462E-3
6.005334333E0,2.021487569E-3,1.581641845E-3,1.655829605E-3,3.054467973E-3
6.015291333E0,5.900417455E-5,-1.065273769E-3,-3.149096447E-4,1.112410797E-3
6.025248333E0,-2.814469161E-3,5.166362971E-4,-1.502570580E-3,3.232006817E-3
6.035205333E0,1.749922871E-3,5.169026554E-4,1.264719991E-3,2.220120507E-3
6.045162333E0,-2.746940590E-4,-8.585900068E-4,-6.686375709E-4,1.122367955E-3
6.055119333E0,1.296837348E-3,9.536910802E-4,-2.968543442E-3,3.376916338E-3
6.065076333E0,-2.729692962E-3,-4.127915949E-3,-1.046414953E-3,5.058250488E-3
6.075033333E0,9.771611076E-4,5.810847506E-4,6.420291029E-4,1.305643399E-3
6.084989333E0,-7.533176104E-4,2.486323938E-4,2.130904933E-3,2.273776885E-3
6.094946333E0,1.502113417E-3,2.401107922E-4,-2.702010097E-4,1.544994011E-3
6.104903333E0,1.563837286E-4,-1.446888782E-3,-2.400234109E-3,2.806967544E-3
6.114860333E0,2.229921054E-3,-5.709743127E-4,-2.356168116E-4,2.313887390E-3
6.124817333E0,-5.832155002E-4,3.013415262E-3,1.039457624E-3,3.240568471E-3
6.134774333E0,-1.698281034E-3,8.799573407E-4,9.387901518E-4,2.130683069E-3
6.144731333E0,-9.030089714E-4,1.967283897E-3,2.688663080E-4,2.181265739E-3
6.154688333E0,-1.995171420E-3,-1.008266583E-3,-5.750894197E-4,2.308254392E-3
6.164644333E0,-6.923414767E-4,8.163936436E-4,-6.638809573E-4,1.259592485E-3
6.174601333E0,2.690405818E-3,-1.942641102E-3,-1.831803820E-4,3.323506126E-3
6.184558333E0,-2.052701777E-3,-2.360502258E-4,-8.368985145E-4,2.229283162E-3
6.194515333E0,8.589322097E-4,-8.850628510E-4,-2.144776983E-3,2.474099654E-3
6.204472333E0,1.570744789E-3,5.902191624E-4,-1.038128859E-3,1.973147075E-3
6.214429333E0,-1.438360778E-3,4.235049710E-4,-1.321489224E-3,1.998642529E-3
6.224386333E0,4.261325812E-4,-2.266269177E-3,2.168702194E-4,2.316160109E-3
6.234343333E0,3.014965914E-4,2.014162019E-4,-5.775507307E-4,6.819336680E-4
6.244299333E0,-7.917890325E-4,6.392151117E-4,4.445424769E-3,4.560408667E-3
6.254256333E0,-3.616884351E-4,4.205694422E-4,5.173532758E-3,5.203185407E-3
6.264213333E0,-4.497251939E-4,3.250967711E-5,5.883318372E-4,7.412448852E-4
6.274170333E0,2.193195978E-3,-5.238242447E-4,-5.012295675E-3,5.496144864E-3
6.284127333E0,1.143932692E-3,-9.314939380E-4,-3.320979653E-3,3.633891690E-3
6.294084333E0,-1.827080268E-5,4.408322275E-4,2.541969297E-3,2.579975733E-3
6.304041333E0,-8.128171321E-4,-7.197204977E-4,4.026586190E-3,4.170379555E-3
6.313998333E0,1.640304690E-4,-2.775681205E-3,2.471833024E-3,3.720385820E-3
6.323954333E0,-5.373791791E-4,-9.624045342E-4,-3.533187555E-5,1.102835986E-3
6.333911333E0,1.703404472E-3,1.208337955E-3,-3.098766087E-3,3.736846086E-3
6.343868333E0,2.081283834E-3,1.438702457E-3,-3.121724818E-3,4.018304741E-3
6.353825333E0,2.223496791E-3,-7.022134960E-4,-6.354270037E-3,6.768588441E-3
6.363783333E0,-1.753403340E-3,5.179736763E-5,-1.082494273E-3,2.061286028E-3
6.373740333E0,7.052270230E-4,-2.273013815E-4,3.688558936E-3,3.762243758E-3
6.383697333E0,7.291587535E-4,1.112909988E-3,2.414843068E-3,2.757119542E-3
6.393654333E0,1.224906882E-4,-5.947090685E-4,2.063838299E-3,2.151304574E-3
6.403610333E0,8.940035477E-4,-1.408605836E-3,6.346480222E-4,1.784990436E-3
6.413567333E0,-1.213355805E-3,-1.189161092E-3,-1.431964920E-3,2.221904576E-3
6.423524333E0,2.218424343E-4,-8.548982441E-5,7.035058225E-4,7.425920939E-4
6.433481333E0,7.763125468E-4,-2.037342638E-4,-7.694885717E-4,1.111881955E-3
6.443438333E0,8.011318278E-5,-7.760217413E-4,-1.282260055E-3,1.500939277E-3
6.453395333E0,4.281883594E-4,-1.597665250E-4,5.171733210E-5,4.599405353E-4
6.463352333E0,-1.094515435E-3,4.633665085E-4,-4.833720159E-4,1.283090435E-3
6.473308333E0,-6.961065810E-4,1.515581273E-3,-2.017619088E-3,2.617697032E-3
6.483265333E0,3.836998949E-4,1.710051671E-3,1.490916125E-3,2.300941811E-3
6.493222333E0,-6.647866685E-4,6.959196180E-4,-3.655734472E-4,1.029509288E-3
6.503179333E0,1.484868350E-3,-1.976856962E-3,-1.317321323E-3,2.801451933E-3
6.513136333E0,9.000381688E-4,-6.980076432E-4,-7.146480493E-4,1.344620842E-3
6.523093333E0,-2.322978340E-3,3.234194592E-4,-1.605988247E-3,2.842538789E-3
6.533050333E0,-8.076399099E-4,-5.519613624E-4,4.457110772E-4,1.074989272E-3
6.543007333E0,-8.977528196E-4,8.179312572E-4,1.596444636E-4,1.224931844E-3
6.552963333E0,-1.317999559E-3,2.219155431E-4,-5.775184836E-4,1.455986588E-3
6.562920333E0,8.421537350E-4,-1.020645723E-3,-5.377799389E-4,1.428337449E-3
6.572877333E0,6.296334323E-4,-5.953386426E-4,2.854031045E-4,9.123164421E-4
6.582834333E0,-1.679494279E-3,2.911463380E-4,1.630887855E-3,2.359080842E-3
6.592791333E0,2.388484310E-3,6.211120635E-4,-4.187320359E-3,4.860482413E-3
6.602748333E0,-7.490998833E-4,-8.274987340E-4,-2.453261986E-3,2.695254935E-3
6.612705333E0,1.188243041E-4,-1.208596863E-3,5.617025308E-4,1.338034127E-3
6.622662333E0,-2.233544365E-3,-1.269868575E-3,2.111175098E-3,3.325409286E-3
6.632618333E0,-1.631137449E-3,9.309677407E-4,-2.195955254E-3,2.889555293E-3
6.642575333E0,1.150073949E-4,-2.262461931E-4,3.536539152E-4,4.352989002E-4
6.652532333E0,7.949124556E-4,2.230519429E-3,1.760069281E-3,2.950414650E-3
6.662489333E0,-9.302860126E-4,-3.683781251E-4,-1.890073880E-3,2.138577513E-3
6.672446333E0,-3.177588806E-4,-5.812011659E-5,-1.452782890E-3,1.488263007E-3
6.682403333E0,-1.579065574E-3,-1.050952822E-3,-6.574160070E-4,2.007522286E-3
6.692360333E0,-2.286134986E-3,5.610585213E-4,1.358596841E-3,2.717900884E-3
6.702317333E0,3.410531208E-4,4.392182454E-4,2.356513869E-3,2.421236773E-3
6.712273333E0,3.223924898E-3,-2.478008159E-3,-1.165516675E-3,4.229969893E-3
6.722230333E0,3.097845474E-3,-7.662288845E-4,-3.264498431E-3,4.565161913E-3
6.732187333E0,-2.964840736E-3,1.615968533E-3,2.479939954E-3,4.189479331E-3
6.742144333E0,6.282684626E-4,-1.064943150E-3,-1.333669061E-3,1.818652891E-3
6.752101333E0,1.098582637E-3,1.190984622E-4,2.253454877E-4,1.127762760E-3
6.762058333E0,-1.077501802E-3,-8.252263069E-4,-1.935516135E-3,2.363944013E-3
6.772015333E0,1.149699907E-3,5.023591220E-4,1.966106938E-4,1.269972570E-3
6.781972333E0,-1.884780359E-3,1.152562909E-3,3.025628859E-3,3.746362002E-3
6.791928333E0,-2.386519918E-3,1.253820956E-4,-1.205601497E-3,2.676690673E-3
6.801885333E0,9.189495468E-4,1.857141033E-4,-1.199575490E-3,1.522478031E-3
6.811842333E0,-6.382007850E-4,1.376412809E-3,9.349480970E-4,1.782116833E-3
6.821799333E0,2.059145365E-3,-8.930731565E-5,2.153133973E-4,2.072297105E-3
6.831756333E0,-4.602049012E-4,-1.284534112E-3,1.114662853E-3,1.761899461E-3
6.841713333E0,-2.518232912E-3,-2.216204070E-3,-3.111544764E-3,4.575452796E-3
6.851670333E0,1.795492135E-4,-4.233643413E-4,7.729419740E-4,8.993967871E-4
6.861627333E0,-2.335029189E-3,1.366768964E-3,3.355875611E-3,4.310721498E-3
6.871583333E0,3.728189506E-3,1.582484692E-3,-8.655012352E-4,4.141587519E-3
6.881540333E0,2.940332051E-4,-3.375769593E-3,-1.615056652E-3,3.753755967E-3
6.891497333E0,1.083660405E-3,1.482902095E-3,-1.050732797E-3,2.115976821E-3
6.901454333E0,-9.086548816E-4,1.518066972E-3,4.480584757E-4,1.825085594E-3
6.911411333E0,-2.676994074E-3,-2.662511542E-4,-1.469417475E-3,3.065350660E-3
6.921368333E0,-2.190407598E-3,-1.997877844E-3,-7.527686539E-4,3.058768048E-3
6.931325333E0,7.965936093E-4,-6.492529064E-4,3.898912109E-5,1.028402094E-3
6.941282333E0,-5.174139515E-4,-1.446404494E-3,1.434069825E-3,2.101513603E-3
6.951238333E0,4.535745829E-4,-1.153723337E-3,-8.381390944E-4,1.496423931E-3
6.961195333E0,-1.417396008E-3,6.667645648E-4,-3.873730544E-3,4.178441666E-3
6.971152333E0,9.682635427E-4,1.030019484E-3,-1.972499769E-3,2.426773530E-3
6.981109333E0,1.256640535E-4,5.845269188E-4,-4.080059880E-4,7.238315131E-4
6.991066333E0,1.609843690E-3,-1.069029793E-3,1.474316232E-3,2.430643897E-3
7.001023333E0,-1.460792380E-3,-2.765282989E-5,5.645718193E-5,1.462144477E-3
7.010980333E0,5.975649692E-4,-2.867784351E-4,3.600591794E-3,3.661090961E-3
7.020937333E0,-7.556974888E-4,-6.594685838E-4,1.602228032E-3,1.890267752E-3
7.030893333E0,-8.571639191E-4,-1.396897249E-3,-4.232757725E-3,4.538974539E-3
7.040850333E0,-1.127369003E-3,-1.682796516E-3,-2.945027081E-3,3.574346023E-3
7.050807333E0,1.037248177E-3,-5.653332919E-4,-1.130215242E-4,1.186701048E-3
7.060764333E0,1.586811850E-3,6.129937246E-4,1.147628063E-3,2.052019329E-3
7.070721333E0,3.232378978E-3,-1.222723164E-3,4.131282913E-4,3.480517315E-3
7.080678333E0,-4.285818432E-4,-2.741636708E-4,2.176626818E-3,2.235296942E-3
7.090635333E0,2.036440186E-3,6.502196193E-4,-1.157118124E-3,2.430801625E-3
7.100591333E0,1.129369601E-3,-1.660249196E-3,-1.150726224E-3,2.314319323E-3
7.110548333E0,3.312202170E-4,8.148932829E-4,-1.669243677E-3,1.886831298E-3
7.120505333E0,-2.031017793E-3,1.875134185E-3,9.737303481E-4,2.930752852E-3
7.130462333E0,6.036274135E-5,-5.384888500E-4,5.233897828E-4,7.533596530E-4
7.140419333E0,-2.774596680E-3,-1.284200698E-5,1.148621668E-3,3.002979086E-3
7.150376333E0,5.351800937E-4,1.013007015E-3,1.267931191E-3,1.708874030E-3
7.160333333E0,1.691548037E-3,1.142861322E-3,-9.141588234E-4,2.236772925E-3
7.170290333E0,1.750670141E-3,1.080011018E-3,-3.087031888E-3,3.709586987E-3
7.180246333E0,6.291074678E-4,-1.816736534E-3,2.640492748E-4,1.940626152E-3
7.190203333E0,2.286392497E-3,5.428241566E-4,-9.940280579E-4,2.551536889E-3
7.200160333E0,2.274734434E-4,-1.169056632E-3,-1.277006697E-3,1.746191192E-3
7.210117333E0,6.911297096E-4,1.617409289E-3,1.090543461E-3,2.069530895E-3
7.220074333E0,6.789617473E-4,1.735363156E-3,1.915354514E-3,2.672275669E-3
7.230031333E0,1.099208603E-3,-3.506913781E-4,2.564714523E-4,1.181956683E-3
7.239988333E0,1.072021900E-3,-1.548709348E-3,-4.034831189E-3,4.452818694E-3
7.249945333E0,-7.402591873E-4,7.501309738E-4,5.380829098E-4,1.183306114E-3
7.259901333E0,-2.375615295E-4,-1.830426976E-3,1.233883901E-3,2.220217979E-3
7.269858333E0,-3.970847465E-4,1.143790781E-3,2.397951437E-3,2.686280838E-3
7.279815333E0,6.267583231E-4,1.514521427E-3,3.259478835E-4,1.671180174E-3
7.289772333E0,3.244645428E-3,2.658083104E-3,-3.169983625E-3,5.257558932E-3
7.299729333E0,-8.137817495E-4,4.187943414E-4,4.947046982E-4,1.040366366E-3
7.309686333E0,6.498914445E-4,5.996227264E-4,-2.582045272E-3,2.729260722E-3
7.319643333E0,-6.971716648E-4,-1.703758724E-3,-8.976918180E-4,2.048094900E-3
7.329600333E0,1.329493825E-3,3.346251324E-4,-6.785086589E-5,1.372636715E-3
7.339556333E0,1.105367672E-3,4.159510136E-4,2.023946494E-3,2.343333597E-3
7.349513333E0,6.443744060E-4,2.719584852E-3,-1.067450852E-3,2.991790679E-3
7.359470333E0,-1.013315050E-4,2.268599346E-4,1.543371473E-3,1.563243105E-3
7.369427250E0,3.330417909E-3,4.361839965E-4,-5.434814375E-4,3.402544930E-3
7.379384250E0,-2.465792000E-3,-1.721961424E-3,-5.524380249E-4,3.057853676E-3
7.389341250E0,-1.392538194E-3,2.703946084E-3,2.434030874E-3,3.895509381E-3
7.399298250E0,-2.587163355E-3,-9.774481878E-4,-1.492800307E-3,3.142812744E-3
7.409255250E0,-6.723504048E-4,-1.655222848E-3,-1.991077792E-3,2.675109066E-3
7.419211250E0,-1.387991011E-3,5.353111774E-4,1.225888962E-3,1.927662017E-3
7.429168250E0,9.814234218E-4,1.333193853E-3,2.291419776E-3,2.826871482E-3
7.439125250E0,-1.902432647E-3,-1.031261869E-3,-1.387494849E-3,2.570582225E-3
7.449082250E0,-3.162374254E-3,8.619790897E-4,2.282449277E-4,3.285683281E-3
7.459039250E0,-3.120999318E-3,6.646458060E-4,-5.058107781E-4,3.230825797E-3
7.468996250E0,-2.429210581E-4,-2.386989072E-4,2.177057788E-3,2.203535437E-3
7.478953250E0,-1.277759438E-3,1.556180418E-3,2.300051274E-4,2.026639838E-3
7.488910250E0,-1.787754707E-3,-4.268093035E-4,-3.473681863E-4,1.870534076E-3
7.498866250E0,-1.380817150E-3,-6.582988426E-4,1.398575958E-3,2.072686198E-3
7.508823250E0,7.270748029E-4,5.648909137E-4,4.560833331E-4,1.027497698E-3
7.518780250E0,-9.262373205E-4,-8.285390213E-4,-4.833778657E-4,1.333434155E-3
7.528737250E0,7.568805013E-4,-5.728751421E-4,-3.044539830E-3,3.189087142E-3
7.538694250E0,1.801883569E-3,-1.360507682E-3,7.585934363E-4,2.381854225E-3
7.548651250E0,-6.847099867E-4,-2.323929220E-4,3.832680173E-3,3.900291213E-3
7.558608250E0,-3.754070494E-4,4.807887599E-4,6.156599848E-4,8.666749686E-4
7.568565250E0,-3.302753670E-3,2.885051072E-5,-1.871732413E-3,3.796366208E-3
7.578521250E0,-1.425599912E-4,-1.039048657E-3,-1.612490276E-3,1.923556693E-3
7.588478250E0,9.496023413E-4,1.380166039E-3,-7.283208543E-4,1.826760567E-3
7.598435250E0,-6.187282270E-4,4.927907139E-5,4.026701208E-5,6.219923456E-4
7.608392250E0,3.927402431E-4,-7.082894444E-5,-2.039448591E-4,4.481686552E-4
7.618349250E0,-1.318431459E-4,-9.439466521E-4,9.101376636E-4,1.317865116E-3
7.628306250E0,-1.972087426E-3,1.288314350E-3,8.230523672E-4,2.495255073E-3
7.638263250E0,9.568282985E-4,-8.200109005E-4,-2.203361597E-3,2.538255424E-3
7.648220250E0,-4.309449578E-4,2.690567635E-3,-2.229194390E-3,3.520536235E-3
7.658176250E0,-1.624990255E-4,-1.569479704E-3,-3.174500540E-3,3.545014267E-3
7.668133250E0,1.931278151E-3,-1.355628483E-3,1.097742585E-3,2.602422461E-3
7.678090250E0,-5.678674206E-4,1.460687257E-3,3.303905483E-3,3.656757049E-3
7.688047250E0,-3.633366432E-4,1.645553857E-5,2.357950434E-3,2.385836237E-3
7.698004250E0,-4.146615975E-4,1.681543887E-3,1.323912060E-3,2.179971841E-3
7.707961250E0,7.731083315E-4,1.180022955E-4,-7.578809164E-4,1.089038345E-3
7.717918250E0,-5.421934184E-4,-3.238422796E-3,-2.842766931E-3,4.343118665E-3
7.727875250E0,6.572941784E-4,-8.378494531E-4,-3.534123534E-3,3.691077959E-3
7.737831250E0,2.289335243E-4,-1.193834469E-4,-1.318742987E-3,1.343780500E-3
7.747788250E0,-3.937135916E-4,-8.008861914E-4,1.580107724E-3,1.814709207E-3
7.757745250E0,-1.358568901E-3,-1.673800871E-4,2.745432546E-3,3.067755763E-3
7.767702250E0,-4.810574464E-4,-2.222415060E-4,3.315349109E-3,3.357431648E-3
7.777659250E0,1.510240254E-3,1.537528820E-3,-1.014885609E-3,2.382186663E-3
7.787616250E0,-5.648948718E-4,1.012869179E-4,-1.966965850E-3,2.048980213E-3
7.797573250E0,-2.122033387E-3,-3.971643746E-4,-2.225091448E-4,2.170316926E-3
7.807530250E0,1.804531086E-3,-6.325878203E-4,-2.363690641E-3,3.040317950E-3
7.817486250E0,1.586457249E-3,4.000002518E-4,5.572104128E-4,1.728389495E-3
7.827443250E0,-1.659936155E-3,7.615983486E-5,3.391879145E-3,3.777040176E-3
7.837400250E0,-7.730557118E-4,1.607052051E-3,8.679910097E-4,1.983340571E-3
7.847357250E0,-1.182117267E-3,1.377222128E-3,-1.205743756E-4,1.818977791E-3
7.857314250E0,1.566448715E-3,8.114175871E-4,-6.182107609E-4,1.869316619E-3
7.867271250E0,-2.572839148E-4,-1.247205772E-3,6.358717801E-4,1.423393891E-3
7.877228250E0,-2.486859448E-4,1.656766050E-3,3.974904306E-3,4.313534825E-3
7.887185250E0,4.748950014E-4,-1.898553222E-3,-9.919935837E-5,1.959558653E-3
7.897141250E0,5.030827597E-4,3.491062671E-5,-2.163892612E-3,2.221878091E-3
7.907098250E0,1.029589679E-3,6.405133754E-4,4.236345412E-4,1.284437042E-3
7.917055250E0,-9.682696545E-4,-6.209835410E-4,2.941052662E-4,1.187292967E-3
7.927012250E0,-7.746577030E-4,-1.482730731E-4,-9.035182884E-4,1.199343470E-3
7.936969250E0,1.625667792E-4,3.449199721E-4,-3.164258087E-4,4.955028126E-4
7.946926250E0,1.031783177E-4,3.696875647E-4,1.363762422E-3,1.416743662E-3
7.956883250E0,-8.704606444E-5,-2.849837765E-4,1.103271730E-3,1.142804131E-3
7.966840250E0,3.934837878E-8,-2.960661426E-3,-1.885593869E-3,3.510125399E-3
7.976796250E0,3.082378302E-3,1.114798710E-3,-2.350227442E-3,4.033286648E-3
7.986753250E0,1.022689743E-3,-4.029367119E-4,4.636683734E-4,1.192996507E-3
7.996710250E0,-7.198627573E-4,-1.539953984E-3,1.948474674E-3,2.585771493E-3
8.006667250E0,1.853914000E-6,-2.551156096E-3,1.156450482E-3,2.801031699E-3
8.016624250E0,1.003692858E-3,1.167199574E-3,3.247554414E-3,3.593934316E-3
8.026581250E0,-2.136381809E-4,1.546434127E-3,1.723161200E-3,2.325163285E-3
8.036538250E0,-3.186010290E-3,-6.795348600E-4,2.603817964E-3,4.170407316E-3
8.046495250E0,-1.364941010E-3,-2.069172449E-3,8.349464042E-4,2.615659398E-3
8.056451250E0,1.496789628E-3,-1.643402502E-4,-3.134334460E-3,3.477274711E-3
8.066408250E0,1.261099940E-3,-3.595501184E-4,-8.650548407E-4,1.570977156E-3
8.076365250E0,-2.995457500E-3,7.424084470E-4,1.753940247E-3,3.549682004E-3
8.086322250E0,-3.348989412E-5,1.368517987E-3,2.904692199E-3,3.211105702E-3
8.096279250E0,-2.000211971E-4,2.024965361E-4,4.156405339E-4,5.037562703E-4
8.106236250E0,1.928909682E-3,8.397912607E-4,2.549897879E-3,3.305740631E-3
8.116193250E0,3.368753241E-4,6.032446399E-4,9.529966628E-4,1.177111600E-3
8.126149250E0,8.194401162E-4,-2.004969865E-4,-1.119475230E-3,1.401751025E-3
8.136106250E0,-9.633863810E-4,4.447493702E-4,-2.432840876E-3,2.654172197E-3
8.146063250E0,2.480855910E-4,2.404569648E-3,9.240735089E-4,2.587936147E-3
8.156020250E0,-4.620263353E-4,1.014527865E-3,1.243282692E-3,1.669876335E-3
8.165977250E0,-1.217565266E-3,3.739207983E-3,1.029430889E-3,4.064956269E-3
8.175934250E0,-8.031667676E-4,-4.006475210E-4,2.153485315E-3,2.333043997E-3
8.185891250E0,-1.155385980E-4,-1.359120011E-3,9.753030026E-4,1.676834017E-3
8.195848250E0,6.784434663E-4,-1.224286854E-3,1.933633466E-4,1.412994417E-3
8.205805250E0,4.355631536E-4,-3.624875098E-4,1.384062693E-3,1.495574135E-3
8.215761250E0,2.006324939E-5,-1.472058706E-3,-1.284613507E-3,1.953865714E-3
8.225718250E0,2.421708778E-4,4.331665114E-4,1.847263891E-3,1.912763405E-3
8.235675250E0,1.055625733E-3,1.253197901E-3,2.025126014E-3,2.604992522E-3
8.245632250E0,2.859651111E-3,-3.239260986E-4,1.509538153E-3,3.249805845E-3
8.255589250E0,8.654308622E-4,-5.238307640E-4,9.730586316E-4,1.403642528E-3
8.265546250E0,-1.848862972E-3,1.456761733E-3,-5.318936892E-4,2.413163884E-3
8.275503250E0,-1.297728159E-4,9.753536433E-4,6.607276155E-4,1.185207448E-3
8.285460250E0,-2.690562978E-4,-6.398530677E-4,1.018656534E-3,1.232665557E-3
8.295416250E0,-2.014004393E-3,1.665148884E-3,5.929905456E-6,2.613229738E-3
8.305373250E0,1.109617297E-3,2.185199410E-4,5.067099119E-5,1.132064070E-3
8.315330250E0,-1.494672848E-3,6.041200832E-4,2.145944396E-3,2.684042725E-3
8.325287250E0,3.386472818E-4,-2.520300448E-3,3.173658159E-3,4.066780353E-3
8.335244250E0,-2.301381901E-4,-9.134998545E-4,-6.938445731E-4,1.169985411E-3
8.345201250E0,3.534506308E-3,-1.354519278E-3,-1.615298213E-3,4.115415609E-3
8.355158250E0,-5.278652534E-4,-1.245631836E-3,-1.471769763E-3,1.999086450E-3
8.365114708E0,-7.912272122E-5,3.682440147E-4,-2.371385694E-3,2.401111028E-3
8.375070708E0,3.803574946E-4,1.744562760E-4,-5.137506407E-3,5.154520239E-3
8.385027708E0,1.938572968E-3,-1.368671656E-4,-1.420532586E-3,2.407220514E-3
8.394984708E0,-1.589993015E-3,6.404286250E-4,1.950253965E-3,2.596481685E-3
8.404941708E0,-2.927673049E-4,1.167734154E-3,4.411547445E-3,4.572861971E-3
8.414898708E0,-3.837202676E-4,-1.086755656E-3,8.819054347E-4,1.451218900E-3
8.424855708E0,-1.405042596E-3,-4.057846963E-4,-9.370335611E-4,1.736904664E-3
8.434812708E0,-9.844786255E-4,1.458451152E-4,9.818988619E-4,1.398068073E-3
8.444768708E0,-7.162982365E-4,-1.289598644E-3,9.049334330E-4,1.730621953E-3
8.454725708E0,9.243437089E-4,1.016156748E-4,-2.031640150E-3,2.234345259E-3
8.464682708E0,1.855827868E-4,-1.513058320E-3,-1.093704486E-4,1.528315525E-3
8.474639708E0,1.015913207E-3,-4.640687257E-5,2.002562862E-3,2.245994492E-3
8.484596708E0,2.313459991E-4,-8.221855387E-4,1.403351780E-3,1.642834821E-3
8.494553708E0,3.100780305E-3,-6.643887609E-4,-8.951046620E-4,3.295066506E-3
8.504510708E0,2.919444814E-4,-1.045486890E-3,-1.281795674E-3,1.679665016E-3
8.514467708E0,-9.144311771E-4,-1.328532584E-3,-1.542146550E-3,2.231456741E-3
8.524423708E0,1.272024005E-3,1.271506771E-4,8.714763680E-4,1.547153329E-3
8.534380708E0,9.872908704E-4,5.309963599E-4,2.246258548E-3,2.510453716E-3
8.544337708E0,-1.495308010E-3,-1.123093069E-3,6.920376327E-4,1.994041166E-3
8.554294708E0,6.929418305E-4,9.701540694E-4,2.067931462E-3,2.386987187E-3
8.564251708E0,2.133065136E-4,8.172355592E-5,3.166751703E-3,3.174979489E-3
8.574208708E0,3.809307236E-4,-1.937197521E-4,-1.219872851E-3,1.292565407E-3
8.584165708E0,9.407271282E-4,6.789974868E-4,-1.558893360E-3,1.943232777E-3
8.594122708E0,-1.352016116E-3,-1.331039704E-3,2.167338971E-5,1.897388734E-3
8.604078708E0,1.950836275E-3,3.243815154E-4,1.756722806E-3,2.645195750E-3
8.614035708E0,5.996646360E-4,-1.485430636E-3,1.245130785E-3,2.028904266E-3
8.623992708E0,2.957893768E-3,-3.858115524E-4,-4.020344350E-4,3.009919897E-3
8.633949708E0,1.556487055E-3,-1.697031781E-3,1.120569068E-3,2.560906843E-3
8.643906708E0,-4.384868080E-4,-9.936904535E-4,-8.589585195E-4,1.384738653E-3
8.653863708E0,-6.915903650E-4,2.874881029E-4,-1.161181484E-3,1.381770271E-3
8.663820708E0,1.126842108E-4,4.651211202E-4,-1.690617995E-3,1.757049969E-3
8.673777708E0,2.420420060E-4,-4.686955363E-4,1.410705037E-3,1.506103762E-3
8.683733708E0,1.303045312E-3,-2.581381239E-3,-5.824047839E-4,2.949686681E-3
8.693690708E0,2.341598738E-4,-2.396437339E-3,1.255337149E-3,2.715439951E-3
8.703647708E0,-4.947473062E-4,1.433454454E-3,-1.622474752E-3,2.220808612E-3
8.713604708E0,2.064625733E-5,7.317773998E-5,-2.049651463E-3,2.051061278E-3
8.723561708E0,2.363695297E-3,-4.741018638E-4,-4.568147124E-4,2.453672292E-3
8.733518708E0,-2.285755705E-3,-9.107487276E-4,2.211251296E-3,3.308137646E-3
8.743475708E0,1.607785816E-3,3.313496709E-4,4.796561552E-5,1.642275414E-3
8.753432708E0,-1.266541774E-3,-5.018832162E-4,2.927223686E-4,1.393449394E-3
8.763389708E0,-5.184597103E-4,-9.658057243E-4,-4.748006759E-4,1.194578105E-3
8.773345708E0,-9.027866181E-4,-1.488320529E-3,1.126437564E-3,2.073398964E-3
8.783302708E0,7.640857948E-4,-4.669977352E-4,-2.687925298E-4,9.349670639E-4
8.793259708E0,6.826376193E-4,-5.832491443E-4,-1.611366868E-3,1.844634616E-3
8.803216708E0,9.478884749E-4,-1.186188310E-3,-9.410491330E-4,1.786367470E-3
8.813173708E0,-1.345608151E-3,4.698112607E-4,-6.654424360E-4,1.572958217E-3
8.823130708E0,-3.304113634E-4,2.012314275E-3,2.172954613E-3,2.979985262E-3
8.833087708E0,4.459597403E-4,4.909932613E-4,7.140366361E-4,9.745782628E-4
8.843043708E0,-1.961283851E-4,-1.311967149E-3,7.700844435E-5,1.328779306E-3
8.853000708E0,9.682489326E-4,-1.428122632E-3,9.732745821E-5,1.728153026E-3
8.862957708E0,1.928851125E-3,1.397915184E-5,-1.431327080E-3,2.401949061E-3
8.872914708E0,9.722239338E-4,-1.445232891E-3,-2.045091242E-3,2.686320099E-3
8.882871708E0,3.754094942E-4,-6.047394127E-4,8.833205793E-4,1.134414956E-3
8.892828708E0,-1.333293039E-5,-1.232196577E-3,1.839555800E-3,2.214148078E-3
8.902785708E0,4.356760764E-4,-9.662471712E-5,1.833696850E-3,1.887218619E-3
8.912742708E0,9.370775078E-4,-6.203539670E-5,-1.517900964E-3,1.784933047E-3
8.922699708E0,6.159002660E-4,3.347760066E-4,-2.097937278E-3,2.211955907E-3
8.932655708E0,-1.488145208E-3,9.025298059E-4,2.788326936E-3,3.286929161E-3
8.942612708E0,3.022979945E-4,1.605338417E-3,-6.745813880E-4,1.767358356E-3
8.952569708E0,1.195857767E-4,1.736255363E-4,-1.352110645E-3,1.368447946E-3
8.962526708E0,-3.810883500E-4,2.479273826E-4,5.057104863E-4,6.800289799E-4
8.972483708E0,5.332868313E-4,1.021260396E-4,-1.585923368E-3,1.676298751E-3
8.982440708E0,-1.638254849E-3,-2.459492534E-4,3.147312673E-3,3.556676405E-3
8.992397708E0,-1.374462387E-3,2.170474268E-3,8.100934792E-5,2.570343930E-3
9.002354708E0,-3.917559516E-4,-1.544654369E-4,-3.174438840E-3,3.202248311E-3
9.012310708E0,-2.069209004E-4,2.624018118E-3,-4.176314455E-3,4.936586854E-3
9.022267708E0,1.745176269E-3,2.548650838E-3,-3.873513080E-3,4.954327895E-3
9.032224708E0,-1.495569013E-4,-9.269239381E-4,-2.314926125E-3,2.498086912E-3
9.042181708E0,-8.244018536E-4,4.097167403E-4,1.973029692E-3,2.177235033E-3
9.052138708E0,-1.361883944E-3,-2.500384115E-3,5.845297128E-3,6.501857205E-3
9.062095708E0,4.123139661E-4,-1.555760391E-3,3.534738440E-3,3.883911564E-3
9.072052708E0,-7.945292164E-4,-1.461114734E-4,4.255966051E-4,9.131033395E-4
9.082009708E0,2.562651411E-3,1.394793391E-3,-4.922563210E-3,5.722259992E-3
9.091965708E0,8.290779660E-4,3.302376717E-5,-2.346363384E-3,2.488751087E-3
9.101922708E0,-1.118169166E-4,-2.892185003E-4,-6.723008119E-5,3.172857506E-4
9.111879708E0,1.311510685E-3,6.208103150E-5,1.760398271E-3,2.196113932E-3
9.121836708E0,4.065685207E-4,9.595658630E-4,2.359875711E-3,2.579743781E-3
9.131793708E0,-1.517432975E-3,1.319224946E-3,4.130956950E-5,2.011134946E-3
9.141750708E0,-1.474556047E-3,1.095253043E-3,7.678199327E-4,1.990839575E-3
9.151707708E0,1.248855144E-3,-1.026537269E-3,-1.212714240E-3,2.020914091E-3
9.161664708E0,-4.129572771E-4,4.927963018E-4,-1.342143863E-3,1.488197587E-3
9.171620708E0,1.780464081E-4,1.370366663E-4,-9.877814446E-4,1.013011231E-3
9.181577708E0,-2.106945729E-3,2.842808142E-3,1.052732579E-3,3.691750848E-3
9.191534708E0,2.545614261E-4,-3.303866833E-4,1.361058094E-3,1.423529422E-3
9.201491708E0,2.425303916E-3,-2.025755122E-3,-6.905931514E-5,3.160783461E-3
9.211448708E0,-1.233324292E-3,2.054218203E-5,5.600864533E-4,1.354698352E-3
9.221405708E0,-1.019206247E-3,1.885872334E-4,-3.376652021E-4,1.090121235E-3
9.231362708E0,8.912701742E-4,3.668572754E-5,-2.940237522E-3,3.072573035E-3
9.241318708E0,1.822044956E-3,1.514675096E-4,-2.468325198E-3,3.071712798E-3
9.251275708E0,-2.109684981E-3,-1.895841211E-3,3.467435017E-4,2.857484151E-3
9.261232708E0,3.054716857E-3,-1.296326518E-4,2.402703743E-3,3.888583930E-3
9.271189708E0,8.344711969E-4,3.008805215E-4,-9.476213017E-4,1.298020569E-3
9.281146708E0,-2.387827262E-4,3.495874815E-3,-2.962967847E-5,3.504145520E-3
9.291103708E0,-2.129041124E-3,4.442017525E-4,7.313248934E-4,2.294551678E-3
9.301060708E0,-1.493344666E-3,1.612796448E-3,-6.183651276E-4,2.283323478E-3
9.311017708E0,-2.178805880E-3,2.359300852E-4,-3.757321101E-4,2.223518088E-3
9.320973708E0,-7.553461473E-4,-4.951078445E-4,2.818023786E-4,9.460931035E-4
9.330930708E0,-1.478785649E-3,1.108516008E-4,4.860403715E-4,1.560554490E-3
9.340887708E0,-1.759483013E-3,3.566611558E-4,1.883933553E-3,2.602343807E-3
9.350844708E0,-1.495608361E-3,-1.410664991E-3,5.932862405E-4,2.139815097E-3
9.360801708E0,1.059428556E-3,-1.332368702E-3,-2.613425953E-3,3.118908533E-3
9.370759250E0,3.421489382E-4,-4.924824461E-4,-1.497954247E-3,1.613527744E-3
9.380716250E0,-1.547968714E-4,1.130981371E-3,1.472269185E-3,1.862970071E-3
9.390673250E0,8.409486036E-4,3.479627892E-3,2.113063587E-3,4.156927056E-3
9.400630250E0,1.983977389E-3,6.670635194E-4,-1.790331560E-3,2.754346948E-3
9.410586250E0,1.287729479E-3,-2.511397004E-3,6.570136175E-4,2.897762761E-3
9.420543250E0,-2.232170431E-3,-2.823304385E-4,2.708446467E-3,3.521076196E-3
9.430500250E0,1.738153631E-3,-2.144406550E-3,-1.639278838E-3,3.210434956E-3
9.440457250E0,-2.828901401E-3,-6.370572373E-4,-8.893326158E-4,3.033057461E-3
9.450414250E0,8.357119514E-4,-7.827281952E-4,-1.362644602E-3,1.779853422E-3
9.460371250E0,7.174675702E-4,-4.019588232E-6,2.698675962E-3,2.792423288E-3
9.470328250E0,-1.511335955E-3,1.300321892E-3,7.118398789E-4,2.117000096E-3
9.480285250E0,-3.497255035E-3,3.958120942E-5,-1.081266440E-3,3.660805453E-3
9.490241250E0,-1.031639986E-3,1.474028453E-3,-8.986819303E-4,2.011136533E-3
9.500198250E0,-8.010100573E-4,-2.413140610E-4,2.626278205E-3,2.756299475E-3
9.510155250E0,2.008738229E-3,-2.472478896E-3,1.212287461E-3,3.408492637E-3
9.520112250E0,1.168777235E-3,-2.184324898E-3,5.153381499E-4,2.530393031E-3
9.530069250E0,1.296378323E-3,-2.279807813E-3,-3.884770442E-3,4.687169915E-3
9.540026250E0,1.505170134E-3,-2.509105951E-3,-7.707361365E-4,3.025753459E-3
9.549983250E0,6.024213508E-4,-1.856386662E-4,1.525446773E-3,1.650563859E-3
9.559940250E0,-9.728384903E-4,-1.278866082E-3,-1.542090322E-4,1.614216098E-3
9.569896250E0,1.564176055E-4,-1.464078203E-3,-2.603627974E-3,2.991131906E-3
9.579853250E0,1.979617635E-3,-1.242503524E-3,-1.829979592E-3,2.968421516E-3
9.589810250E0,-1.883852412E-3,-9.742341936E-4,-1.378823654E-3,2.529661409E-3
9.599767250E0,-7.959512295E-4,-1.790141687E-4,6.217429182E-4,1.025742993E-3
9.609724250E0,-4.093887284E-3,-2.494170330E-3,2.036510268E-4,4.798153028E-3
9.619681250E0,-1.021398464E-3,1.972196624E-4,8.193738759E-4,1.324206920E-3
9.629638250E0,8.817327907E-4,-1.023700461E-3,-6.518911687E-4,1.500125809E-3
9.639595250E0,6.617556792E-4,1.131328754E-3,-1.298772986E-3,1.845165737E-3
9.649551250E0,-1.629320905E-4,-7.597981021E-4,-1.289654872E-3,1.505672511E-3
9.659508250E0,-2.113431226E-3,1.652226783E-3,-2.288074000E-3,3.525865500E-3
9.669465250E0,-5.716148298E-4,1.181282103E-3,2.069341019E-3,2.450376129E-3
9.679422250E0,-1.767731737E-5,1.532020047E-3,1.888246043E-3,2.431639577E-3
9.689379250E0,-2.079615369E-3,1.047043130E-3,1.623140415E-3,2.838253725E-3
9.699336250E0,2.293450525E-4,-2.088828944E-3,1.541381469E-3,2.606081799E-3
9.709293250E0,-3.247483401E-4,-1.505170949E-3,1.021060743E-3,1.847583858E-3
9.719250250E0,2.758787014E-5,-2.001850866E-3,1.682057278E-3,2.614858441E-3
9.729206250E0,1.920064329E-3,-2.596114762E-3,-1.650649589E-3,3.626444947E-3
9.739163250E0,-1.952844905E-4,-1.579053700E-3,-1.090586884E-3,1.928970288E-3
9.749120250E0,4.225188168E-4,-4.218053073E-5,-9.100115858E-4,1.004202387E-3
9.759077250E0,5.953002255E-5,1.929624006E-3,2.821875969E-3,3.419060779E-3
9.769034250E0,-4.114881158E-4,-1.116827130E-3,4.253308289E-4,1.263934976E-3
9.778991250E0,-1.560908277E-3,-1.013496891E-3,8.453113260E-4,2.044055242E-3
9.788948250E0,1.272373134E-3,-6.592748687E-4,-2.750925254E-3,3.101800525E-3
9.798905250E0,-4.032878205E-4,2.165540121E-3,-3.023632802E-3,3.740930420E-3
9.808861250E0,1.514543546E-4,-1.965736039E-3,-2.779289149E-3,3.407565813E-3
9.818818250E0,-1.495710807E-3,-1.408869401E-3,-9.528933442E-4,2.264965680E-3
9.828775250E0,-3.094959538E-4,-3.888141364E-4,4.170247354E-3,4.199753227E-3
9.838732250E0,8.689528331E-4,-3.403443843E-4,1.517738914E-3,1.781697151E-3
9.848689250E0,-4.664614098E-4,-2.039334737E-3,-6.115775323E-4,2.179564060E-3
9.858646250E0,-6.843080046E-4,3.140513785E-3,-1.023035962E-3,3.373085659E-3
9.868603250E0,-9.108595550E-4,3.659939393E-4,3.140624613E-4,1.030656064E-3
9.878560250E0,1.517144265E-3,-8.231075481E-4,-8.785010432E-4,1.936749039E-3
9.888516250E0,7.076023030E-4,-1.790270209E-3,1.415328588E-3,2.389335358E-3
9.898473250E0,9.534158744E-5,-4.693418741E-4,-4.434998846E-5,4.809768545E-4
9.908430250E0,6.837898400E-5,1.161358319E-3,1.395882340E-3,1.817117591E-3
9.918387250E0,-7.777072024E-4,-9.473329410E-4,1.962336712E-3,2.313662370E-3
9.928344250E0,-1.048408914E-3,-8.885767311E-4,-1.494225813E-3,2.030133158E-3
9.938301250E0,-1.015119487E-3,2.842796966E-4,-1.293157111E-3,1.668393788E-3
9.948258250E0,2.063120482E-4,-2.686809748E-4,6.035671104E-4,6.921324904E-4
9.958215250E0,-7.913080044E-4,1.474624500E-3,1.111165620E-3,2.008824235E-3
9.968171250E0,-2.238931833E-3,-1.635946333E-3,8.023622213E-4,2.886679977E-3
9.978128250E0,1.143016387E-3,-6.260750815E-4,-1.943090465E-3,2.339670281E-3
9.988085250E0,-8.379458450E-4,-1.425892115E-3,-1.207178575E-4,1.658280544E-3
9.998042250E0,3.089417703E-3,-6.687557325E-4,1.864136197E-3,3.669705674E-3
1.000799925E1,3.059415612E-3,-2.223413438E-3,-4.232150968E-5,3.782245671E-3
1.001795625E1,-7.449097466E-4,4.637157544E-4,-1.755533041E-3,1.962605180E-3
1.002791325E1,9.064706392E-4,5.044015124E-4,9.211964207E-4,1.387340171E-3
1.003787025E1,2.633172553E-4,-1.114534214E-3,2.705514431E-3,2.937912665E-3
1.004782625E1,-8.274205029E-4,1.530635171E-3,-6.437679986E-4,1.855237438E-3
1.005778325E1,2.315642079E-3,-1.346111298E-3,-1.194776036E-3,2.932866114E-3
1.006774025E1,3.318954259E-5,2.550738864E-3,-6.916524144E-4,2.643057578E-3
1.007769725E1,-8.898621891E-4,-7.398631424E-4,1.021026401E-3,1.543290995E-3
1.008765425E1,1.813329640E-3,1.000463963E-3,-3.757760860E-4,2.104827829E-3
1.009761125E1,-7.406417280E-4,-1.356433146E-3,-2.511401544E-4,1.565737023E-3
1.010756825E1,1.442955108E-4,-2.613384277E-5,3.041137708E-3,3.044671203E-3
1.011752525E1,2.044194611E-3,9.259460494E-4,1.899706898E-3,2.940237064E-3
1.012748225E1,1.778640086E-3,-2.325529233E-3,1.972280443E-4,2.934373130E-3
1.013743825E1,-4.243268631E-4,9.954329580E-4,-1.991357654E-3,2.266372734E-3
1.014739525E1,1.860921737E-3,-4.949551076E-4,-1.247920096E-3,2.294627385E-3
1.015735225E1,-1.826491207E-3,-1.820335165E-4,6.570391124E-4,1.949591425E-3
1.016730925E1,-1.598901115E-3,3.053164110E-4,6.784446305E-5,1.629204026E-3
1.017726625E1,-9.458940476E-4,6.017265841E-4,-3.130345605E-3,3.325034442E-3
1.018722325E1,-3.961019218E-3,-1.614987850E-4,-9.125685319E-4,4.067989236E-3
1.019718025E1,4.015048034E-4,-1.795081422E-3,3.878530115E-4,1.879881213E-3
1.020713725E1,-3.798518563E-3,-6.513781846E-4,-3.029993037E-3,4.902437620E-3
1.021709325E1,1.929941005E-3,2.729238942E-3,-4.204979632E-3,5.371710267E-3
1.022705025E1,-1.798635349E-4,-2.113752067E-3,-2.014600439E-3,2.925562103E-3
1.023700725E1,1.807283843E-4,6.759092212E-4,-3.112425911E-4,7.657597369E-4
1.024696425E1,3.878785064E-4,-5.619861186E-4,4.047534894E-3,4.104731033E-3
1.025692125E1,1.511466224E-3,3.505725414E-3,1.841372345E-3,4.238548446E-3
1.026687825E1,-1.071910141E-3,4.805969074E-4,-5.865100538E-4,1.312996109E-3
1.027683525E1,-2.574465470E-3,-6.389962509E-4,-1.712228172E-3,3.157200339E-3
1.028679225E1,-7.555424236E-4,8.005406708E-4,-1.544945291E-3,1.896988580E-3
1.029674825E1,-2.826150274E-3,-8.455589414E-4,-8.791550063E-4,3.078150227E-3
1.030670525E1,-1.824756851E-3,-4.636440426E-4,2.125990577E-3,2.839813251E-3
1.031666225E1,-6.159481127E-4,-1.256734133E-3,2.726533217E-3,3.064760373E-3
1.032661925E1,-3.119013738E-3,5.958052352E-4,3.170569893E-3,4.487286933E-3
1.033657625E1,-2.244239440E-4,-5.000857636E-4,-2.654029522E-3,2.710041435E-3
1.034653325E1,-8.016959764E-4,8.878055960E-4,-3.163361922E-3,3.381977804E-3
1.035649025E1,-7.574874908E-4,5.391975865E-4,-3.918102593E-4,1.008978005E-3
1.036644638E1,-2.616948215E-3,-1.201352105E-3,-1.269226195E-3,3.146839681E-3
1.037640238E1,-5.639172159E-4,5.965484306E-4,1.217899844E-3,1.468724851E-3
1.038635938E1,1.107092248E-3,-1.526893117E-3,2.587020863E-3,3.201520386E-3
1.039631638E1,3.078364069E-3,2.755204216E-3,-1.030350802E-3,4.257827895E-3
1.040627337E1,-2.063285792E-4,1.422693953E-3,1.173644094E-3,1.855820580E-3
1.041623037E1,-1.891577034E-3,1.735615544E-3,-9.188015247E-4,2.726650186E-3
1.042618738E1,-8.693777490E-4,6.593232974E-4,-3.710659686E-3,3.867753895E-3
1.043614438E1,4.643334541E-4,1.200477593E-3,1.333469409E-4,1.294037640E-3
1.044610138E1,-1.250090543E-3,1.494028606E-3,2.997101983E-3,3.574558453E-3
1.045605738E1,5.347599508E-4,1.999496482E-3,4.216030706E-3,4.696687056E-3
1.046601438E1,-1.572190784E-3,-2.665519714E-4,1.829785993E-3,2.427128055E-3
1.047597138E1,-3.972039558E-4,6.607733667E-5,3.277630312E-4,5.191972665E-4
1.048592838E1,5.437905202E-4,2.701132558E-3,1.814002171E-3,3.298852695E-3