"Time (s)","Gyroscope x (rad/s)","Gyroscope y (rad/s)","Gyroscope z (rad/s)","Absolute (rad/s)"
3.012000001E-3,-1.791954972E-3,1.325114630E-3,3.262243420E-2,3.269847465E-2
1.296800000E-2,1.427540323E-3,-1.122863032E-3,3.152095154E-2,3.157323358E-2
2.292500000E-2,-9.045252809E-4,-4.460457712E-4,3.224102408E-2,3.225679396E-2
3.288100000E-2,1.332796412E-3,3.654193133E-4,3.085804358E-2,3.088897427E-2
4.283800000E-2,-1.371574705E-3,1.825336367E-3,3.002519533E-2,3.011188179E-2
5.279400000E-2,-8.850152371E-4,-1.033567823E-3,3.136796132E-2,3.139746027E-2
6.275000000E-2,1.225883374E-3,6.132759154E-4,2.996505797E-2,2.999639306E-2
7.270700000E-2,8.351976285E-4,1.216748729E-3,3.425620869E-2,3.428798428E-2
8.266300000E-2,1.494429889E-3,1.269008964E-3,3.054860421E-2,3.061145085E-2
9.262000000E-2,1.466200338E-3,-1.171511598E-3,3.173743933E-2,3.179288031E-2
1.025760000E-1,-1.047013677E-3,7.799481973E-4,2.996724844E-2,2.999567529E-2
1.125320000E-1,-2.658758778E-3,5.567753688E-4,2.963541821E-2,2.975965405E-2
1.224890000E-1,6.103019696E-4,2.546938136E-3,2.784001641E-2,2.796293754E-2
1.324450000E-1,-2.110915957E-3,-4.565753043E-4,3.201638907E-2,3.208915076E-2
1.424020000E-1,3.596413881E-4,1.440502703E-3,2.976571955E-2,2.980272555E-2
1.523580000E-1,6.110437680E-4,2.500703558E-4,3.136148304E-2,3.136843203E-2
1.623140000E-1,1.806202810E-3,1.518039964E-3,2.653633431E-2,2.664101823E-2
1.722710000E-1,-3.759913379E-4,1.545470208E-3,3.010097519E-2,3.014296858E-2
1.822270000E-1,-1.344665419E-3,-3.988379613E-4,2.816362306E-2,2.819852586E-2
1.921840000E-1,6.681517698E-4,-2.592876554E-4,3.052930906E-2,3.053772043E-2
2.021400000E-1,-1.130068442E-3,-1.234853640E-3,2.967226505E-2,2.971944198E-2
2.120970000E-1,6.625053938E-4,7.412116975E-4,2.954097092E-2,2.955769394E-2
2.220530000E-1,-1.766646979E-3,3.255713731E-3,2.883094735E-2,2.906792457E-2
2.320090000E-1,9.630931891E-4,-2.950783819E-4,2.563408948E-2,2.565387229E-2
2.419660000E-1,-2.036889549E-3,-1.258388162E-3,2.558004111E-2,2.569184624E-2
2.519220000E-1,1.450519892E-3,2.782159485E-3,2.927517891E-2,2.944283477E-2
2.618790000E-1,-1.178591745E-3,1.021789387E-3,2.842628583E-2,2.846905089E-2
2.718350000E-1,3.794329008E-3,-1.033372246E-3,2.932244167E-2,2.958496875E-2
2.817910000E-1,-1.414708560E-3,3.783106804E-4,3.207790107E-2,3.211131041E-2
2.917480000E-1,3.032964887E-4,9.133396670E-4,3.173995018E-2,3.175453693E-2
3.017040000E-1,-9.178321343E-4,-6.556017324E-4,2.945515513E-2,2.947674326E-2
3.116610000E-1,-4.970526788E-4,7.622661069E-4,2.753661573E-2,2.755164817E-2
3.216170000E-1,-1.217355835E-3,-1.022673212E-3,2.610783093E-2,2.615619719E-2
3.315730000E-1,-9.912532987E-4,-1.875059679E-4,2.476826124E-2,2.478879800E-2
3.415300000E-1,1.017353497E-4,-3.813784570E-4,2.698382363E-2,2.698671038E-2
3.514860000E-1,-3.246366978E-4,-1.209355891E-3,3.026776761E-2,3.029365753E-2
3.614430000E-1,-2.826144919E-5,1.906481571E-3,3.015367500E-2,3.021389725E-2
3.713990000E-1,-1.558269141E-4,-2.571623772E-3,3.232281655E-2,3.242532961E-2
3.813550000E-1,-3.562466241E-3,1.341908239E-3,2.848452330E-2,2.873777916E-2
3.913120000E-1,-4.401761107E-4,-3.052568063E-4,2.576357126E-2,2.576913931E-2
4.012680000E-1,-2.131884452E-3,3.866981715E-4,2.371265925E-2,2.381144002E-2
4.112250000E-1,2.729183529E-3,1.037575305E-3,2.542426996E-2,2.559137566E-2
4.211810000E-1,-1.593444031E-4,-1.397090033E-3,2.770512179E-2,2.774078269E-2
4.311370000E-1,7.855450967E-4,7.307762280E-4,2.914589271E-2,2.916563349E-2
4.410940000E-1,-4.794758279E-4,2.554609440E-3,2.768632770E-2,2.780806839E-2
4.510500000E-1,1.692332095E-3,6.432589144E-4,2.689643577E-2,2.695730007E-2
4.610070000E-1,1.765078749E-3,1.321344636E-3,2.557961084E-2,2.567446096E-2
4.709630000E-1,-7.241779240E-4,-1.105327159E-3,2.530024759E-2,2.533473328E-2
4.809200000E-1,-1.861558761E-3,-6.345473230E-5,2.761106938E-2,2.767382482E-2
4.908760000E-1,-1.932132524E-3,1.094753854E-3,2.675113454E-2,2.684315223E-2
5.008320000E-1,6.159850163E-4,-1.018100418E-3,2.665820345E-2,2.668474803E-2
5.107890000E-1,-1.861819997E-3,5.694096908E-4,2.665607259E-2,2.672708003E-2
5.207450000E-1,-2.415079158E-3,1.176358201E-3,2.630722523E-2,2.644402627E-2
5.307020000E-1,-1.572454930E-3,1.771574840E-3,2.656049281E-2,2.666591214E-2
5.406580000E-1,1.138449181E-3,6.520943716E-4,2.574647591E-2,2.577988198E-2
5.506140000E-1,-2.959889360E-3,9.042955935E-4,2.598456293E-2,2.616822895E-2
5.605710000E-1,-1.178250415E-3,4.072627053E-4,2.620022371E-2,2.622986579E-2
5.705270000E-1,1.567734987E-3,1.138299704E-3,2.759838104E-2,2.766629999E-2
5.804840000E-1,1.369311591E-3,1.824500971E-3,2.365979366E-2,2.376951102E-2
5.904400000E-1,2.736844821E-3,1.828496344E-3,2.437671460E-2,2.459792539E-2
6.003960000E-1,8.555390523E-4,-5.757808685E-5,2.324414626E-2,2.325995696E-2
6.103530000E-1,-9.787257295E-5,3.203237429E-4,2.291604504E-2,2.291849268E-2
6.203090000E-1,1.347127487E-3,1.524651423E-3,2.400312945E-2,2.408919961E-2
6.302660000E-1,3.167504910E-4,-4.444895312E-4,2.486599237E-2,2.487198179E-2
6.402220000E-1,-1.351194340E-3,1.563239843E-3,2.513162978E-2,2.521642838E-2
6.501780000E-1,1.749524032E-3,4.593590274E-4,2.557691000E-2,2.564079114E-2
6.601350000E-1,-2.093557734E-3,9.908275679E-4,2.592089958E-2,2.602417642E-2
6.700910000E-1,-1.669848687E-3,-7.523596287E-5,2.653502487E-2,2.658762118E-2
6.800480000E-1,4.024046939E-4,-7.151020691E-4,2.144742012E-2,2.146311092E-2
6.900040000E-1,-1.358477282E-3,-2.951221541E-4,2.574096993E-2,2.577848115E-2
6.999600000E-1,1.401282731E-3,4.044435918E-4,2.404874004E-2,2.409292563E-2
7.099170000E-1,-4.494689405E-3,2.553348430E-3,2.557233535E-2,2.608957946E-2
7.198730000E-1,-3.856106196E-4,2.431544475E-3,2.635687962E-2,2.647161135E-2
7.298300000E-1,-1.743290108E-3,4.634680226E-4,2.513581887E-2,2.520046137E-2
7.397860000E-1,-1.054528868E-3,9.833518416E-4,2.541051432E-2,2.545138995E-2
7.497430000E-1,-8.244316559E-4,-3.679357469E-4,2.311407402E-2,2.313169864E-2
7.596990000E-1,4.830426769E-4,8.377516642E-4,2.351198904E-2,2.353186747E-2
7.696550000E-1,-3.776683472E-3,1.163190231E-3,2.334234677E-2,2.367449054E-2
7.796120000E-1,1.412334270E-3,8.254088461E-4,2.100137249E-2,2.106498598E-2
7.895680000E-1,-9.181909263E-5,-3.958586603E-5,2.215718478E-2,2.215741039E-2
7.995250000E-1,-2.450176980E-3,2.384688705E-3,2.611276507E-2,2.633565278E-2
8.094810000E-1,7.954172324E-4,2.160716802E-3,2.370047569E-2,2.381205438E-2
8.194370000E-1,7.932393928E-4,1.951228827E-3,2.577321976E-2,2.585914499E-2
8.293940000E-1,2.914180979E-3,1.989045180E-3,2.339661494E-2,2.366115682E-2
8.393500000E-1,-1.822461607E-3,1.794053242E-4,1.892898418E-2,1.901736035E-2
8.493070000E-1,8.859731024E-4,2.316858619E-3,2.087149583E-2,2.101837578E-2
8.592630000E-1,5.663257325E-4,-1.249340363E-3,2.214432694E-2,2.218677065E-2
8.692190000E-1,-1.035565627E-3,7.134089246E-4,2.644213848E-2,2.647202364E-2
8.791760000E-1,-1.331573585E-3,2.102752216E-3,2.624206059E-2,2.635982547E-2
8.891320000E-1,1.119067194E-3,-1.446157694E-5,2.707909234E-2,2.710220955E-2
8.990882917E-1,1.423273003E-3,-1.962465234E-3,2.261581272E-2,2.274537229E-2
9.090442917E-1,-3.383466275E-3,-5.105100572E-4,2.221633866E-2,2.247830439E-2
9.190002917E-1,-5.675021093E-4,1.074159518E-4,2.127733268E-2,2.128517049E-2
9.289572917E-1,-9.126476943E-4,2.421703190E-3,2.077213116E-2,2.093272570E-2
9.389132917E-1,-2.283760812E-3,7.874807343E-4,2.410396561E-2,2.422471563E-2
9.488702917E-1,6.377267418E-4,-5.989605561E-4,2.468400076E-2,2.469950086E-2
9.588262917E-1,3.583547194E-3,-1.463866793E-3,2.446251735E-2,2.476690275E-2
9.687822917E-1,-1.144628972E-3,1.392106526E-3,2.325397357E-2,2.332370946E-2
9.787392917E-1,-1.803254825E-3,6.229868159E-4,2.064141445E-2,2.072939534E-2
9.886952917E-1,-6.128217792E-4,6.331074983E-4,1.827892475E-2,1.830014933E-2
9.986522917E-1,8.532450884E-4,-1.281611621E-4,1.852322370E-2,1.854330792E-2
1.008608292E0,-2.000065753E-3,-2.492781729E-3,2.077199519E-2,2.101642234E-2
1.018564292E0,2.916013356E-3,3.567263484E-4,2.131295204E-2,2.151446751E-2
1.028521292E0,-2.724295482E-3,8.009420708E-4,2.456520125E-2,2.472877689E-2
1.038477292E0,1.794114825E-3,-4.323553294E-4,2.275674045E-2,2.283144794E-2
1.048434292E0,6.066112546E-4,4.315739498E-4,2.428885922E-2,2.430026575E-2
1.058390292E0,8.476208313E-4,-3.091692924E-4,2.028867230E-2,2.030872400E-2
1.068346292E0,-6.895557744E-4,1.116106287E-4,2.030332014E-2,2.031533295E-2
1.078303292E0,6.623184308E-4,2.164174803E-3,1.929066516E-2,1.942297816E-2
1.088259292E0,-8.082791464E-4,4.589650780E-5,2.002010681E-2,2.003646921E-2
1.098216292E0,-1.740744337E-4,1.762107015E-3,2.248623595E-2,2.255584470E-2
1.108172292E0,2.057654550E-3,1.841202378E-3,2.302259579E-2,2.318758041E-2
1.118128292E0,-1.492051175E-3,1.197891310E-3,2.357325144E-2,2.365077893E-2
1.128085292E0,3.244909458E-4,1.232778654E-3,2.225445397E-2,2.229093446E-2
1.138041292E0,5.228644004E-4,6.225202233E-4,1.779595017E-2,1.781450985E-2
1.147998292E0,1.465889742E-3,8.322950453E-5,1.966682076E-2,1.972155163E-2
1.157954292E0,7.176494109E-4,1.579879783E-3,2.116957679E-2,2.124057491E-2
1.167911292E0,-7.476217579E-4,1.156703569E-3,2.020604536E-2,2.025292992E-2
1.177867292E0,1.009217231E-3,-1.031924970E-3,2.096941322E-2,2.101903136E-2
1.187823292E0,-2.263807692E-3,-4.518879578E-4,2.223281562E-2,2.235234034E-2
1.197780292E0,-5.954426015E-4,1.220755279E-3,2.440544963E-2,2.444321515E-2
1.207736292E0,-2.341411076E-3,-1.848610118E-4,2.092709392E-2,2.105848141E-2
1.217693292E0,-8.986471221E-4,-2.063184977E-3,2.166368999E-2,2.178026085E-2
1.227649292E0,1.083809999E-3,-2.679480240E-4,1.996698789E-2,1.999817606E-2
1.237605292E0,-1.492785406E-3,-2.117066644E-3,2.076757140E-2,2.092850691E-2
1.247562292E0,-1.256829244E-3,1.345309429E-3,2.135772817E-2,2.143693144E-2
1.257518292E0,-4.554876359E-4,-3.910278901E-4,2.184621990E-2,2.185446626E-2
1.267475292E0,-6.522951880E-4,-8.536195382E-4,2.549394965E-2,2.551657548E-2
1.277431292E0,1.279800083E-3,-1.318079419E-3,2.581567690E-2,2.588096589E-2
1.287387292E0,1.685665804E-3,2.105680294E-3,2.103743330E-2,2.120964305E-2
1.297344292E0,-8.588383207E-4,1.346229576E-3,2.073612809E-2,2.079752258E-2
1.307300292E0,-1.117697568E-3,7.243920118E-5,1.993078738E-2,1.996223387E-2
1.317257292E0,1.814642223E-3,-8.792430162E-5,1.847260632E-2,1.856173055E-2
1.327213292E0,-1.643206109E-3,-9.246896952E-4,2.009793557E-2,2.018618814E-2
1.337169292E0,-1.766378060E-3,2.028657123E-3,2.537152916E-2,2.551372245E-2
1.347126292E0,-1.545868115E-3,-1.185777597E-3,2.122978121E-2,2.131899123E-2
1.357082292E0,-1.002817880E-4,-3.259386867E-4,2.211128548E-2,2.211391503E-2
1.367039292E0,6.283590337E-4,-1.799976453E-4,1.936210319E-2,1.937313280E-2
1.376995292E0,-1.898688963E-3,1.087332144E-3,2.100875974E-2,2.112238852E-2
1.386951292E0,1.304028556E-3,-3.017727286E-4,2.195391431E-2,2.199467915E-2
1.396908292E0,1.258280245E-3,-2.899123356E-4,2.181701921E-2,2.185519722E-2
1.406864292E0,-3.931459505E-4,2.131434157E-3,2.292010002E-2,2.302234915E-2
1.416821292E0,5.039117532E-4,9.290035814E-5,2.025020495E-2,2.025668675E-2
1.426777292E0,1.057316549E-3,3.299219534E-4,2.023422718E-2,2.026451866E-2
1.436733292E0,4.477178445E-4,6.458545104E-4,2.141502686E-2,2.142944131E-2
1.446690292E0,-8.244741475E-4,1.266371459E-3,1.857769303E-2,1.863904860E-2
1.456646292E0,-3.589602420E-4,-3.592073917E-4,2.039755881E-2,2.040387923E-2
1.466603292E0,-2.395745832E-3,-2.558978274E-3,2.247722074E-2,2.274892130E-2
1.476559292E0,2.764551900E-3,-5.497420207E-4,2.242760919E-2,2.260403985E-2
1.486515292E0,-2.033132594E-3,9.820517153E-5,2.143877931E-2,2.153519284E-2
1.496472292E0,1.389673678E-3,1.911101863E-3,2.500950545E-2,2.512088506E-2
1.506428292E0,-7.826667279E-4,1.726278104E-3,2.060916647E-2,2.069614326E-2
1.516385292E0,-9.894985706E-4,8.021034300E-4,2.117552049E-2,2.121379611E-2
1.526341292E0,1.297624083E-3,2.225991338E-4,2.045380138E-2,2.049613060E-2
1.536297292E0,6.654233439E-4,1.214081421E-3,2.030787989E-2,2.035501824E-2
1.546254292E0,5.921864649E-4,1.141959801E-4,1.988390833E-2,1.989305246E-2
1.556210292E0,-3.288879525E-4,-9.925691411E-4,2.085609175E-2,2.088228733E-2
1.566167292E0,1.018405310E-3,-1.515429467E-4,1.988616772E-2,1.991280445E-2
1.576123292E0,2.592988545E-3,-1.372156665E-3,2.161063626E-2,2.180885149E-2
1.586079292E0,-7.998786168E-4,-1.201448031E-3,2.013125271E-2,2.018292889E-2
1.596036292E0,-1.277589356E-3,-1.368450932E-3,2.063558809E-2,2.072033756E-2
1.605992292E0,3.589231055E-4,1.647313125E-3,2.313842438E-2,2.319976615E-2
1.615949292E0,1.139243832E-4,1.273803413E-3,2.173068374E-2,2.176828358E-2
1.625905292E0,1.474801684E-4,1.202963293E-3,1.841265336E-2,1.845249779E-2
1.635861292E0,-8.826511912E-4,9.099133313E-4,1.824456826E-2,1.828855616E-2
1.645818292E0,-9.273923934E-4,1.679567620E-3,1.797292382E-2,1.807503788E-2
1.655774292E0,6.947901566E-4,1.893720590E-3,2.021774650E-2,2.031812453E-2
1.665731292E0,-1.707277261E-5,-6.956709549E-4,2.141030878E-2,2.142161459E-2
1.675687292E0,5.945046432E-4,4.552453756E-4,2.194187231E-2,2.195464517E-2
1.685643292E0,-1.610326348E-3,-3.484971821E-4,2.024170943E-2,2.030865337E-2
1.695600292E0,3.448830219E-3,-4.979027435E-4,2.339300141E-2,2.365110678E-2
1.705556292E0,2.904746216E-3,1.601200551E-3,1.876016706E-2,1.905112233E-2
1.715513292E0,1.910543651E-3,6.948076189E-4,1.825069636E-2,1.836357406E-2
1.725469292E0,-1.574735390E-3,-6.247879937E-4,2.103396505E-2,2.110208135E-2
1.735425292E0,6.408669287E-4,-5.919886753E-4,2.105730586E-2,2.107537167E-2
1.745382292E0,-2.992217429E-3,-6.218161434E-4,1.970681734E-2,1.994238377E-2
1.755338292E0,-4.729796201E-4,4.918398336E-4,2.045321092E-2,2.046459023E-2
1.765295292E0,-8.375663310E-4,5.602827296E-4,1.874665543E-2,1.877371897E-2
1.775251292E0,5.811615847E-5,-1.230677590E-3,1.820833050E-2,1.824996560E-2
1.785207292E0,7.867570384E-4,3.994433209E-4,1.777130552E-2,1.779319649E-2
1.795164292E0,6.747232983E-4,2.377340570E-4,1.766490377E-2,1.767938331E-2
1.805120292E0,-2.104285406E-3,-1.819804311E-4,1.756130718E-2,1.768786713E-2
1.815077292E0,-2.007018309E-3,1.741759479E-5,2.060705610E-2,2.070456923E-2
1.825033292E0,-1.225380576E-3,2.017717808E-3,1.941928454E-2,1.956224309E-2
1.834989292E0,2.296721097E-3,-7.789228112E-4,2.036338858E-2,2.050729731E-2
1.844946292E0,4.191924818E-4,3.358768299E-4,2.148804255E-2,2.149475536E-2
1.854902292E0,2.365766559E-4,-1.910949126E-3,1.993743144E-2,2.003019889E-2
1.864859292E0,-1.113379607E-3,9.178612381E-4,1.547796838E-2,1.554508246E-2
1.874815292E0,-1.318690134E-3,1.051473431E-3,1.621964015E-2,1.630709253E-2
1.884771292E0,-1.791401301E-3,2.400083467E-4,1.367712207E-2,1.379602808E-2
1.894728875E0,7.252568612E-4,-8.896654472E-4,1.590321958E-2,1.594458827E-2
1.904684875E0,2.133536385E-3,-6.883312017E-4,2.010488883E-2,2.022949164E-2
1.914641875E0,3.111112863E-3,-2.277750522E-3,2.345685288E-2,2.377164525E-2
1.924597875E0,-2.715608571E-5,1.227501780E-3,2.314100042E-2,2.317354954E-2
1.934554875E0,-1.712930622E-3,-7.917080075E-4,2.022954822E-2,2.031737074E-2
1.944510875E0,-6.343503483E-4,-5.321390927E-5,1.776292920E-2,1.777433222E-2
1.954466875E0,-9.527617367E-4,-2.386644483E-4,1.356309839E-2,1.359861587E-2
1.964423875E0,-1.389253768E-3,6.307195872E-5,1.387202553E-2,1.394156005E-2
1.974379875E0,-1.312189037E-3,8.648913354E-5,2.185331658E-2,2.189284737E-2
1.984335875E0,-1.325770980E-3,1.093696803E-3,2.108845487E-2,2.115837353E-2
1.994292875E0,-1.099766814E-3,-1.243398525E-3,2.482099831E-2,2.487644436E-2
2.004248875E0,-1.832668553E-3,4.477081820E-4,2.176448703E-2,2.184609833E-2
2.014205875E0,1.811063848E-3,-6.560776383E-4,1.923840865E-2,1.933460001E-2
2.024161875E0,-3.942997428E-4,-1.399632543E-3,1.447321475E-2,1.454607812E-2
2.034117875E0,-4.766905913E-4,-9.813308716E-4,1.606163010E-2,1.609863987E-2
2.044074875E0,8.736702148E-5,5.161650479E-4,1.532686129E-2,1.533579918E-2
2.054030875E0,7.393342676E-4,5.812207237E-4,2.149911039E-2,2.151966961E-2
2.063987875E0,-1.952322666E-3,9.740367532E-4,2.285172977E-2,2.295564995E-2
2.073943875E0,5.459376844E-4,-9.134132415E-5,2.267784998E-2,2.268460427E-2
2.083899875E0,-7.052153815E-4,-1.123799011E-4,2.133747935E-2,2.134942583E-2
2.093856875E0,-1.430506469E-3,5.307132378E-4,1.809453964E-2,1.815875464E-2
2.103812875E0,-2.065137960E-3,-8.778329939E-4,1.677440852E-2,1.692383428E-2
2.113769875E0,-6.127743982E-4,2.136414871E-3,1.846285537E-2,1.859614985E-2
2.123725875E0,2.436982468E-4,1.017088071E-3,1.619171351E-2,1.622545665E-2
2.133681875E0,-6.092550466E-4,-6.788885221E-4,1.944261976E-2,1.946400638E-2
2.143638875E0,-2.308884636E-3,2.848202363E-3,1.957684569E-2,1.991723104E-2
2.153594875E0,-5.560851423E-4,-4.397938028E-4,1.963440701E-2,1.964720306E-2
2.163551875E0,1.077764202E-3,-1.166037284E-3,1.822506264E-2,1.829410087E-2
2.173507875E0,-1.926472178E-4,-4.966650158E-4,2.002401277E-2,2.003109774E-2
2.183463875E0,-6.135343574E-5,-4.926696420E-4,1.736724377E-2,1.737433865E-2
2.193420875E0,-1.787300454E-3,-3.697108477E-4,1.926764287E-2,1.935389343E-2
2.203376875E0,7.719972054E-4,-7.896907628E-4,1.719064452E-2,1.722608052E-2
2.213333875E0,1.608228893E-3,1.178793609E-3,1.863919571E-2,1.874554804E-2
2.223289875E0,-4.452886060E-5,-1.317476854E-4,1.791188493E-2,1.791242480E-2
2.233245875E0,-3.095172346E-3,6.012059748E-5,1.757673547E-2,1.784727811E-2
2.243202875E0,-1.297804993E-3,6.212480366E-4,2.071101218E-2,2.076093140E-2
2.253158875E0,-1.689674216E-3,6.149327382E-4,1.804891042E-2,1.813825539E-2
2.263115875E0,-3.904686309E-5,-6.417371333E-5,1.525472291E-2,1.525490786E-2
2.273071875E0,-1.969621750E-3,-3.791479394E-4,1.714741439E-2,1.726432689E-2
2.283027875E0,-1.427934738E-3,2.237407491E-3,1.948060840E-2,1.966059749E-2
2.292984875E0,8.900238900E-4,1.199817285E-3,2.297369018E-2,2.302220981E-2
2.302940875E0,-3.303123172E-3,4.498716444E-4,2.414335310E-2,2.437241281E-2
2.312897875E0,-1.488330308E-4,-7.305731997E-4,2.045561001E-2,2.046919317E-2
2.322853875E0,-4.606891889E-4,-4.135424271E-3,1.853387430E-2,1.899522217E-2
2.332809875E0,7.161073154E-4,-5.420614034E-4,1.538369432E-2,1.540988940E-2
2.342766875E0,-1.518817386E-3,-1.606261358E-3,1.613097638E-2,1.628174686E-2
2.352722875E0,-9.377523093E-4,-5.178954452E-4,1.658635214E-2,1.662091070E-2
2.362679875E0,1.915824716E-3,-8.196309209E-4,1.719328761E-2,1.731910269E-2
2.372635875E0,-5.116453394E-5,-3.564786166E-4,2.006591484E-2,2.006914630E-2
2.382591875E0,2.555271145E-3,-1.867289655E-3,1.834631339E-2,1.861728756E-2
2.392548875E0,9.483506437E-5,-5.396390334E-4,2.035913989E-2,2.036651126E-2
2.402504875E0,-1.323031960E-3,-7.798559964E-4,2.153705806E-2,2.159174515E-2
2.412461875E0,-1.909794519E-3,6.302595139E-4,1.891628653E-2,1.902289248E-2
2.422417875E0,-5.117442925E-5,-5.801478401E-4,1.480969042E-2,1.482113763E-2
2.432373875E0,2.274767030E-5,-1.071992330E-3,1.499187015E-2,1.503016486E-2
2.442330875E0,-1.113623264E-3,-1.566541381E-3,1.543076150E-2,1.555000351E-2
2.452286875E0,-1.350455685E-3,9.957682341E-4,1.838231832E-2,1.845873538E-2
2.462243875E0,-1.303051598E-3,-2.196296118E-3,1.925396919E-2,1.942258968E-2
2.472199875E0,-3.495168407E-3,-8.687470108E-5,2.132800780E-2,2.161267374E-2
2.482155875E0,-8.647643263E-4,5.834428594E-4,1.986007579E-2,1.988745416E-2
2.492112875E0,1.894889865E-3,-5.785375834E-5,1.817005128E-2,1.826868134E-2
2.502068875E0,-1.170408446E-3,8.569099009E-5,1.711277664E-2,1.715296835E-2
2.512025875E0,-7.968621794E-4,4.841154441E-4,1.545310766E-2,1.548121098E-2
2.521981875E0,6.347196177E-6,-6.477283314E-4,1.538466290E-2,1.539829356E-2
2.531937875E0,-2.904760186E-4,-7.811514661E-4,1.906092651E-2,1.907913765E-2
2.541894875E0,1.385592623E-4,-1.518847421E-3,1.959435828E-2,1.965362492E-2
2.551850875E0,-2.159118885E-4,6.318064407E-4,2.202234976E-2,2.203246891E-2
2.561806875E0,7.729197969E-4,-4.395833239E-4,1.795943268E-2,1.798143099E-2
2.571763875E0,1.229726011E-3,-2.989997156E-3,1.835623570E-2,1.863876868E-2
2.581719875E0,-2.219866728E-3,-1.134039834E-3,1.913520880E-2,1.929689277E-2
2.591676875E0,-1.962390495E-3,-7.833773270E-4,1.762969419E-2,1.775586590E-2
2.601632875E0,-9.333449416E-4,-9.144051000E-4,1.579025015E-2,1.584421880E-2
2.611588875E0,-3.291196190E-4,-1.597370952E-3,1.792532578E-2,1.799936716E-2
2.621545875E0,-8.623918984E-5,-5.518142134E-4,1.892267913E-2,1.893091972E-2
2.631501875E0,-3.575929441E-4,-1.435866579E-3,1.954778284E-2,1.960370882E-2
2.641458875E0,-1.135502243E-3,-2.582166344E-4,1.696664467E-2,1.700655970E-2
2.651414875E0,-6.930064410E-4,6.094761193E-4,1.560175046E-2,1.562902225E-2
2.661370875E0,-7.665096782E-4,2.994844690E-4,1.649817079E-2,1.651868238E-2
2.671327875E0,-4.648866598E-4,6.092227995E-4,1.876237988E-2,1.877802362E-2
2.681283875E0,-2.574642655E-3,-8.326126263E-4,2.053018659E-2,2.070774228E-2
2.691240875E0,-1.710909535E-3,-4.144720733E-4,1.966222748E-2,1.974087607E-2
2.701196875E0,6.571733393E-4,-1.329001971E-3,1.864570007E-2,1.870455169E-2
2.711152875E0,-1.180626452E-3,1.081349328E-3,1.802267879E-2,1.809364933E-2
2.721109875E0,-2.290099626E-3,-4.560928792E-4,1.451849192E-2,1.470507344E-2
2.731065875E0,-4.284729948E-4,-1.677254215E-3,1.657597348E-2,1.666612335E-2
2.741022875E0,2.668250818E-3,-1.500952989E-3,1.937229186E-2,1.961270288E-2
2.750978875E0,2.783915261E-4,-3.646966070E-4,2.127917297E-2,2.128411868E-2
2.760934875E0,-2.345621120E-3,-3.039762378E-4,2.047596313E-2,2.061211794E-2
2.770891875E0,-7.850362454E-5,8.501904085E-4,1.606147736E-2,1.608415499E-2
2.780847875E0,1.025376609E-3,-1.895073801E-4,1.446784288E-2,1.450537100E-2
2.790804875E0,-7.414660649E-4,1.041609794E-4,1.215838827E-2,1.218142138E-2
2.800760875E0,-3.226194996E-3,-1.109441742E-3,1.528120972E-2,1.565741248E-2
2.810716875E0,-2.264408162E-3,-8.549978957E-4,1.897552051E-2,1.912926931E-2
2.820673875E0,1.535390038E-3,-1.133830287E-3,1.828310080E-2,1.838245817E-2
2.830629875E0,-2.010720316E-3,-4.008505493E-5,1.935606450E-2,1.946026300E-2
2.840586875E0,-6.128271343E-4,1.147950999E-3,1.939308271E-2,1.943669225E-2
2.850542875E0,6.081733154E-4,-6.385026500E-4,1.616853848E-2,1.619256610E-2
2.860498875E0,1.310981461E-3,1.082964242E-3,1.698639616E-2,1.707129575E-2
2.870455875E0,1.866180683E-4,5.901968107E-4,1.921362244E-2,1.922359086E-2
2.880411875E0,4.899521591E-4,5.065733567E-4,2.035212331E-2,2.036432156E-2
2.890368875E0,7.791654207E-4,3.380794078E-5,1.883756369E-2,1.885370117E-2
2.900325250E0,1.233767020E-3,-2.728156745E-3,1.799813658E-2,1.824549097E-2
2.910281250E0,2.752351575E-4,-9.269006550E-4,1.618424803E-2,1.621310530E-2
2.920238250E0,-1.889914740E-3,-2.478458919E-3,1.731689274E-2,1.759515020E-2
2.930194250E0,4.921833752E-4,-2.754903398E-3,1.968070865E-2,1.987868280E-2
2.940151250E0,1.397125423E-3,6.329035386E-4,2.062932774E-2,2.068626814E-2
2.950107250E0,1.005024416E-3,5.316734314E-4,1.920508780E-2,1.923871482E-2
2.960063250E0,-7.292261580E-4,6.128996611E-4,2.092229389E-2,2.094396806E-2
2.970020250E0,6.978759775E-4,8.941115811E-4,1.905968599E-2,1.909340453E-2
2.979976250E0,-1.054483932E-3,-4.039146006E-5,1.624818332E-2,1.628241472E-2
2.989932250E0,-2.759180730E-3,-1.745414920E-3,1.363161765E-2,1.401715204E-2
2.999889250E0,2.525880700E-4,4.532905295E-4,1.501113735E-2,1.502010378E-2
3.009845250E0,-1.817259472E-4,-1.212091185E-3,1.837256551E-2,1.841340144E-2
3.019802250E0,1.037202775E-3,1.866523176E-3,2.034250647E-2,2.045427260E-2
3.029758250E0,1.766140573E-3,2.912227064E-4,2.221844718E-2,2.229043423E-2
3.039714250E0,-1.988117583E-3,-6.990227848E-5,2.124293149E-2,2.133587673E-2
3.049671250E0,6.502009928E-4,1.615804620E-3,1.851164550E-2,1.859340219E-2
3.059627250E0,-1.074994798E-3,-1.001017168E-3,1.845225692E-2,1.851063031E-2
3.069584250E0,-2.014846541E-3,1.011264510E-3,1.511633024E-2,1.528351080E-2
3.079540250E0,-7.514428580E-4,3.590555862E-4,1.864395291E-2,1.866254450E-2
3.089496250E0,-1.112594036E-4,9.880261496E-4,1.902906410E-2,1.905502178E-2
3.099453250E0,3.398801200E-4,1.573860645E-4,2.066824026E-2,2.067163381E-2
3.109409250E0,1.206679735E-3,2.190499566E-3,1.933027618E-2,1.949138121E-2
3.119366250E0,1.781668980E-4,-3.573466092E-4,1.619973220E-2,1.620465252E-2
3.129322250E0,4.920334322E-4,2.127209678E-3,1.670143008E-2,1.684354134E-2
3.139278250E0,-1.139418921E-3,-9.929500520E-4,1.635042578E-2,1.642012937E-2
3.149235250E0,1.372309984E-3,-3.220457584E-4,1.857846417E-2,1.863186193E-2
3.159191250E0,4.798846785E-4,-2.314979210E-4,2.195269056E-2,2.195915534E-2
3.169148250E0,-1.142070629E-3,1.804622822E-3,1.845006272E-2,1.857325505E-2
3.179104250E0,-2.677547745E-4,7.550707087E-4,2.115210518E-2,2.116727139E-2
3.189060250E0,1.098045846E-3,-1.468665898E-3,1.781945862E-2,1.791356440E-2
3.199017250E0,5.206725327E-4,-4.460122436E-4,1.520023681E-2,1.521569012E-2
3.208973250E0,1.955359243E-3,4.789624363E-4,1.543723792E-2,1.556795264E-2
3.218930250E0,-1.016728464E-3,-9.926995263E-4,2.003492042E-2,2.008524895E-2
3.228886250E0,1.232914161E-3,2.068779431E-3,1.905541681E-2,1.920699965E-2
3.238842250E0,2.536699176E-4,-1.916640438E-3,2.066556178E-2,2.075580166E-2
3.248799250E0,1.018601353E-3,-6.651477888E-4,1.981633529E-2,1.985364235E-2
3.258755250E0,-2.020331565E-3,-6.752675399E-4,1.635262743E-2,1.649078984E-2
3.268712250E0,-1.637276728E-4,-1.480790786E-3,1.539330743E-2,1.546523397E-2
3.278668250E0,1.147346455E-3,1.619128510E-3,1.383855380E-2,1.398011274E-2
3.288624250E0,9.788351599E-4,-4.513021559E-4,1.683859713E-2,1.687305975E-2
3.298581250E0,-1.609490952E-3,1.035007648E-3,2.010682784E-2,2.019767877E-2
3.308537250E0,1.303353463E-3,1.049512997E-3,2.061121538E-2,2.067903304E-2
3.318494250E0,2.821887843E-3,-4.904065281E-5,2.325413376E-2,2.342477733E-2
3.328450250E0,-5.894465139E-4,1.978212968E-4,1.885678619E-2,1.886703384E-2
3.338406250E0,-2.090936992E-3,-1.583300531E-3,1.932816580E-2,1.950530316E-2
3.348363250E0,3.012743313E-3,-8.513182402E-4,1.227739081E-2,1.267026796E-2
3.358319250E0,1.019083429E-4,-5.679577589E-4,1.587053016E-2,1.588101662E-2
3.368275250E0,-5.971941864E-4,-7.310556248E-4,1.781787723E-2,1.784286503E-2
3.378232250E0,4.883102374E-4,1.916925423E-3,1.799604297E-2,1.810443626E-2
3.388188250E0,-1.388046076E-3,3.140419722E-4,2.166144736E-2,2.170814585E-2
3.398145250E0,1.458074199E-3,3.065620549E-3,1.744593121E-2,1.777314057E-2
3.408101250E0,-2.305397531E-3,1.723958179E-3,1.616704091E-2,1.642133069E-2
3.418057250E0,1.756033162E-4,3.676107153E-4,1.427779719E-2,1.428360833E-2
3.428014250E0,3.451339435E-4,-2.219509333E-4,1.454407722E-2,1.454986466E-2
3.437970250E0,-9.283896070E-4,-8.506421000E-5,1.396963373E-2,1.400070747E-2
3.447927250E0,-5.222379696E-5,4.341527820E-4,1.593364403E-2,1.593964328E-2
3.457883250E0,-2.107651439E-3,-9.062159806E-4,1.592592150E-2,1.609032000E-2
3.467839250E0,-1.190355979E-3,5.294196308E-4,1.847438887E-2,1.852026664E-2
3.477796250E0,-1.664398704E-3,-6.618117914E-4,2.032927796E-2,2.040803176E-2
3.487752250E0,1.436829218E-3,-9.263725951E-4,1.996941678E-2,2.004246120E-2
3.497709250E0,-8.201998426E-4,-2.829525620E-4,1.709826477E-2,1.712026425E-2
3.507665250E0,2.694765572E-3,1.636410132E-3,1.714167185E-2,1.742918568E-2
3.517621250E0,1.593548455E-3,-1.725563779E-3,1.237008907E-2,1.259111078E-2
3.527578250E0,7.815113058E-4,-6.488915533E-4,1.584206522E-2,1.587459765E-2
3.537534250E0,-7.975497283E-5,-6.574140862E-4,1.735686883E-2,1.736949769E-2
3.547491250E0,-7.055462338E-4,-3.521901555E-3,1.705038548E-2,1.742461566E-2
3.557447250E0,1.236963551E-3,-9.301127866E-4,1.946853474E-2,1.952995221E-2
3.567403250E0,-7.745495532E-5,-2.899922431E-3,1.688682288E-2,1.713418619E-2
3.577360250E0,-2.353801392E-6,-1.992849633E-3,1.557042077E-2,1.569743477E-2
3.587316250E0,2.755634487E-3,-1.203591004E-3,1.324206591E-2,1.357919225E-2
3.597273250E0,-1.119797584E-3,7.602237165E-4,1.566181332E-2,1.572018712E-2
3.607229250E0,-2.279784065E-3,-1.972367056E-3,1.639361307E-2,1.666847914E-2
3.617185250E0,-8.081179112E-5,-1.672757789E-4,1.517814398E-2,1.517928082E-2
3.627142250E0,2.398906508E-4,-2.253069542E-3,1.404509135E-2,1.422668130E-2
3.637098250E0,8.047471056E-4,3.140896559E-3,1.678654738E-2,1.709681321E-2
3.647055250E0,-1.892141881E-3,-9.046318009E-4,1.745734550E-2,1.758287438E-2
3.657011250E0,1.823500381E-3,6.333440542E-4,1.638169400E-2,1.649503491E-2
3.666967250E0,-5.610287189E-6,-7.396927103E-4,1.788242720E-2,1.789771995E-2
3.676924250E0,-1.459163614E-3,1.065663993E-3,1.647601463E-2,1.657479581E-2
3.686880250E0,1.769494731E-3,-2.301515080E-3,1.681850851E-2,1.706722917E-2
3.696836250E0,1.213693060E-3,3.477977589E-4,1.445681974E-2,1.451184520E-2
3.706793250E0,-3.273150651E-4,-1.222716644E-3,1.360208541E-2,1.366085278E-2
3.716749250E0,-2.255177591E-3,-5.920799449E-4,1.614699885E-2,1.631447077E-2
3.726706250E0,-1.067219768E-3,2.030562609E-4,1.380108669E-2,1.384377780E-2
3.736662250E0,-1.236618264E-4,-6.329100579E-4,1.478459314E-2,1.479865067E-2
3.746618250E0,2.848592121E-4,5.353167653E-4,1.666989923E-2,1.668092470E-2
3.756575250E0,1.097389613E-3,-1.335820183E-3,1.656337455E-2,1.665334969E-2
3.766531250E0,-3.875117516E-3,-7.657734677E-4,1.830212027E-2,1.872352934E-2
3.776488250E0,-5.847821012E-4,-1.218207181E-4,1.691940799E-2,1.692994912E-2
3.786444250E0,4.158612574E-4,-6.577782333E-4,1.360360347E-2,1.362584456E-2
3.796400250E0,-2.525067423E-3,-7.981266826E-4,1.376152970E-2,1.401401696E-2
3.806357250E0,-2.142308746E-3,-1.450926065E-3,1.415959746E-2,1.439405688E-2
3.816313250E0,-2.153760288E-3,2.170111984E-4,1.549357548E-2,1.564406145E-2
3.826270250E0,2.595714759E-4,3.069505095E-3,2.312270366E-2,2.332699430E-2
3.836226250E0,-3.098123707E-4,-9.886194021E-4,1.990373991E-2,1.993068525E-2
3.846182250E0,1.410055207E-3,1.235073432E-4,1.634089276E-2,1.640208176E-2
3.856139250E0,-9.335265495E-4,-8.522747084E-4,1.407880336E-2,1.413543590E-2
3.866095250E0,2.585049951E-4,2.324800007E-3,1.284163073E-2,1.305293069E-2
3.876052250E0,-6.331213517E-4,1.894775778E-4,1.461929083E-2,1.463422047E-2
3.886008250E0,-1.554886112E-4,-4.281634465E-4,1.500972733E-2,1.501663794E-2
3.895963500E0,2.269585850E-3,-6.011500955E-5,1.597246155E-2,1.613301465E-2
3.905920500E0,3.953658743E-4,-1.127057709E-3,1.647332683E-2,1.651656956E-2
3.915876500E0,3.316853661E-3,1.164060086E-3,1.684191078E-2,1.720483981E-2
3.925833500E0,2.161588054E-5,7.507950068E-4,1.561377756E-2,1.563183323E-2
3.935789500E0,-2.308516996E-4,-6.239283830E-4,1.426941715E-2,1.428491670E-2
3.945745500E0,9.098081500E-4,-1.557352021E-3,1.491290703E-2,1.502158089E-2
3.955702500E0,-1.915539382E-3,-1.720070839E-3,1.380556449E-2,1.404355887E-2
3.965658500E0,-5.837096833E-4,-5.826400593E-4,1.692112722E-2,1.694121403E-2
3.975614500E0,-1.072399551E-3,5.217725411E-4,1.588462479E-2,1.592933119E-2
3.985571500E0,1.022367738E-3,-1.754101366E-3,1.731862873E-2,1.743723053E-2
3.995527500E0,5.629723892E-4,7.452759892E-4,1.233531907E-2,1.237062936E-2
4.005484500E0,-1.835422823E-3,-3.121350892E-3,1.359181851E-2,1.406588564E-2
4.015440500E0,8.682183689E-4,1.914686523E-3,1.502326876E-2,1.516965497E-2
4.025396500E0,-2.149596810E-3,9.008590132E-5,1.564524882E-2,1.579248848E-2
4.035353500E0,-9.410541970E-4,9.994022548E-5,1.365506835E-2,1.368782170E-2
4.045309500E0,1.610369538E-3,-1.072411425E-3,1.675984263E-2,1.687114938E-2
4.055266500E0,-7.567775901E-5,-9.272685274E-4,1.615743339E-2,1.618419624E-2
4.065222500E0,7.798448205E-4,2.035998739E-3,1.557656005E-2,1.572840335E-2
4.075178500E0,-3.677111818E-4,-1.084160991E-3,1.565885171E-2,1.570064500E-2
4.085135500E0,6.715862546E-4,-3.009280190E-4,1.352395862E-2,1.354396702E-2
4.095091500E0,1.784521271E-3,-5.378667265E-5,1.340864226E-2,1.352697662E-2
4.105048500E0,-2.233342268E-3,-2.600904554E-4,1.525740512E-2,1.542218777E-2
4.115004500E0,-1.710830024E-3,6.485795602E-4,1.650563069E-2,1.660672873E-2
4.124960500E0,5.930679617E-4,-8.900966495E-4,1.566613838E-2,1.570260785E-2
4.134917500E0,-8.053578204E-4,6.651896983E-4,1.602699980E-2,1.606100250E-2
4.144873500E0,5.695195869E-4,-2.080839127E-3,1.231626794E-2,1.250378742E-2
4.154830500E0,-3.085935488E-3,1.664364710E-3,1.367021725E-2,1.411268746E-2
4.164786500E0,7.270426722E-4,-1.449800096E-3,1.463150606E-2,1.472112363E-2
4.174742500E0,-1.049019513E-3,3.784149885E-5,1.267994195E-2,1.272331725E-2
4.184699500E0,-1.904620673E-3,-1.198879443E-3,1.467444003E-2,1.484601232E-2
4.194655500E0,-1.295555732E-3,-5.171103403E-4,1.843775436E-2,1.849044763E-2
4.204611500E0,-1.206852030E-3,4.946812987E-5,1.683196798E-2,1.687525066E-2
4.214568500E0,-1.746142050E-3,7.227146998E-4,1.355761290E-2,1.368868862E-2
4.224524500E0,1.214130665E-3,-5.028462037E-4,1.477365196E-2,1.483198435E-2
4.234481500E0,1.806950313E-3,1.103838906E-3,1.375579089E-2,1.391780560E-2
4.244437500E0,2.535573440E-3,-5.699926987E-4,1.124311611E-2,1.153957037E-2
4.254393500E0,-2.033345634E-3,-4.757167771E-4,1.564665139E-2,1.578538883E-2
4.264350500E0,-2.423709957E-4,1.504270360E-3,1.272961684E-2,1.282048040E-2
4.274306500E0,1.218905556E-3,-1.485660672E-3,1.408356614E-2,1.421406887E-2
4.284263500E0,1.958681736E-3,-6.139688194E-4,1.501555927E-2,1.515521072E-2
4.294219500E0,-2.593991812E-3,4.383176565E-5,9.283902124E-3,9.639582635E-3
4.304175500E0,-1.261376659E-3,7.899384946E-5,1.342086494E-2,1.348024209E-2
4.314132500E0,1.739739557E-3,2.450538799E-3,1.354869828E-2,1.387800631E-2
4.324088500E0,-8.252584375E-4,3.094784915E-4,1.604536735E-2,1.606955636E-2
4.334045500E0,-9.964997880E-4,-3.155656159E-4,1.625735499E-2,1.629092339E-2
4.344001500E0,2.669493435E-3,9.201755747E-4,1.103566401E-2,1.139117195E-2
4.353957500E0,1.109147444E-3,8.304268122E-4,1.243541948E-2,1.251237286E-2
4.363914500E0,5.225507775E-4,-6.162747741E-4,1.110059768E-2,1.112996508E-2
4.373870500E0,-1.124347909E-3,2.909451723E-6,1.431583241E-2,1.435991728E-2
4.383827500E0,-1.782649662E-3,2.875886858E-4,1.360579208E-2,1.372509108E-2
4.393783500E0,-1.554582268E-4,-1.576915383E-4,1.371604577E-2,1.371783311E-2
4.403739500E0,-6.036410341E-4,-5.168979988E-4,1.454824954E-2,1.456993929E-2
4.413696500E0,-5.293389549E-4,3.650691360E-5,1.219534501E-2,1.220688218E-2
4.423652500E0,-3.038202878E-3,1.452925615E-3,1.160054468E-2,1.207949942E-2
4.433608500E0,-5.950191990E-4,2.667531371E-4,1.134967618E-2,1.136839278E-2
4.443565500E0,1.179079060E-3,-1.514104195E-3,1.439693198E-2,1.452426898E-2
4.453521500E0,1.754588215E-3,8.318750188E-4,1.642412692E-2,1.653851689E-2
4.463478500E0,1.199608669E-3,-8.510714397E-4,1.651751623E-2,1.658287447E-2
4.473434500E0,1.717859763E-3,-2.827532589E-4,1.272597164E-2,1.284450644E-2
4.483390500E0,1.560202567E-3,-1.664390787E-3,1.154946536E-2,1.177261988E-2
4.493347500E0,1.091752551E-3,-6.206985563E-4,1.343924552E-2,1.349779651E-2
4.503303500E0,-2.979568671E-4,1.094532199E-3,1.244770549E-2,1.249928602E-2
4.513260500E0,-3.289219690E-3,-1.606445760E-3,1.441844739E-2,1.487586163E-2
4.523216500E0,-1.994602848E-3,-6.190259010E-4,1.467169076E-2,1.481958648E-2
4.533172500E0,-9.410561761E-4,-8.408669382E-4,1.289083436E-2,1.295246133E-2
4.543129500E0,-1.176003134E-4,1.787766814E-5,9.481295943E-3,9.482042091E-3
4.553085500E0,9.465357289E-5,-3.128862008E-4,1.028743386E-2,1.029262613E-2
4.563042500E0,-2.813027240E-4,-2.708241343E-3,1.198675297E-2,1.229210923E-2
4.572998500E0,-2.426868305E-4,-2.098644152E-3,1.229754649E-2,1.247769425E-2
4.582954500E0,1.761913765E-3,6.310818717E-4,1.526465081E-2,1.537895213E-2
4.592911500E0,1.282544807E-3,-1.353771426E-3,1.437808387E-2,1.449851420E-2
4.602867500E0,1.373489620E-3,3.362912685E-5,1.446796209E-2,1.453304963E-2
4.612824500E0,7.713488303E-4,-7.735751569E-4,1.658624038E-2,1.662217698E-2
4.622780500E0,-1.181351021E-3,-1.997232437E-3,1.577410847E-2,1.594387110E-2
4.632736500E0,-1.175225712E-3,-5.388855934E-4,1.512908936E-2,1.518423188E-2
4.642693500E0,-2.025050344E-4,-1.811434515E-3,1.294608042E-2,1.307376386E-2
4.652649500E0,7.679510163E-4,1.185582951E-4,1.139532030E-2,1.142178311E-2
4.662606500E0,1.258323900E-3,-8.327309042E-4,1.273345575E-2,1.282254714E-2
4.672562500E0,1.831702422E-3,-5.024988204E-4,1.070279628E-2,1.087002700E-2
4.682518500E0,-2.496790839E-4,-1.748898998E-3,1.403381303E-2,1.414457124E-2
4.692475500E0,1.911209896E-3,-2.390454523E-3,1.338639855E-2,1.373181206E-2
4.702431500E0,1.402191119E-3,1.089216210E-3,1.454530098E-2,1.465326968E-2
4.712387500E0,-2.296406776E-3,4.063816741E-4,1.360733621E-2,1.380573174E-2
4.722344500E0,3.115664469E-3,-6.651347503E-4,9.389808401E-3,9.915557026E-3
4.732300500E0,-1.170426840E-3,-3.365008160E-4,1.018023305E-2,1.025281799E-2
4.742257500E0,-2.408191562E-3,1.354611479E-3,1.163382083E-2,1.195743058E-2
4.752213500E0,1.447000424E-3,1.214529388E-3,1.698331535E-2,1.708806285E-2
4.762169500E0,3.341716481E-3,-1.913309097E-5,1.732224226E-2,1.764164142E-2
4.772126500E0,-4.623427521E-4,-1.678016037E-3,1.345053688E-2,1.356268561E-2
4.782082500E0,-2.206719946E-4,6.599817425E-4,9.161664173E-3,9.188055423E-3
4.792039500E0,-5.061628763E-4,1.129496843E-3,8.819980547E-3,8.906403361E-3
4.801995500E0,1.573602785E-3,1.136155799E-3,9.849026799E-3,1.003844632E-2
4.811951500E0,-1.269321656E-3,-4.271194339E-4,1.565924659E-2,1.571641220E-2
4.821908500E0,1.861436060E-3,1.251328737E-3,1.736202277E-2,1.750630180E-2
4.831864500E0,8.803710807E-5,-4.467023537E-4,1.814259402E-2,1.814830602E-2
4.841821500E0,-1.243098639E-3,1.026764512E-4,1.786617376E-2,1.790966224E-2
4.851777500E0,2.983337734E-3,3.293110058E-4,9.900925681E-3,1.034587256E-2
4.861733500E0,-1.029543346E-3,6.740791723E-4,8.850891143E-3,8.936029110E-3
4.871690500E0,-1.826627413E-3,6.453171372E-4,6.619960070E-3,6.897599092E-3
4.881646500E0,-1.215888886E-3,-9.924536571E-4,1.207461208E-2,1.217619017E-2
4.891603500E0,-9.967107326E-4,-2.023763955E-6,1.320992038E-2,1.324746892E-2
4.901559750E0,-2.539175097E-3,7.019843906E-5,1.489176415E-2,1.510685200E-2
4.911515750E0,3.013524693E-4,-1.767914742E-3,1.663213782E-2,1.672854878E-2
4.921472750E0,2.635198645E-3,-6.153173745E-4,1.718357205E-2,1.739534524E-2
4.931428750E0,3.725771094E-4,-5.316948518E-4,9.470261633E-3,9.492490112E-3
4.941385750E0,-5.847779103E-4,-1.487974077E-5,6.969079375E-3,6.993586630E-3
4.951341750E0,7.486668183E-4,2.554310486E-4,7.205832750E-3,7.249122198E-3
4.961297750E0,2.736224094E-3,-1.149263233E-3,9.788794443E-3,1.022879391E-2
4.971254750E0,-8.001873503E-4,-6.637685001E-4,1.392042078E-2,1.395919063E-2
4.981210750E0,-1.622989192E-3,-3.901524469E-4,1.682223752E-2,1.690485102E-2
4.991166750E0,3.264447441E-4,-5.227783695E-4,1.841108128E-2,1.842139456E-2
5.001123750E0,9.171034326E-4,-5.465317518E-4,1.469144225E-2,1.473018164E-2
5.011079750E0,-5.095556844E-5,-7.568486035E-5,1.258435100E-2,1.258468175E-2
5.021036750E0,2.234331565E-3,1.503890380E-4,8.132349700E-3,8.435043927E-3
5.030992750E0,1.001820667E-3,8.870195597E-4,9.614400566E-3,9.707066837E-3
5.040948750E0,4.553225590E-4,2.958121710E-3,1.253665984E-2,1.288897368E-2
5.050905750E0,1.716959523E-4,1.669418067E-3,1.436359063E-2,1.446129911E-2
5.060861750E0,5.749625852E-4,1.601505093E-3,1.480459236E-2,1.490205876E-2
5.070818750E0,-2.109770197E-3,-1.065118238E-3,1.751329191E-2,1.767204008E-2
5.080774750E0,-1.763035078E-3,1.190843992E-3,1.359177381E-2,1.375727870E-2
5.090730750E0,3.866686020E-4,-1.135729253E-4,1.087801531E-2,1.088547787E-2
5.100687750E0,-8.415088523E-4,-3.918409348E-4,9.221330285E-3,9.267934435E-3
5.110643750E0,1.341750612E-3,-9.641544893E-4,8.780840784E-3,8.934934441E-3
5.120600750E0,-3.336745780E-3,-2.628560178E-3,1.228186674E-2,1.299567050E-2
5.130556750E0,-3.657230409E-4,1.243492588E-4,1.471919008E-2,1.472425796E-2
5.140512750E0,3.076887224E-4,-3.074128181E-4,1.487388462E-2,1.488024256E-2
5.150469750E0,-1.514712465E-3,7.182080299E-5,1.774131134E-2,1.780600012E-2
5.160425750E0,-1.478004968E-3,-2.532238141E-3,1.448450610E-2,1.477828291E-2
5.170382750E0,4.392047413E-4,1.328546554E-3,1.219765097E-2,1.227764741E-2
5.180338750E0,1.265120925E-3,-2.560270950E-4,8.515316993E-3,8.612589873E-3
5.190294750E0,-8.899089880E-4,-5.788020790E-4,9.701754898E-3,9.759661774E-3
5.200251750E0,1.811074209E-3,1.620660536E-3,1.121361181E-2,1.147395399E-2
5.210207750E0,-3.125095041E-3,-1.104551367E-3,1.082692295E-2,1.132291983E-2
5.220163750E0,1.137792133E-4,6.640199572E-4,1.176010445E-2,1.177938559E-2
5.230120750E0,-2.534707310E-4,2.783937380E-4,1.220352203E-2,1.220932841E-2
5.240076750E0,6.470592925E-4,-1.290457323E-3,1.205247268E-2,1.213861868E-2
5.250033750E0,-2.485583536E-6,2.534907311E-3,1.132010296E-2,1.160045224E-2
5.259989750E0,-1.933740452E-3,-4.640733823E-4,1.043198630E-2,1.061984249E-2
5.269945750E0,1.056190347E-3,2.254191786E-4,1.030069217E-2,1.035715265E-2
5.279902750E0,-2.218683483E-3,2.364260145E-3,1.273135468E-2,1.313771953E-2
5.289858750E0,1.320657437E-3,-1.163363457E-3,1.443258300E-2,1.453949802E-2
5.299815750E0,8.954752120E-4,-7.975688204E-4,1.546929404E-2,1.551570334E-2
5.309771750E0,-1.125065144E-3,-1.288389787E-3,1.305380464E-2,1.316539157E-2
5.319727750E0,-4.667750327E-4,6.100535393E-5,1.185489818E-2,1.186424088E-2
5.329684750E0,2.890301403E-4,-3.749541938E-4,9.916383773E-3,9.927678289E-3
5.339640750E0,2.084848005E-3,-1.942684874E-3,8.048966527E-3,8.538529023E-3
5.349597750E0,1.440895721E-3,-7.256204262E-4,1.152306050E-2,1.163544708E-2
5.359553750E0,-2.381451428E-3,1.069155522E-3,1.037789881E-2,1.070117695E-2
5.369509750E0,1.472199801E-4,-8.110366762E-4,1.348154619E-2,1.350672210E-2
5.379466750E0,2.675840398E-3,-1.781101339E-3,1.253664307E-2,1.294217383E-2
5.389422750E0,8.792718872E-4,-6.977273151E-4,1.592658274E-2,1.596608844E-2
5.399379750E0,-1.752988552E-3,1.216053031E-3,1.160965115E-2,1.180405666E-2
5.409335750E0,2.393223112E-4,-5.581453443E-4,1.044505090E-2,1.046269036E-2
5.419291750E0,3.968271194E-4,6.434768438E-4,1.037390903E-2,1.040141926E-2
5.429248750E0,1.517751720E-3,-1.439647749E-3,1.337528974E-2,1.353789243E-2
5.439204750E0,-1.378682326E-3,-1.251498237E-3,1.326451078E-2,1.339456080E-2
5.449160750E0,-6.212793523E-4,-1.344176009E-3,1.494629681E-2,1.501947354E-2
5.459117750E0,8.475070354E-5,-2.489611506E-4,1.518994197E-2,1.519221845E-2
5.469073750E0,4.978070501E-4,9.105792269E-4,1.621286198E-2,1.624604137E-2
5.479030750E0,5.798743805E-4,7.134433836E-4,1.313216239E-2,1.316430571E-2
5.488986750E0,9.384751320E-5,-1.337090507E-4,9.101200849E-3,9.102666772E-3
5.498942750E0,-8.837492205E-4,1.011394896E-3,8.538164198E-3,8.643157999E-3
5.508899750E0,5.652765976E-4,-1.705158502E-4,1.224768162E-2,1.226190517E-2
5.518855750E0,-5.311607383E-4,1.208955422E-3,1.114274748E-2,1.122071862E-2
5.528812750E0,2.666496672E-3,9.106816724E-4,1.494734176E-2,1.521060719E-2
5.538768750E0,2.683629282E-3,-2.546739765E-3,1.247062534E-2,1.300785324E-2
5.548724750E0,1.214895863E-3,3.678230569E-4,1.176249236E-2,1.183078578E-2
5.558681750E0,1.455822494E-4,-1.422210597E-3,9.412538260E-3,9.520491252E-3
5.568637750E0,3.062276170E-3,-3.329776227E-4,1.103600115E-2,1.145782400E-2
5.578594750E0,-2.143149730E-3,-1.608692110E-4,9.882491082E-3,1.011348603E-2
5.588550750E0,6.699474761E-4,7.845526561E-4,1.532546058E-2,1.536014631E-2
5.598506750E0,-7.819498423E-4,-1.287355088E-3,1.551343314E-2,1.558638305E-2
5.608463750E0,-4.913988523E-4,-2.476572990E-4,1.509398408E-2,1.510401147E-2
5.618419750E0,1.592887216E-3,-2.026012167E-3,9.826511145E-3,1.015885507E-2
5.628376750E0,4.245584132E-4,6.858846173E-4,9.024102241E-3,9.060083267E-3
5.638332750E0,-8.951592026E-4,3.176216967E-3,5.138585344E-3,6.106940606E-3
5.648288750E0,8.494777139E-4,-1.553291455E-3,1.236614026E-2,1.249222765E-2
5.658245750E0,-9.109822568E-4,8.510230109E-4,1.224472933E-2,1.230802686E-2
5.668201750E0,1.751646167E-3,1.024660654E-3,1.322903670E-2,1.338378145E-2
5.678158750E0,5.556471879E-4,-1.733631827E-3,1.246096939E-2,1.259325142E-2
5.688114750E0,-1.258557895E-4,1.053099521E-3,1.294779778E-2,1.299116336E-2
5.698070750E0,1.453427598E-3,6.744302809E-4,1.073201746E-2,1.085096801E-2
5.708027750E0,-1.045949175E-3,-1.672613434E-3,8.208140731E-3,8.441872993E-3
5.717983750E0,1.218059333E-4,-5.716253072E-4,8.438242599E-3,8.458459100E-3
5.727939750E0,-1.171957585E-3,1.043315046E-3,1.041510515E-2,1.053263529E-2
5.737896750E0,1.664191717E-3,-2.398006618E-4,1.368128695E-2,1.378421746E-2
5.747852750E0,1.152864774E-3,-3.086719662E-3,1.254411601E-2,1.296964848E-2
5.757809750E0,2.291603014E-3,3.040483221E-3,1.063233614E-2,1.129347397E-2
5.767765750E0,3.584143706E-4,1.020476222E-3,9.894642979E-3,9.953581881E-3
5.777721750E0,1.002864796E-3,5.230112001E-4,1.000242308E-2,1.006616838E-2
5.787678750E0,1.503869426E-4,-1.430950128E-3,1.112414524E-2,1.121681068E-2
5.797634750E0,-8.805521065E-4,-8.754432201E-7,1.314280927E-2,1.317227423E-2
5.807591750E0,3.131420817E-5,6.044609472E-4,1.542061195E-2,1.543248608E-2
5.817547750E0,1.472791191E-4,8.815508336E-4,1.351115108E-2,1.354068043E-2
5.827503750E0,1.771807438E-3,-1.950987615E-3,1.273110881E-2,1.300103019E-2
5.837460750E0,-6.187325343E-4,-3.888458014E-5,1.145526767E-2,1.147203118E-2
5.847416750E0,2.856692765E-3,9.257122874E-4,1.070744917E-2,1.112057123E-2
5.857373750E0,-1.015450456E-3,2.131981775E-3,9.524343535E-3,9.812726721E-3
5.867329750E0,-6.383467698E-4,1.887236722E-3,1.028893702E-2,1.048004647E-2
5.877285750E0,4.729311913E-4,-3.804611042E-4,1.391008683E-2,1.392332324E-2
5.887242750E0,-6.932669785E-4,9.567122906E-4,1.602570154E-2,1.606919498E-2
5.897198250E0,-1.563884201E-3,-5.521755666E-4,1.159816980E-2,1.171615015E-2
5.907155250E0,1.627115300E-3,-5.766768008E-4,1.093291491E-2,1.106836432E-2
5.917111250E0,7.011945127E-4,1.860680990E-3,1.179501787E-2,1.196144866E-2
5.927067250E0,-1.864228630E-3,3.296923824E-3,1.011935622E-2,1.080492597E-2
5.937024250E0,1.817882061E-3,-8.325325325E-4,1.243354380E-2,1.259328460E-2
5.946980250E0,6.791143678E-4,1.890016720E-3,1.481787115E-2,1.495334963E-2
5.956937250E0,2.325109672E-4,-1.652052626E-3,1.265185699E-2,1.276138020E-2
5.966893250E0,-1.988298958E-3,4.390617833E-4,1.327557117E-2,1.343081896E-2
5.976849250E0,-9.677283233E-4,-1.713700593E-3,1.171178371E-2,1.187599029E-2
5.986806250E0,1.473325188E-3,-8.329926059E-4,8.501876146E-3,8.668705889E-3
5.996762250E0,-5.359363277E-4,-1.280291006E-3,4.696007818E-3,4.896821646E-3
6.006718250E0,-1.340652816E-4,-4.091709852E-4,7.117353380E-3,7.130365596E-3
6.016675250E0,-1.926961471E-3,-5.264729261E-4,1.011303067E-2,1.030843071E-2
6.026631250E0,-3.450822085E-3,-1.411973499E-3,1.385716721E-2,1.435001482E-2
6.036588250E0,-9.337905794E-5,-2.126600593E-4,1.204798371E-2,1.205022221E-2
6.046544250E0,-1.116831903E-3,-1.049158163E-3,1.102053747E-2,1.112655798E-2
6.056500250E0,-1.687544049E-3,-9.726081043E-5,9.707152843E-3,9.853226929E-3
6.066457250E0,-2.718187403E-3,7.056817412E-4,9.978797287E-3,1.036643260E-2
6.076413250E0,-1.458315761E-3,1.870272681E-4,5.595780909E-3,5.785708949E-3
6.086370250E0,-1.843409031E-3,-2.278793603E-3,6.573427469E-3,7.197291562E-3
6.096326250E0,-3.082500771E-4,-7.918225601E-4,1.150699705E-2,1.153832666E-2
6.106282250E0,6.779185496E-4,-4.314966500E-4,1.324896887E-2,1.327331681E-2
6.116239250E0,1.532376045E-4,-6.797211245E-4,1.497393101E-2,1.499013384E-2
6.126195250E0,-3.931252751E-3,-5.566831678E-4,1.253261045E-2,1.314651927E-2
6.136152250E0,-1.400913694E-3,1.559879631E-3,9.001851082E-3,9.242786730E-3
6.146108250E0,-2.088541631E-3,-1.559946686E-4,9.348329157E-3,9.580062552E-3
6.156064250E0,-4.622421693E-5,1.119720750E-3,6.999388337E-3,7.088536402E-3
6.166021250E0,-1.162088709E-3,1.910766587E-4,7.198590785E-3,7.294290216E-3
6.175977250E0,1.771430252E-3,-2.753660083E-4,9.347278625E-3,9.517636748E-3
6.185933250E0,1.524821622E-3,-3.946758807E-4,1.287277043E-2,1.296877282E-2
6.195890250E0,-9.700361406E-4,3.643240780E-5,1.205356419E-2,1.209258893E-2
6.205846250E0,-4.677638644E-4,-1.130564138E-3,1.398408785E-2,1.403751016E-2
6.215803250E0,1.055846456E-3,1.895755529E-3,1.291197538E-2,1.309304430E-2
6.225759250E0,7.047690451E-5,4.664370790E-4,1.029275730E-2,1.030356169E-2
6.235715250E0,-1.755462377E-3,1.259927638E-3,4.570659250E-3,5.055689052E-3
6.245672250E0,7.130216109E-4,4.179775715E-5,5.990121514E-3,6.032553574E-3
6.255628250E0,2.350430703E-3,-6.994307041E-4,9.275674820E-3,9.594366637E-3
6.265585250E0,-2.051774645E-3,1.513656229E-3,1.356043667E-2,1.379805700E-2
6.275541250E0,1.419832115E-3,-1.347996294E-4,1.314577088E-2,1.322291141E-2
6.285497250E0,1.229948830E-3,-4.786141217E-4,1.227225363E-2,1.234301644E-2
6.295454250E0,1.695908024E-3,-1.866221428E-4,1.097638533E-2,1.110819367E-2
6.305410250E0,7.049457636E-4,-7.823705673E-4,8.158493787E-3,8.226182171E-3
6.315367250E0,5.983378505E-4,-8.903527632E-4,5.236502737E-3,5.345249960E-3
6.325323250E0,4.553261679E-4,2.251378261E-3,6.357695907E-3,6.759905565E-3
6.335279250E0,-4.059099592E-4,-1.022433862E-4,1.165416092E-2,1.166167583E-2
6.345236250E0,-2.134833951E-3,5.401112139E-4,1.439295337E-2,1.456043759E-2
6.355192250E0,-9.267437272E-4,-1.375388354E-3,1.240408048E-2,1.251446202E-2
6.365149250E0,-1.173352357E-3,1.569535583E-3,1.512662694E-2,1.525303380E-2
6.375105250E0,-2.654960146E-3,1.054270193E-3,1.339422911E-2,1.369546175E-2
6.385061250E0,-1.445884816E-3,1.169051975E-3,9.709477425E-3,9.885910038E-3
6.395018250E0,3.621871350E-3,1.022201031E-4,5.402896553E-3,6.505358729E-3
6.404974250E0,1.157648396E-3,-1.445874572E-3,8.060730994E-3,8.270797255E-3
6.414931250E0,1.954734325E-3,9.548068047E-4,9.851217270E-3,1.008856402E-2
6.424887250E0,-1.798192039E-3,5.899537355E-4,1.180677861E-2,1.195748975E-2
6.434843250E0,5.493209464E-4,7.103784010E-4,1.358681917E-2,1.361646232E-2
6.444800250E0,9.911393281E-4,-1.413002610E-4,1.298334822E-2,1.302189134E-2
6.454756250E0,4.333048128E-4,1.087638550E-3,1.365178823E-2,1.370189887E-2
6.464713250E0,-1.299880329E-3,3.890916705E-4,8.757963777E-3,8.862449476E-3
6.474669250E0,2.762435470E-4,-7.911622524E-4,8.181426674E-3,8.224231917E-3
6.484625250E0,-1.726187184E-3,-1.199690625E-3,1.009330899E-2,1.030989166E-2
6.494582250E0,-9.510074742E-4,2.070838585E-3,1.357776672E-2,1.376766272E-2
6.504538250E0,1.177390805E-3,1.024481840E-3,1.069409773E-2,1.080738351E-2
6.514494250E0,1.422088593E-3,1.175997779E-3,1.597592607E-2,1.608214913E-2
6.524451250E0,3.163440851E-4,1.461533830E-4,1.289198548E-2,1.289669430E-2
6.534407250E0,-1.390575082E-3,4.937797785E-4,1.278387383E-2,1.286875859E-2
6.544364250E0,1.445158850E-3,-5.608322099E-4,9.792611003E-3,9.914547248E-3
6.554320250E0,-1.746721216E-3,1.597092487E-3,8.923359215E-3,9.231905497E-3
6.564276250E0,6.269542500E-4,-1.855961978E-3,8.840534836E-3,9.054983307E-3
6.574233250E0,-2.148338594E-3,-3.402866423E-4,9.362753481E-3,9.612091679E-3
6.584189250E0,2.642188920E-4,7.904917002E-4,1.212524995E-2,1.215386256E-2
6.594146250E0,3.786197631E-4,-1.464072615E-3,1.138998196E-2,1.148993257E-2
6.604102250E0,6.888780044E-4,-1.415470615E-4,1.385473832E-2,1.387257592E-2
6.614058250E0,3.085291479E-3,1.646485180E-4,7.530551404E-3,8.139738146E-3
6.624015250E0,6.961695617E-4,1.121256500E-3,8.633632213E-3,8.733926573E-3
6.633971250E0,1.185101457E-3,-4.040915519E-5,8.747819811E-3,8.827822484E-3
6.643928250E0,-1.829643734E-4,1.191036776E-3,8.529175073E-3,8.613876711E-3
6.653884250E0,1.116053201E-3,1.738639548E-4,1.318728924E-2,1.323557331E-2
6.663840250E0,3.730312455E-4,-1.450131647E-3,1.323282719E-2,1.331727260E-2
6.673797250E0,2.618312836E-3,8.297525346E-5,1.601909846E-2,1.623188105E-2
6.683753250E0,-8.192956448E-4,-2.140231431E-3,9.753745049E-3,1.001935020E-2
6.693710250E0,-4.037322942E-4,3.796378151E-4,7.381100208E-3,7.401875770E-3
6.703666250E0,-1.201615203E-3,-4.552630708E-4,5.761362612E-3,5.902918152E-3
6.713622250E0,4.941865336E-4,-3.283191472E-4,1.002795249E-2,1.004548879E-2
6.723579250E0,5.873972550E-4,2.557123080E-4,1.251960546E-2,1.253598601E-2
6.733535250E0,1.720948145E-3,4.946039990E-4,1.121341810E-2,1.135548506E-2
6.743492250E0,2.202714095E-3,7.928777486E-4,1.131089032E-2,1.155062095E-2
6.753448250E0,-1.397261629E-3,1.619527116E-3,1.412556320E-2,1.428659316E-2
6.763404250E0,-3.154855222E-4,1.911143772E-3,1.006770134E-2,1.025234665E-2
6.773361250E0,-2.373638563E-4,2.202915959E-3,9.932428598E-3,1.017655729E-2
6.783317250E0,-2.269775141E-4,-5.840817466E-4,8.516691625E-3,8.539713491E-3
6.793273250E0,-2.135272371E-4,-3.299880773E-4,8.744928986E-3,8.753757421E-3
6.803230250E0,-8.060805267E-4,2.047415823E-3,1.081527025E-2,1.103683595E-2
6.813186250E0,6.341330009E-4,-1.397008076E-3,1.176729426E-2,1.186688545E-2
6.823143250E0,-4.292671802E-4,-1.512467861E-6,1.203680784E-2,1.204445995E-2
6.833099250E0,-2.420401433E-4,1.641263254E-3,1.336336881E-2,1.346595539E-2
6.843055250E0,1.904467586E-3,6.052935496E-4,8.809894323E-3,9.033693323E-3
6.853012250E0,-1.634129789E-3,7.587391883E-5,1.049781591E-2,1.062451297E-2
6.862968250E0,6.655098405E-4,-2.386458218E-4,9.235475212E-3,9.262497372E-3
6.872925250E0,-8.068387397E-4,-1.738823019E-3,1.129543036E-2,1.145692984E-2
6.882881250E0,1.937110210E-4,4.100818187E-4,1.118384302E-2,1.119303514E-2
6.892837250E0,7.517735939E-4,1.463179477E-3,1.274093986E-2,1.284669631E-2
6.902794792E0,-9.073758265E-4,-2.646790817E-4,9.673509747E-3,9.719576983E-3
6.912750792E0,-2.002473222E-3,-4.749735817E-4,9.772595018E-3,9.986947096E-3
6.922707792E0,4.276613472E-4,1.460751519E-4,7.944602519E-3,7.957445656E-3
6.932663792E0,4.097971832E-4,1.293158159E-3,9.114839137E-3,9.215231101E-3
6.942619792E0,-1.252281596E-3,-1.630459912E-3,1.264645532E-2,1.281247208E-2
6.952576792E0,-3.897141432E-4,1.157716848E-3,1.330128685E-2,1.335726084E-2
6.962532792E0,1.186078298E-3,-1.616498455E-3,1.133241132E-2,1.150840542E-2
6.972489792E0,-5.972378422E-4,-3.858841956E-5,1.202963293E-2,1.204451122E-2
6.982445792E0,-1.518957783E-3,-1.311579719E-3,6.157629192E-3,6.476408833E-3
6.992401792E0,-4.690063652E-4,-4.076398909E-4,7.950473577E-3,7.974720518E-3
7.002358792E0,-5.030948669E-4,-1.795679331E-3,9.250629693E-3,9.436721805E-3
7.012314792E0,-1.758656348E-3,-5.883779377E-4,9.816270322E-3,9.989906094E-3
7.022271792E0,-1.306451741E-3,1.646546647E-3,1.147408783E-2,1.166501709E-2
7.032227792E0,-3.870902583E-4,3.167763352E-4,1.247999817E-2,1.249001763E-2
7.042183792E0,-5.415535998E-4,3.205240704E-3,1.138916612E-2,1.184398384E-2
7.052140792E0,1.437602332E-3,-2.630211413E-3,1.007912681E-2,1.051539394E-2
7.062096792E0,-1.142468071E-3,2.027923241E-3,9.814944118E-3,1.008716184E-2
7.072053792E0,-2.420155797E-4,-6.223795936E-4,1.119662076E-2,1.121651659E-2
7.082009792E0,2.535661450E-3,8.620657027E-4,1.194230467E-2,1.223892876E-2
7.091965792E0,2.771925880E-3,8.227648214E-4,1.346451789E-2,1.377148347E-2
7.101922792E0,1.793214236E-3,-2.708054148E-3,1.132733002E-2,1.178378462E-2
7.111878792E0,1.227041823E-3,-1.951064914E-4,1.028769091E-2,1.036244577E-2
7.121834792E0,-1.651835279E-3,-2.149067819E-3,8.992064744E-3,9.391713403E-3
7.131791792E0,1.291272929E-3,-7.117632776E-4,9.736169130E-3,9.847181427E-3
7.141747792E0,1.663582749E-3,3.359243274E-4,9.422715753E-3,9.574336786E-3
7.151704792E0,-2.141113626E-3,-1.729149371E-4,9.496446699E-3,9.736363132E-3
7.161660792E0,1.355350483E-3,-2.292258665E-3,1.377667859E-2,1.403168906E-2
7.171617792E0,-1.499198843E-4,-1.755355857E-3,1.136120036E-2,1.149698325E-2
7.181573792E0,-3.194180317E-5,-2.743388526E-3,1.123097166E-2,1.156122508E-2
7.191529792E0,1.267163083E-3,-1.719028689E-3,8.627422154E-3,8.887810469E-3
7.201486792E0,9.869984351E-4,-6.044954062E-4,6.488367915E-3,6.590788937E-3
7.211442792E0,-1.347584999E-3,1.371241175E-3,8.813917637E-3,9.021165767E-3
7.221398792E0,-5.035917275E-5,1.006653532E-3,8.221894503E-3,8.283443523E-3
7.231355792E0,-6.367707392E-4,-4.710145295E-4,1.237503812E-2,1.240035887E-2
7.241311792E0,1.491893781E-3,-1.333253458E-4,1.294442266E-2,1.303079433E-2
7.251268792E0,3.020942677E-4,5.604093894E-4,9.127855301E-3,9.150030712E-3
7.261224792E0,-2.233767649E-3,7.404386997E-4,1.103174686E-2,1.127995595E-2
7.271180792E0,1.676607761E-3,3.420859575E-4,8.829653263E-3,8.993932017E-3
7.281137792E0,1.544248662E-3,1.034241170E-3,9.097568691E-3,9.285478707E-3
7.291093792E0,-2.312421333E-3,7.298588753E-5,8.487317711E-3,8.796998425E-3
7.301050792E0,3.739090171E-4,-8.760299534E-5,7.608473301E-3,7.618159109E-3
7.311006792E0,5.502491258E-4,5.575371906E-4,7.492359728E-3,7.533198266E-3
7.320962792E0,-3.786615562E-4,-7.743099704E-4,5.924824625E-3,5.987193612E-3
7.330919792E0,-4.103499232E-4,2.134450711E-3,9.449385107E-3,9.696140768E-3
7.340875792E0,-1.046046265E-3,-8.735898882E-4,1.111838967E-2,1.120160528E-2
7.350832792E0,-2.805383410E-4,1.770075411E-3,1.023264229E-2,1.038839916E-2
7.360788792E0,-1.333019696E-3,1.775934361E-3,1.187022030E-2,1.207613408E-2
7.370744792E0,6.595207378E-5,4.222625867E-4,1.086219773E-2,1.087060232E-2
7.380701792E0,-3.357541282E-3,-1.140480861E-3,1.015219837E-2,1.075364645E-2
7.390657792E0,1.281342935E-3,-1.979162917E-4,8.743777871E-3,8.839381315E-3
7.400614792E0,3.012997331E-4,-9.095128626E-4,7.394354790E-3,7.456170461E-3
7.410570792E0,8.825524710E-4,-1.087329350E-3,6.848037243E-3,6.989763806E-3
7.420526792E0,1.455132151E-3,8.352063596E-4,9.892299771E-3,1.003357235E-2
7.430483792E0,2.471179469E-4,-5.330760032E-4,1.205915958E-2,1.207346541E-2
7.440439792E0,4.881341010E-4,4.075523466E-4,1.043223217E-2,1.045159518E-2
7.450396792E0,-8.844910190E-4,1.320647076E-3,1.112830266E-2,1.124124340E-2
7.460352792E0,-1.750817290E-3,5.910731852E-5,8.376192302E-3,8.557420892E-3
7.470308792E0,-6.796125090E-4,-1.493745483E-3,5.202550441E-3,5.455243333E-3
7.480265792E0,-6.527145160E-4,8.042957634E-4,8.974652737E-3,9.034230442E-3
7.490221792E0,-5.081283161E-4,5.636364222E-6,7.373522967E-3,7.391012590E-3
7.500178792E0,-2.707100473E-3,8.432008326E-4,1.038209349E-2,1.076230672E-2
7.510134792E0,-1.676797518E-3,9.755128995E-4,1.105289906E-2,1.122184713E-2
7.520090792E0,4.659818951E-4,-1.236508600E-3,8.726626635E-3,8.826103617E-3
7.530047792E0,-7.638200186E-4,-4.963483661E-5,9.532552212E-3,9.563233570E-3
7.540003792E0,-3.667427227E-4,-5.891909823E-4,8.360229433E-3,8.388985779E-3
7.549959792E0,-6.407925393E-4,3.294404596E-4,7.638607174E-3,7.672513647E-3
7.559916792E0,-6.133620627E-4,1.017334871E-3,9.975798428E-3,1.004627979E-2
7.569872792E0,2.253986895E-4,8.991127834E-4,9.505629539E-3,9.550717319E-3
7.579829792E0,-4.329348449E-4,-1.863384619E-3,9.264614433E-3,9.460058954E-3
7.589785792E0,1.593703171E-3,6.375359371E-4,7.016558200E-3,7.223463909E-3
7.599741792E0,-2.673213370E-3,9.539201856E-4,6.708431989E-3,7.284167296E-3
7.609698792E0,3.088670783E-4,-1.928985119E-3,9.663678706E-3,9.859161657E-3
7.619654792E0,-1.657877350E-3,-1.817398705E-3,1.332659274E-2,1.355173677E-2
7.629611792E0,-6.898280699E-4,1.848088577E-4,9.076870978E-3,9.104921956E-3
7.639567792E0,8.914642967E-5,1.006394625E-3,1.042656228E-2,1.047539871E-2
7.649523792E0,-1.106718555E-3,-1.485106535E-3,9.557358921E-3,9.735167021E-3
7.659480792E0,-1.351729501E-3,-1.396955922E-3,5.543708801E-3,5.874637501E-3
7.669436792E0,3.750716569E-4,-1.202767715E-3,4.834484309E-3,4.995955110E-3
7.679393792E0,-1.438274630E-3,-1.870155334E-3,4.640873522E-3,5.206133107E-3
7.689349792E0,-7.537222700E-4,6.629247218E-5,9.643938392E-3,9.673574296E-3
7.699305792E0,-8.242960321E-4,5.324278027E-5,1.527066529E-2,1.529298915E-2
7.709262792E0,9.661103250E-4,3.195386380E-4,1.288682967E-2,1.292694292E-2
7.719218792E0,1.169309486E-3,-4.897955805E-4,1.313876361E-2,1.319978384E-2
7.729175792E0,1.805517008E-3,-1.107486896E-3,6.435871124E-3,6.775459838E-3
7.739131792E0,5.293302238E-4,2.278722823E-3,5.000159144E-3,5.520358653E-3
7.749087792E0,1.467217458E-3,-3.185877576E-3,7.435340434E-3,8.221120993E-3
7.759044792E0,-4.811510444E-4,9.436197579E-4,8.475836366E-3,8.541763675E-3
7.769000792E0,-9.303330444E-6,-9.487718344E-4,7.018543780E-3,7.082387404E-3
7.778957792E0,-1.435265876E-4,-1.572808251E-4,1.027585566E-2,1.027806143E-2
7.788913792E0,-5.434646737E-4,8.823797107E-4,1.000954583E-2,1.006304902E-2
7.798869792E0,-5.754225422E-4,-9.988769889E-4,7.903520018E-3,7.987145611E-3
7.808826792E0,1.577851363E-4,-3.088805825E-4,6.990566850E-3,6.999166253E-3
7.818782792E0,5.977393594E-4,-9.030317888E-4,6.470449269E-3,6.560447583E-3
7.828739792E0,-9.921344463E-4,4.238802940E-4,7.055316120E-3,7.137330791E-3
7.838695792E0,3.112166887E-4,-6.307316944E-4,7.272098213E-3,7.306031120E-3
7.848651792E0,2.462507691E-3,9.152144194E-4,8.551806211E-3,8.946225519E-3
7.858608792E0,-9.833563818E-4,-1.006255858E-3,1.170552149E-2,1.178977413E-2
7.868564792E0,1.573869027E-3,4.948154092E-4,9.638063610E-3,9.778250158E-3
7.878521792E0,-1.641099108E-3,-1.288969070E-4,9.455900639E-3,9.598118440E-3
7.888477792E0,8.248607628E-5,1.590520144E-3,6.855055690E-3,7.037637870E-3
7.898434042E0,-1.091168961E-3,-5.914084613E-4,7.640153170E-3,7.740307108E-3
7.908391042E0,1.544395927E-4,-1.045428216E-3,7.968511432E-3,8.038280052E-3
7.918347042E0,1.694013015E-3,-4.568696022E-4,1.219201833E-2,1.231761831E-2
7.928304042E0,1.561988029E-3,-2.226172946E-3,9.248685092E-3,9.640219319E-3
7.938260042E0,-4.385785433E-4,8.545713499E-4,1.050223410E-2,1.054606867E-2
7.948216042E0,-7.013828726E-4,-1.820335165E-4,1.145779714E-2,1.148068767E-2
7.958173042E0,1.431276440E-3,6.928145885E-4,1.034193113E-2,1.046346424E-2
7.968129042E0,-1.104475232E-3,1.574244350E-3,7.134653628E-3,7.389275553E-3
7.978086042E0,-1.472524134E-3,-2.731904387E-4,5.128495395E-3,5.342698322E-3
7.988042042E0,-1.375964843E-3,-9.792521596E-4,4.626553506E-3,4.925161051E-3
7.997998042E0,-3.692752216E-5,1.288894564E-4,8.819170296E-3,8.820189388E-3
8.007955042E0,2.067042980E-3,-1.589925960E-3,1.084845513E-2,1.115748672E-2
8.017911042E0,-5.457843654E-4,-7.552914321E-4,1.056456193E-2,1.060557941E-2
8.027867042E0,1.305236947E-4,-1.058107242E-3,1.241757348E-2,1.246325634E-2
8.037824042E0,2.120437566E-3,2.385891974E-3,9.324043989E-3,9.855279412E-3
8.047780042E0,-1.989327837E-3,1.496838406E-3,4.982817918E-3,5.570136880E-3
8.057737042E0,7.345535560E-4,1.230788417E-3,4.250448197E-3,4.485612437E-3
8.067693042E0,-6.337900413E-4,1.326080412E-3,7.220152766E-3,7.368228080E-3
8.077649042E0,2.735108836E-3,5.819927901E-4,7.329609245E-3,7.844916038E-3
8.087606042E0,7.805214263E-4,1.129960641E-3,1.145235822E-2,1.153440651E-2
8.097562042E0,3.301809775E-4,-1.376340166E-3,1.034634933E-2,1.044271402E-2
8.107519042E0,-3.147344105E-3,8.456595242E-5,7.473390549E-3,8.109530974E-3
8.117475042E0,2.931933850E-4,-5.577877164E-4,7.725592703E-3,7.751249712E-3
8.127431042E0,1.381296082E-3,2.814764157E-4,6.874877959E-3,7.017916699E-3
8.137388042E0,1.819119789E-3,4.668328911E-4,6.833866239E-3,7.087232007E-3
8.147344042E0,-1.842114143E-3,1.998739317E-4,5.998641253E-3,6.278298414E-3
8.157301042E0,1.427397365E-4,3.628591076E-4,1.140006632E-2,1.140673281E-2
8.167257042E0,1.359944465E-3,3.966335207E-4,1.067042723E-2,1.076405056E-2
8.177213042E0,2.997788601E-3,-9.360127151E-4,9.840849787E-3,1.032981998E-2
8.187170042E0,-1.082866802E-3,-2.388246357E-4,1.055905595E-2,1.061712298E-2
8.197126042E0,-2.687155269E-3,9.896913543E-4,9.854119271E-3,1.026177173E-2
8.207083042E0,-3.913361579E-4,1.263174228E-3,9.089097381E-3,9.184794190E-3
8.217039042E0,-2.872063778E-4,-3.467062488E-4,1.067101583E-2,1.068050896E-2
8.226995042E0,-7.735297550E-4,7.927287370E-4,7.748790085E-3,7.827548462E-3
8.236952042E0,-6.741939578E-4,1.280619763E-3,9.445223957E-3,9.555458130E-3
8.246908042E0,-3.502873005E-4,2.514419146E-3,9.844072163E-3,1.016615766E-2
8.256865042E0,-1.248837798E-3,1.226780936E-3,9.192664176E-3,9.357866315E-3
8.266821042E0,7.715927204E-4,2.399822697E-3,9.187925607E-3,9.527459329E-3
8.276777042E0,-2.815446351E-5,-8.079539984E-4,9.901918471E-3,9.934866468E-3
8.286734042E0,1.432665857E-3,1.019186340E-3,6.396904588E-3,6.634128470E-3
8.296690042E0,-2.354349010E-3,-1.464211382E-3,7.595062256E-3,8.085285703E-3
8.306647042E0,-8.924938738E-4,8.194856346E-4,7.551930845E-3,7.648513679E-3
8.316603042E0,3.200434148E-4,4.264153540E-5,7.024623454E-3,7.032039587E-3
8.326559042E0,-9.300251259E-4,1.313881949E-4,1.044091955E-2,1.048308211E-2
8.336516042E0,1.187986927E-3,-2.038556151E-3,8.744750172E-3,9.057465412E-3
8.346472042E0,1.956538064E-3,-3.678910434E-5,1.014720649E-2,1.033417602E-2
8.356429042E0,-7.417767774E-4,1.301449724E-3,4.436321557E-3,4.682408902E-3
8.366385042E0,-1.216509962E-3,-9.264154360E-4,8.465752006E-3,8.602737882E-3
8.376341042E0,-9.882770246E-4,2.602888271E-4,9.256713092E-3,9.312957587E-3
8.386298042E0,1.413652208E-4,5.262689665E-4,7.303550839E-3,7.323851310E-3
8.396254042E0,-5.156367552E-4,1.936146989E-3,1.134037226E-2,1.151601448E-2
8.406211042E0,1.488162787E-3,-1.670317724E-4,1.288996637E-2,1.297666217E-2
8.416167042E0,1.233830932E-3,7.043546066E-4,1.128194854E-2,1.137105171E-2
8.426123042E0,1.501591527E-3,-1.942705363E-3,8.982665837E-3,9.312205259E-3
8.436080042E0,1.504254760E-3,-8.926205337E-4,7.387164980E-3,7.591426760E-3
8.446036042E0,-2.023374895E-3,2.315090969E-4,8.376974612E-3,8.620982895E-3
8.455993042E0,-2.126439242E-3,3.761192784E-4,6.973490119E-3,7.300189998E-3
8.465949042E0,-2.726918086E-3,-8.181603625E-4,1.018347591E-2,1.057396095E-2
8.475905042E0,-2.947161440E-3,3.760019317E-4,1.174888015E-2,1.211871787E-2
8.485862042E0,7.332566893E-4,1.020501368E-3,9.076401591E-3,9.162977369E-3
8.495818042E0,-1.315779402E-3,-7.374510169E-4,7.620718330E-3,7.768555677E-3
8.505775042E0,-1.024262281E-3,-1.619129442E-3,4.717860371E-3,5.092042797E-3
8.515731042E0,1.585369231E-3,7.340395823E-4,6.143186241E-3,6.386779071E-3
8.525687042E0,-1.535561634E-3,7.639061660E-4,8.852764964E-3,9.017369332E-3
8.535644042E0,-5.166360643E-4,7.974077016E-5,1.190527901E-2,1.191675038E-2
8.545600042E0,2.070678165E-4,8.107163012E-6,8.658278733E-3,8.660758248E-3
8.555557042E0,-2.736327006E-4,1.450740732E-3,1.044792309E-2,1.055171173E-2
8.565513042E0,-1.164927497E-3,-1.329777762E-3,8.260704577E-3,8.447757399E-3
8.575469042E0,4.760979209E-5,-8.389577270E-4,8.301980793E-3,8.344399430E-3
8.585426042E0,4.357257858E-4,3.059739247E-4,7.926337421E-3,7.944199262E-3
8.595382042E0,-9.840053972E-4,-3.003003076E-3,9.158317000E-3,9.688192007E-3
8.605339042E0,2.607398201E-4,-1.256082207E-3,8.090816438E-3,8.191888574E-3
8.615295042E0,3.406346077E-4,2.163788304E-4,8.920393884E-3,8.929517276E-3
8.625251042E0,-8.781091310E-6,-1.368280500E-3,5.487821996E-3,5.655834058E-3
8.635208042E0,-1.556876581E-3,1.797419041E-3,4.562638700E-3,5.145119222E-3
8.645164042E0,9.947961662E-4,1.991009340E-4,7.388949394E-3,7.458272839E-3
8.655120042E0,-1.600454329E-3,1.057970338E-3,1.214269176E-2,1.229332008E-2
8.665077042E0,-3.030104563E-5,-3.023836762E-4,1.073942706E-2,1.074372597E-2
8.675033042E0,-1.444173162E-3,-2.014263533E-3,1.132985204E-2,1.159777742E-2
8.684990042E0,1.913244836E-3,8.374731988E-4,1.025862619E-2,1.046906292E-2
8.694946042E0,-8.479206590E-4,9.687673301E-4,7.157374173E-3,7.272240689E-3
8.704902042E0,1.195257180E-3,-6.103785709E-4,3.792811185E-3,4.023259675E-3
8.714859042E0,-8.593715029E-4,-1.187585294E-4,5.657821894E-3,5.723947200E-3
8.724815042E0,-5.082115531E-4,7.569305599E-4,6.030309945E-3,6.098840947E-3
8.734772042E0,-1.239781734E-3,1.025110483E-3,1.097074151E-2,1.108806022E-2
8.744728042E0,-1.709945966E-3,-4.281839356E-4,1.321323588E-2,1.333029854E-2
8.754685042E0,8.371013682E-4,1.601677388E-3,1.194211096E-2,1.207808442E-2
8.764641042E0,-7.880351041E-4,-1.835052855E-3,7.852163166E-3,8.102153090E-3
8.774597042E0,-1.982995309E-3,1.723462716E-3,7.520601153E-3,7.966306286E-3
8.784554042E0,1.967445714E-4,1.257688738E-3,4.596598446E-3,4.769612842E-3
8.794510042E0,-1.160136075E-3,-8.427817374E-5,6.056010723E-3,6.166707744E-3
8.804466042E0,-1.571584144E-3,-2.658693120E-4,8.111644536E-3,8.266761173E-3
8.814423042E0,3.887687344E-4,1.704603434E-3,9.896762669E-3,1.005001121E-2
8.824379042E0,1.697704778E-3,-1.193111762E-3,7.409654558E-3,7.694718829E-3
8.834336042E0,-1.697037369E-4,-2.218695357E-3,1.328085735E-2,1.346597863E-2
8.844292042E0,-1.197170815E-3,1.402173191E-3,1.197108254E-2,1.211223038E-2
8.854248042E0,9.988718666E-4,2.389140427E-3,9.405661374E-3,9.755624166E-3
8.864205042E0,1.968214056E-3,-8.920673281E-5,7.628556341E-3,7.878876586E-3
8.874161042E0,2.879015170E-3,2.081003040E-3,7.349722087E-3,8.163192805E-3
8.884118042E0,2.586672548E-3,2.019266598E-3,8.905235678E-3,9.490602454E-3
8.894074042E0,1.113944338E-3,-7.192622870E-4,6.089210510E-3,6.231909407E-3
8.904029500E0,-2.200481249E-4,-8.594812825E-4,7.309477776E-3,7.363123971E-3
8.913986500E0,9.260699153E-5,-4.237880930E-4,9.116433561E-3,9.126748231E-3
8.923942500E0,-1.002723118E-3,-6.253151223E-4,8.391290903E-3,8.474092027E-3
8.933899500E0,1.464695670E-3,2.500656992E-4,8.949488401E-3,9.072001373E-3
8.943855500E0,5.793214077E-4,-1.301404089E-3,8.929986507E-3,9.042893614E-3
8.953811500E0,3.843347076E-5,-1.551475376E-3,9.760625660E-3,9.883236629E-3
8.963768500E0,7.378620794E-4,-1.032837667E-3,7.869053632E-3,7.970771553E-3
8.973724500E0,1.689409604E-3,-1.749227755E-3,8.537504822E-3,8.877099252E-3
8.983681500E0,-4.214760847E-4,5.346955732E-4,8.175525814E-3,8.203826167E-3
8.993637500E0,-2.031623386E-3,1.007938758E-3,6.876170635E-3,7.240521855E-3
9.003593500E0,-2.603181638E-4,-1.782675274E-3,9.721226990E-3,9.886756337E-3
9.013550500E0,-1.706680981E-3,-2.297852188E-4,1.092470810E-2,1.105960254E-2
9.023506500E0,1.421544468E-3,-8.358620107E-6,1.064936444E-2,1.074382714E-2
9.033463500E0,1.434327569E-3,-1.608119346E-3,1.048717648E-2,1.070626984E-2
9.043419500E0,-1.555573428E-3,7.709208876E-4,8.287176490E-3,8.467078710E-3
9.053375500E0,2.250161488E-4,1.498721540E-4,7.563062012E-3,7.567892767E-3
9.063332500E0,2.010264434E-4,-8.004494011E-4,3.861233592E-3,3.948449788E-3
9.073288500E0,-2.472787397E-3,-7.107015699E-4,5.148336291E-3,5.755444449E-3
9.083245500E0,1.158411847E-3,-5.561029539E-4,6.119083613E-3,6.252547702E-3
9.093201500E0,-1.388635370E-3,-4.953825846E-4,9.377460927E-3,9.492654293E-3
9.103157500E0,-7.331637898E-4,-1.221136190E-3,1.090796292E-2,1.100056170E-2
9.113114500E0,5.582029698E-4,-3.363116644E-3,7.275413722E-3,8.034537258E-3
9.123070500E0,1.736922772E-3,-1.962495036E-3,9.845901281E-3,1.018872217E-2
9.133027500E0,-1.046613092E-3,1.075639389E-3,7.679685950E-3,7.824958489E-3
9.142983500E0,-3.096931614E-4,-1.511154696E-4,6.842106581E-3,6.850778657E-3
9.152939500E0,-6.271421444E-4,-9.665759280E-4,6.923865527E-3,7.019080433E-3
9.162896500E0,2.178781200E-3,-4.874188453E-4,9.502068162E-3,9.760838284E-3
9.172852500E0,-4.899724154E-4,-5.380185321E-4,7.676471025E-3,7.710884794E-3
9.182809500E0,-1.087954268E-3,3.464771435E-4,1.050181687E-2,1.056370430E-2
9.192765500E0,-5.920736585E-4,1.490038820E-3,1.253727078E-2,1.263937995E-2
9.202721500E0,1.263415674E-3,-3.048693761E-4,1.128688455E-2,1.136146677E-2
9.212678500E0,-1.189621980E-3,1.179310493E-3,8.560869843E-3,8.723214210E-3
9.222634500E0,-5.654850975E-4,-1.687311567E-3,6.275616586E-3,6.523048157E-3
9.232591500E0,-1.497657504E-4,-1.661144197E-4,2.949595451E-3,2.958063067E-3
9.242547500E0,1.093845349E-3,-1.144821756E-3,7.005091757E-3,7.181812098E-3
9.252503500E0,-4.758546129E-5,-2.464418299E-3,7.891654968E-3,8.267638119E-3
9.262460500E0,1.525415108E-3,-2.378337085E-3,9.636301547E-3,1.004199612E-2
9.272416500E0,6.463056197E-4,1.932521351E-3,1.336552575E-2,1.351997146E-2
9.282373500E0,2.338956809E-3,-4.058992490E-4,1.023632288E-2,1.050798645E-2
9.292329500E0,1.272094552E-3,9.102355689E-4,3.493465483E-3,3.827669581E-3
9.302285500E0,-9.504888440E-4,2.878755331E-4,5.601350218E-3,5.688710366E-3
9.312242500E0,6.257765926E-5,-1.632645726E-4,5.039956421E-3,5.042988400E-3
9.322198500E0,4.113605246E-5,-5.097715184E-4,8.394468576E-3,8.410033403E-3
9.332155500E0,8.699117461E-4,1.360299997E-3,1.029942930E-2,1.042522932E-2
9.342111500E0,-2.126172651E-3,1.011723652E-3,9.816609323E-3,1.009504896E-2
9.352067500E0,-1.110443263E-3,3.362761810E-3,8.024301380E-3,8.771012705E-3
9.362024500E0,3.429573262E-4,-1.818453893E-4,7.869794965E-3,7.879362935E-3
9.371980500E0,2.024210989E-3,-1.190118492E-3,3.864668310E-3,4.522109386E-3
9.381937500E0,1.030588057E-3,-1.365793869E-4,6.136346608E-3,6.223786257E-3
9.391893500E0,2.213564236E-3,-1.019150950E-3,1.063549146E-2,1.091110507E-2
9.401849500E0,5.860461388E-4,3.994442523E-6,1.456100866E-2,1.457279792E-2
9.411806500E0,3.458290594E-4,-4.340959713E-4,1.303448156E-2,1.304629244E-2
9.421762500E0,2.448912011E-3,1.846835017E-3,8.259147406E-3,8.810305641E-3
9.431719500E0,-1.818537479E-3,-1.260340214E-4,3.878511488E-3,4.285535498E-3
9.441675500E0,-7.989802398E-4,-1.703333110E-4,4.089169204E-3,4.169974537E-3
9.451631500E0,-2.921519568E-3,5.854712799E-4,1.113562658E-2,1.152736885E-2
9.461588500E0,-7.518148050E-4,3.931988031E-4,1.152476296E-2,1.155595050E-2
9.471544500E0,-4.423554055E-4,-1.769554801E-3,9.523931891E-3,9.697024346E-3
9.481501500E0,-2.236136235E-3,-8.223270997E-4,9.308498353E-3,9.608572667E-3
9.491457500E0,8.882844122E-4,-1.287847757E-3,6.569437683E-3,6.753155744E-3
9.501413500E0,-1.188234659E-3,-1.072800718E-3,5.970738828E-3,6.181628033E-3
9.511370500E0,2.016080776E-3,-5.414998159E-4,4.428502172E-3,4.895858989E-3
9.521326500E0,3.944144119E-4,9.544193745E-4,7.555302233E-3,7.625553809E-3
9.531283500E0,-1.923867268E-3,7.674656808E-4,7.533997297E-3,7.813538514E-3
9.541239500E0,2.841281239E-4,8.620144799E-4,9.412538260E-3,9.456197664E-3
9.551195500E0,-5.220107269E-4,9.839879349E-4,1.084132493E-2,1.089839684E-2
9.561152500E0,7.489508716E-4,8.833091706E-4,1.190525666E-2,1.196145052E-2
9.571108500E0,5.779758794E-4,-1.048548147E-3,9.077247232E-3,9.155868427E-3
9.581065500E0,-1.114190905E-3,5.750199780E-4,7.413864136E-3,7.519138965E-3
9.591021500E0,1.581460703E-3,6.999224424E-4,5.818098783E-3,6.069693801E-3
9.600977500E0,-1.478403807E-3,-3.345599398E-4,8.394498378E-3,8.530252704E-3
9.610934500E0,8.883475093E-4,-2.203566954E-3,7.907141000E-3,8.256376167E-3
9.620890500E0,-1.362775685E-3,1.383330673E-3,1.062325761E-2,1.079927606E-2
9.630847500E0,-6.341347471E-4,-1.635628752E-3,7.214676589E-3,7.424888321E-3
9.640803500E0,2.454895992E-3,1.525953412E-4,6.268735975E-3,6.734007009E-3
9.650759500E0,2.327330410E-3,3.049581312E-3,6.201360375E-3,7.292001338E-3
9.660716500E0,-2.219526097E-3,1.179376617E-3,7.398154587E-3,7.813444604E-3
9.670672500E0,-2.985451370E-3,-1.109251752E-4,1.125600934E-2,1.164572757E-2
9.680629500E0,1.787801390E-3,-1.824252307E-3,1.035748422E-2,1.066778373E-2
9.690585500E0,-3.179600462E-4,8.895080537E-4,1.033404842E-2,1.037713255E-2
9.700541500E0,-1.524890191E-3,-7.512792945E-4,8.063975722E-3,8.241202286E-3
9.710498500E0,1.032543369E-3,8.428888395E-4,7.614698261E-3,7.730474566E-3
9.720454500E0,-6.659920327E-4,-1.774169505E-4,9.444274008E-3,9.469389299E-3
9.730411500E0,7.159222150E-4,1.055359840E-3,8.980352432E-3,9.070449758E-3
9.740367500E0,-2.988642547E-3,6.301021203E-4,8.698571473E-3,9.219227659E-3
9.750324500E0,-1.963183749E-4,-1.932390966E-3,7.358469069E-3,7.610502138E-3
9.760280500E0,-4.811271792E-4,-4.383642226E-5,7.624227554E-3,7.639519015E-3
9.770236500E0,-1.076343819E-3,2.045147121E-3,8.451938629E-3,8.762214866E-3
9.780193500E0,5.275099538E-4,1.865681261E-3,7.393077016E-3,7.643076676E-3
9.790149500E0,2.500086557E-4,-1.759679057E-3,5.077723414E-3,5.379800161E-3
9.800106500E0,1.504155225E-3,6.711026654E-4,7.235165685E-3,7.420275212E-3
9.810062500E0,-2.396310680E-3,-9.536920115E-4,7.625851780E-3,8.050183147E-3
9.820018500E0,-3.420901485E-4,-9.739818051E-4,7.483374327E-3,7.554241031E-3
9.829975500E0,8.379566716E-4,-5.228416994E-4,7.591500878E-3,7.655483029E-3
9.839931500E0,-2.628112677E-3,-1.835451461E-3,7.076736540E-3,7.768916164E-3
9.849888500E0,-1.259514247E-3,-2.969692461E-3,7.523614913E-3,8.185977695E-3
9.859844500E0,2.337718848E-3,7.954901084E-4,6.592568010E-3,7.039864125E-3
9.869800500E0,-1.465145033E-5,-1.462036744E-4,6.691101938E-3,6.692715094E-3
9.879757500E0,-1.121261972E-3,-2.187848091E-3,8.269287646E-3,8.626994022E-3
9.889713500E0,7.075306494E-4,1.113938168E-3,9.743083268E-3,9.832046045E-3
9.899671000E0,4.414754221E-4,1.360857859E-4,9.547051042E-3,9.558221775E-3
9.909627000E0,-1.588385901E-3,4.404857755E-4,6.218899041E-3,6.433638378E-3
9.919583000E0,-1.063309028E-3,-7.389234379E-4,6.882607937E-3,7.003351051E-3
9.929540000E0,2.453128807E-3,-1.007369719E-3,5.862616003E-3,6.434508613E-3
9.939496000E0,-9.441541042E-4,1.520745456E-3,7.038898766E-3,7.262932573E-3
9.949453000E0,-1.535908319E-3,-2.665477805E-3,9.162500501E-3,9.665153993E-3
9.959409000E0,4.552266328E-4,9.813793004E-4,7.616814226E-3,7.693256500E-3
9.969365000E0,5.774657475E-4,-7.478110492E-4,7.055420429E-3,7.118401891E-3
9.979322000E0,1.352624502E-3,1.604327001E-3,7.597342134E-3,7.881818677E-3
9.989278000E0,-1.525453525E-3,-9.882608429E-4,6.052710116E-3,6.319728451E-3
9.999235000E0,-6.725068670E-4,4.865983501E-4,9.658664465E-3,9.694268548E-3
1.000919100E1,2.295586048E-3,9.931307286E-4,9.474638849E-3,9.799224728E-3
1.001914700E1,-8.835806511E-5,7.556844503E-5,5.252182484E-3,5.253469195E-3
1.002910400E1,2.301296219E-3,5.927551538E-4,4.348572344E-3,4.955542795E-3
1.003906000E1,-1.624874305E-3,6.570862606E-4,5.785413086E-3,6.045079275E-3
1.004901700E1,1.898037735E-4,-1.927278936E-4,3.350220621E-3,3.361122985E-3
1.005897300E1,-6.923684850E-4,6.503509358E-4,5.366716534E-3,5.450135486E-3
1.006892900E1,2.197641879E-4,-1.388831995E-3,5.406666547E-3,5.586518931E-3
1.007888600E1,6.262303796E-4,6.320383400E-4,7.905453444E-3,7.955364926E-3
1.008884200E1,4.936050391E-4,-9.064702317E-4,8.914791048E-3,8.974343076E-3
1.009879900E1,1.580803655E-5,-8.013397455E-4,7.120985538E-3,7.165949366E-3
1.010875500E1,-2.053201664E-3,1.194699667E-3,7.284767926E-3,7.662296529E-3
1.011871100E1,6.047004135E-4,8.812136948E-4,7.887218148E-3,7.959297097E-3
1.012866800E1,1.123750582E-3,-1.915078610E-4,4.946023226E-3,5.075690730E-3
1.013862400E1,5.255850265E-4,-1.335293055E-4,4.530306906E-3,4.562647297E-3
1.014858100E1,3.082710318E-4,-1.500407234E-4,4.505272955E-3,4.518299198E-3
1.015853700E1,5.769062554E-4,-5.307272077E-4,4.097126424E-3,4.171443052E-3
1.016849300E1,8.650603704E-4,3.803400323E-4,9.128905833E-3,9.177685421E-3
1.017845000E1,2.501176205E-4,-2.044634894E-4,1.065352559E-2,1.065842257E-2
1.018840600E1,-1.746565104E-4,-3.037992865E-4,8.245229721E-3,8.252673025E-3
1.019836300E1,-5.895422073E-4,3.314772621E-4,4.835084081E-3,4.882158873E-3
1.020831900E1,7.521582302E-4,2.782139927E-4,6.087835878E-3,6.140430824E-3
1.021827500E1,-5.810265429E-5,-1.970351674E-3,5.104135722E-3,5.471550338E-3
1.022823200E1,-3.340061521E-4,1.693359576E-3,6.893515587E-3,7.106305926E-3
1.023818800E1,-2.007180592E-4,1.913058572E-3,5.010727793E-3,5.367259436E-3
1.024814500E1,3.737257794E-4,1.968451776E-3,7.844332606E-3,8.096173626E-3
1.025810100E1,1.914382679E-3,-4.847189412E-4,5.658678710E-3,5.993367855E-3
1.026805700E1,-4.096372053E-3,6.798813120E-4,6.845649332E-3,8.006585875E-3
1.027801400E1,1.608871389E-5,3.107674420E-4,3.068272024E-3,3.084011749E-3
1.028797000E1,-1.480341423E-3,-2.767047845E-3,6.259806454E-3,7.002366839E-3
1.029792700E1,-1.907724189E-3,-1.604936086E-3,8.506059647E-3,8.863875119E-3
1.030788300E1,1.350120758E-3,1.388456672E-3,9.499948472E-3,9.695342127E-3
1.031783900E1,-2.033914439E-3,-8.741486818E-4,1.099826023E-2,1.121885342E-2
1.032779600E1,3.368313191E-4,2.774382010E-3,6.750252098E-3,7.305925969E-3
1.033775200E1,1.282851445E-3,6.105042994E-4,5.356084555E-3,5.541305360E-3
1.034770900E1,4.106662236E-4,1.006782986E-3,5.041565746E-3,5.157484261E-3
1.035766500E1,1.636567991E-3,-2.979124896E-3,5.388777703E-3,6.371221631E-3
1.036762100E1,-5.136682885E-4,-6.504571065E-4,4.998359829E-3,5.066611347E-3
1.037757800E1,1.572467154E-4,-1.709815115E-3,8.244480938E-3,8.421381133E-3
1.038753400E1,7.790947566E-4,-2.514682710E-4,6.127268076E-3,6.181718127E-3
1.039749100E1,1.130119432E-3,-3.068922088E-3,4.801139235E-3,5.809164369E-3
1.040744700E1,4.989502486E-4,-3.365185112E-4,4.357457161E-3,4.398821316E-3
1.041740400E1,-7.463977672E-4,-8.764136583E-4,5.731694400E-4,1.285975791E-3
1.042736000E1,-4.337425344E-4,-1.130213030E-3,4.882965237E-3,5.030791546E-3
1.043731600E1,6.003136514E-4,6.996132433E-4,8.836064488E-3,8.884023345E-3
1.044727300E1,7.481190842E-4,-1.564607024E-3,1.081399247E-2,1.095217378E-2
1.045722900E1,2.182040596E-3,1.115293242E-3,8.991282433E-3,9.319245676E-3
1.046718600E1,1.827307511E-3,3.445744514E-4,7.836535573E-3,8.054133975E-3
1.047714200E1,1.144567505E-3,-1.838834956E-3,4.392154515E-3,4.897179806E-3
1.048709800E1,-7.302977610E-4,7.707970217E-4,2.899985760E-3,3.088264930E-3
1.049705500E1,6.945454516E-4,1.995172352E-3,4.685577005E-3,5.139818865E-3
1.050701100E1,-1.025057747E-3,-1.471198164E-3,9.620416909E-3,9.786091607E-3
1.051696800E1,-2.308211289E-3,-1.197118312E-3,1.067893952E-2,1.099093631E-2
1.052692400E1,5.799868377E-4,1.445003785E-3,1.273116842E-2,1.282603095E-2
1.053688000E1,-9.257257916E-4,4.943441600E-4,7.175773382E-3,7.252107833E-3
1.054683700E1,-8.615436964E-4,1.687173732E-3,3.149073571E-3,3.674979877E-3
1.055679300E1,1.391712576E-3,1.959819347E-3,8.725374937E-5,2.405279398E-3
1.056675000E1,-8.376195328E-4,6.098635495E-4,4.601843655E-3,4.717044102E-3
1.057670600E1,1.661438611E-3,2.957191318E-4,7.037650794E-3,7.237151149E-3
1.058666200E1,3.698054934E-4,-3.242651001E-4,9.314119816E-3,9.327096649E-3