"Time (s)","Gyroscope x (rad/s)","Gyroscope y (rad/s)","Gyroscope z (rad/s)","Absolute (rad/s)"
5.672291667E-3,1.959612127E-3,-1.452337950E-3,-4.873321578E-2,4.879421775E-2
1.562829167E-2,2.734221984E-3,-9.899828583E-4,-4.791385308E-2,4.800201405E-2
2.558429167E-2,-1.070369966E-3,-8.131191134E-5,-4.757350311E-2,4.758561234E-2
3.554129167E-2,-3.268828150E-4,-7.601445541E-4,-4.725324735E-2,4.726049150E-2
4.549729167E-2,4.140085657E-4,2.995273098E-4,-4.404760152E-2,4.405056548E-2
5.545329167E-2,1.303263707E-4,3.075041808E-3,-4.914902896E-2,4.924530348E-2
6.540929167E-2,2.770665451E-4,1.265157014E-3,-4.940948635E-2,4.942645779E-2
7.536529167E-2,-3.947126679E-3,7.549971342E-4,-4.878966883E-2,4.895489367E-2
8.532129167E-2,2.069220413E-3,8.010705933E-4,-4.638323933E-2,4.643628191E-2
9.527729167E-2,3.286389401E-4,1.628320664E-3,-4.759645090E-2,4.762542986E-2
1.052332917E-1,-3.536629956E-4,-1.765345223E-3,-4.672959074E-2,4.676426170E-2
1.151892917E-1,2.570912708E-3,5.352394655E-4,-4.688657075E-2,4.696005313E-2
1.251452917E-1,2.782900352E-3,2.101977356E-3,-4.627377540E-2,4.640501194E-2
1.351012917E-1,1.366194338E-4,3.461885266E-3,-4.766856506E-2,4.779430311E-2
1.450582917E-1,6.143905339E-4,4.088375717E-4,-4.594390094E-2,4.594982761E-2
1.550142917E-1,1.754300669E-3,-1.392373815E-3,-4.452294111E-2,4.457923913E-2
1.649702917E-1,2.957250457E-3,3.043264151E-4,-4.783910885E-2,4.793139139E-2
1.749262917E-1,4.000303452E-4,-7.484992966E-4,-5.116277561E-2,5.116981418E-2
1.848822917E-1,1.761970925E-3,1.324741170E-4,-5.154653639E-2,5.157681169E-2
1.948382917E-1,2.244387055E-3,-1.315210015E-3,-4.950509220E-2,4.957339210E-2
2.047942917E-1,1.684590592E-3,9.562000632E-4,-4.377983138E-2,4.382266308E-2
2.147502917E-1,4.517808557E-4,-1.534978859E-3,-4.565016180E-2,4.567819544E-2
2.247062917E-1,-1.903072698E-4,-2.023326233E-4,-4.958444834E-2,4.958522635E-2
2.346622917E-1,5.858515506E-4,2.361666411E-4,-4.888830706E-2,4.889238759E-2
2.446182917E-1,2.974973293E-3,2.304643393E-3,-5.075757951E-2,5.089689307E-2
2.545752917E-1,-1.304721227E-3,1.121031120E-3,-4.822593182E-2,4.825660067E-2
2.645312917E-1,-2.087424276E-3,-1.093386672E-3,-4.630446061E-2,4.636438188E-2
2.744872917E-1,-6.460166769E-4,-1.880575903E-3,-4.604582116E-2,4.608873560E-2
2.844432917E-1,2.682402031E-3,-1.058724709E-3,-4.387401417E-2,4.396868542E-2
2.943992917E-1,6.723659462E-4,2.504329197E-3,-4.771424085E-2,4.778464733E-2
3.043552917E-1,-1.319145784E-3,-7.109055296E-4,-4.860986397E-2,4.863295598E-2
3.143112917E-1,1.230220427E-3,-1.514351927E-3,-4.951032251E-2,4.954875114E-2
3.242672917E-1,2.656234428E-4,-1.136981882E-3,-4.947676510E-2,4.949054019E-2
3.342232917E-1,-2.136691473E-3,-1.137702726E-3,-4.843267798E-2,4.849313472E-2
3.441792917E-1,-3.146828618E-3,-2.398443408E-3,-4.767607898E-2,4.783997876E-2
3.541352917E-1,3.094217274E-3,-1.214412972E-3,-4.583990946E-2,4.596026848E-2
3.640922917E-1,-1.285617473E-3,-1.034117304E-3,-4.507664591E-2,4.510683116E-2
3.740482917E-1,-1.009265659E-3,-7.694149390E-4,-4.823511466E-2,4.825180725E-2
3.840042917E-1,1.604893245E-3,-1.295122318E-3,-4.820954800E-2,4.825363761E-2
3.939602917E-1,2.551507903E-3,4.227040336E-4,-5.176664889E-2,5.183121461E-2
4.039162917E-1,2.025999129E-4,1.568928361E-3,-4.962839931E-2,4.965360613E-2
4.138722917E-1,-2.488706727E-3,-1.571635716E-3,-4.811030254E-2,4.820025840E-2
4.238282917E-1,6.911075325E-4,-8.123684675E-4,-4.881976917E-2,4.883141852E-2
4.337842917E-1,1.368317520E-3,6.789900362E-5,-4.608723149E-2,4.610758950E-2
4.437402917E-1,8.207716746E-4,3.157165833E-3,-4.454792291E-2,4.466720047E-2
4.536962917E-1,-1.468739007E-3,1.314086840E-4,-4.053235427E-2,4.055916918E-2
4.636532917E-1,-1.231184928E-3,2.085636370E-3,-3.953872621E-2,3.961283335E-2
4.736092917E-1,6.887069903E-4,2.332580276E-3,-4.356116802E-2,4.362901107E-2
4.835652917E-1,2.128412016E-3,-1.263485290E-3,-4.546053335E-2,4.552786647E-2
4.935212917E-1,3.662587842E-4,8.914256468E-4,-3.920394182E-2,3.921578559E-2
5.034772917E-1,-7.639868418E-4,3.377543762E-4,-3.957438469E-2,3.958319943E-2
5.134332917E-1,1.329885330E-3,1.125047915E-3,-3.686604276E-2,3.690717324E-2
5.233892917E-1,-5.290010013E-4,1.075512730E-3,-3.847325966E-2,3.849192485E-2
5.333452917E-1,-3.008790081E-4,1.559435390E-3,-3.804590553E-2,3.807904009E-2
5.433012917E-1,1.845628722E-3,-7.564490661E-4,-3.973701596E-2,3.978704561E-2
5.532572917E-1,1.983724069E-3,1.140315086E-3,-4.065558687E-2,4.071992416E-2
5.632132917E-1,-2.173786052E-4,8.170865476E-5,-4.179035872E-2,4.179100396E-2
5.731702917E-1,5.337379407E-4,-1.546940766E-3,-4.217697307E-2,4.220870715E-2
5.831262917E-1,1.623503398E-3,-4.723556340E-4,-4.140945151E-2,4.144395683E-2
5.930822917E-1,3.699469147E-3,1.495561562E-3,-3.716228902E-2,3.737590804E-2
6.030382917E-1,4.195200163E-4,2.677472308E-3,-3.549728543E-2,3.560059167E-2
6.129941250E-1,5.425999407E-4,-1.229878515E-3,-3.725348040E-2,3.727772550E-2
6.229501250E-1,-2.573831007E-3,5.930559710E-4,-4.210709408E-2,4.218985297E-2
6.329061250E-1,1.870914944E-3,5.530938506E-5,-4.218499362E-2,4.222649724E-2
6.428621250E-1,-7.269986672E-4,-3.047492355E-4,-4.509582743E-2,4.510271667E-2
6.528181250E-1,1.907549333E-3,2.434579656E-4,-4.324568436E-2,4.328841914E-2
6.627741250E-1,-7.437518798E-5,1.026161015E-3,-3.948503733E-2,3.949843935E-2
6.727301250E-1,8.562364383E-4,1.333632506E-3,-3.530760109E-2,3.534315226E-2
6.826871250E-1,-2.686033957E-3,-4.317769781E-4,-3.743067011E-2,3.752940547E-2
6.926431250E-1,-6.091127871E-4,1.447453164E-3,-3.799737990E-2,3.802981749E-2
7.025991250E-1,-6.458644057E-4,-1.634936780E-4,-4.046746343E-2,4.047294736E-2
7.125551250E-1,2.175525762E-3,4.787603393E-4,-4.240034521E-2,4.245882002E-2
7.225111250E-1,3.086499055E-4,1.478244551E-3,-4.265122116E-2,4.267794674E-2
7.324671250E-1,4.166113213E-4,6.184233353E-4,-4.132558405E-2,4.133231072E-2
7.424231250E-1,4.831903498E-4,-2.276965417E-3,-3.963074833E-2,3.969904606E-2
7.523791250E-1,-1.141776447E-3,-1.948580146E-3,-3.915901482E-2,3.922408775E-2
7.623351250E-1,1.887387480E-4,-1.317145303E-3,-4.207517952E-2,4.209621391E-2
7.722911250E-1,6.330994656E-4,-8.288444951E-4,-4.333812743E-2,4.335067575E-2
7.822481250E-1,1.848299871E-3,-1.747719944E-4,-4.359672219E-2,4.363623429E-2
7.922041250E-1,1.414659666E-3,4.761153832E-4,-4.288220033E-2,4.290817000E-2
8.021601250E-1,1.490220893E-5,-1.069317572E-3,-4.234876856E-2,4.236226931E-2
8.121161250E-1,2.711568959E-3,1.981789246E-4,-3.957136720E-2,3.966465660E-2
8.220721250E-1,2.434866503E-3,-2.254060470E-3,-3.805017099E-2,3.819456605E-2
8.320281250E-1,-2.265484538E-3,-6.531756371E-4,-3.843623027E-2,3.850847772E-2
8.419841250E-1,3.868225031E-5,-4.007080570E-4,-3.814195096E-2,3.814407538E-2
8.519401250E-1,2.140121651E-4,-2.104433253E-3,-3.779174387E-2,3.785089623E-2
8.618961250E-1,2.790620551E-3,4.990724847E-4,-3.826578707E-2,3.837065410E-2
8.718521250E-1,4.991170717E-4,2.904534340E-4,-4.104523733E-2,4.104929949E-2
8.818091250E-1,-5.336567992E-4,-6.355280057E-4,-3.755623102E-2,3.756539863E-2
8.917651250E-1,-3.684472758E-4,2.194169909E-3,-3.866947815E-2,3.873343098E-2
9.017211250E-1,1.337041147E-3,1.821517944E-4,-3.714801371E-2,3.717251378E-2
9.116771250E-1,2.106506610E-3,-1.811003312E-4,-3.917689621E-2,3.923390580E-2
9.216331250E-1,-8.602547459E-4,2.982681617E-4,-3.920193017E-2,3.921250223E-2
9.315891250E-1,-1.207354013E-3,-8.920719847E-4,-3.739195317E-2,3.742207448E-2
9.415451250E-1,2.190573141E-3,-1.170905307E-3,-3.983061016E-2,3.990798335E-2
9.515011250E-1,7.553945761E-4,-1.403294504E-3,-3.711015359E-2,3.714435833E-2
9.614571250E-1,2.956763376E-3,1.637097448E-4,-4.052805156E-2,4.063609496E-2
9.714131250E-1,-1.245175372E-3,2.055252902E-3,-4.008353502E-2,4.015550156E-2
9.813691250E-1,-2.874230966E-3,2.858994529E-3,-4.083481431E-2,4.103555913E-2
9.913261250E-1,2.324785804E-3,-1.393818296E-3,-4.070750624E-2,4.079765217E-2
1.001282125E0,-1.485931454E-3,5.801161751E-4,-3.775273263E-2,3.778641751E-2
1.011238125E0,6.576849846E-4,-8.563790470E-4,-4.014762118E-2,4.016213915E-2
1.021194125E0,2.225221600E-3,1.139394008E-3,-3.961552307E-2,3.969432577E-2
1.031150125E0,3.120857291E-4,6.242664531E-4,-4.132607207E-2,4.133196509E-2
1.041106125E0,-1.163305598E-3,2.806993201E-3,-3.714810312E-2,3.727216194E-2
1.051062125E0,-8.540656418E-4,-5.972292274E-5,-3.608990088E-2,3.610005458E-2
1.061018125E0,1.774740755E-3,2.015335485E-4,-3.536285833E-2,3.540793794E-2
1.070974125E0,-2.885877620E-4,-7.709562778E-4,-3.638152033E-2,3.639083234E-2
1.080930125E0,-6.374617806E-4,-7.107760757E-5,-3.912910074E-2,3.913435747E-2
1.090887125E0,7.827647496E-4,4.239212722E-4,-4.371888191E-2,4.372794375E-2
1.100843125E0,-1.903832075E-3,-3.912718967E-4,-4.184507579E-2,4.189019023E-2
1.110799125E0,2.705481835E-3,-1.166475005E-3,-4.248099402E-2,4.258303827E-2
1.120755125E0,-3.601682372E-3,-5.265176296E-4,-3.727265075E-2,3.744996436E-2
1.130711125E0,8.999777492E-5,-1.232538372E-3,-3.663163260E-2,3.665247273E-2
1.140667125E0,-1.168612158E-3,3.741467372E-4,-3.745641187E-2,3.747650504E-2
1.150623125E0,6.400293205E-4,-2.598389052E-3,-4.159305245E-2,4.167905079E-2
1.160579125E0,7.510831347E-4,-2.312898636E-3,-4.321837798E-2,4.328673955E-2
1.170535125E0,8.674317505E-4,-8.376752958E-4,-4.491180182E-2,4.492798771E-2
1.180491125E0,1.599801006E-3,1.211893745E-3,-4.311097413E-2,4.315766607E-2
1.190448125E0,7.750004297E-4,-6.394162774E-4,-4.008318111E-2,4.009577144E-2
1.200404125E0,-2.398688812E-3,-5.872184411E-4,-4.010075703E-2,4.017672520E-2
1.210360125E0,1.314198598E-3,-6.024129689E-4,-3.881560266E-2,3.884251574E-2
1.220316125E0,3.016647534E-4,-9.459601715E-4,-3.696976230E-2,3.698309298E-2
1.230272125E0,5.962554715E-4,2.194380388E-3,-3.742507845E-2,3.749409718E-2
1.240228125E0,-5.313268630E-4,1.503024250E-3,-4.024643078E-2,4.027799127E-2
1.250184125E0,2.419510391E-3,1.847688109E-4,-3.744456917E-2,3.752311195E-2
1.260140125E0,2.645879053E-3,3.861039877E-4,-3.697106242E-2,3.706763020E-2
1.270096125E0,2.851632889E-4,1.253249124E-3,-3.332022578E-2,3.334500558E-2
1.280052125E0,-6.357578095E-4,-7.760794833E-4,-3.305444121E-2,3.306966240E-2
1.290008125E0,2.465493162E-4,-2.558769658E-3,-3.258587047E-2,3.268710821E-2
1.299965125E0,-5.792969605E-4,1.906780526E-4,-3.527912498E-2,3.528439601E-2
1.309921125E0,1.627527527E-4,-7.081376389E-4,-4.101074487E-2,4.101718106E-2
1.319877125E0,-3.576289164E-4,3.613876179E-4,-3.840138018E-2,3.840474579E-2
1.329833125E0,-5.670600804E-4,-9.400602430E-4,-3.806186840E-2,3.807769815E-2
1.339789125E0,8.321647765E-4,2.332963981E-3,-3.895749152E-2,3.903615458E-2
1.349745125E0,5.836416967E-4,2.311503515E-3,-3.681498766E-2,3.689209946E-2
1.359701125E0,-1.016918104E-3,1.537055708E-3,-3.432812542E-2,3.437756328E-2
1.369657125E0,1.004692051E-3,1.599312760E-3,-3.307522833E-2,3.312911011E-2
1.379613125E0,1.889926731E-3,5.715992302E-4,-3.520229459E-2,3.525762461E-2
1.389569125E0,1.731826458E-3,4.659397528E-4,-3.996545449E-2,4.000567304E-2
1.399525125E0,2.703880426E-3,-1.356728375E-3,-3.575606272E-2,3.588380836E-2
1.409482125E0,-7.971620653E-5,-7.376940921E-4,-3.585494682E-2,3.586262342E-2
1.419438125E0,-1.225674525E-3,-7.843002677E-4,-3.449327499E-2,3.452395435E-2
1.429394125E0,1.577811781E-5,1.342240721E-3,-3.315360844E-2,3.318077172E-2
1.439350125E0,1.971394522E-4,-6.969422102E-4,-3.239540756E-2,3.240350326E-2
1.449306125E0,-1.693504630E-3,-1.045409590E-4,-3.441831470E-2,3.446011133E-2
1.459262125E0,-3.763050772E-4,1.252889633E-4,-3.517439216E-2,3.517662813E-2
1.469218125E0,-9.659677744E-6,3.355983645E-4,-3.704544157E-2,3.704696291E-2
1.479174125E0,1.088095363E-3,5.941912532E-4,-3.852163255E-2,3.854157741E-2
1.489130125E0,-9.603452636E-4,-4.004593939E-5,-3.499337658E-2,3.500657469E-2
1.499086125E0,7.017335738E-4,1.980494708E-3,-3.254220635E-2,3.260996754E-2
1.509043125E0,1.519912272E-3,-1.027296297E-3,-3.198799491E-2,3.204055694E-2
1.518999125E0,1.223502448E-3,1.697383821E-3,-3.298614919E-2,3.305244482E-2
1.528955125E0,6.792973727E-5,-7.606139407E-4,-3.510726988E-2,3.511557413E-2
1.538911125E0,2.416571602E-3,-1.519545913E-5,-3.907298297E-2,3.914764421E-2
1.548867125E0,3.630529391E-4,-7.676677778E-4,-3.502895683E-2,3.503924853E-2
1.558823125E0,1.407012111E-3,-5.812458694E-4,-3.487556428E-2,3.490877416E-2
1.568779125E0,1.500724349E-3,-1.590959728E-4,-3.280621767E-2,3.284091051E-2
1.578735125E0,-7.157446817E-6,-6.424598396E-4,-3.029032983E-2,3.029714322E-2
1.588691125E0,-2.197187860E-5,6.572110578E-4,-3.362479806E-2,3.363122736E-2
1.598647125E0,1.088299905E-3,1.581061631E-3,-3.351747245E-2,3.357238615E-2
1.608604625E0,-1.205498818E-3,2.564699389E-3,-3.528015688E-2,3.539379013E-2
1.618560625E0,-6.049560616E-4,1.758430153E-4,-3.301434219E-2,3.302035255E-2
1.628516625E0,-1.735118334E-3,-8.296268061E-4,-3.239517659E-2,3.245221691E-2
1.638472625E0,8.843669202E-4,-1.266918145E-3,-3.216268122E-2,3.219977096E-2
1.648428625E0,1.182154054E-3,1.452578232E-3,-3.216972947E-2,3.222419845E-2
1.658384625E0,-3.137434833E-4,-2.076377161E-3,-3.691894561E-2,3.697861980E-2
1.668340625E0,1.360846683E-3,-9.831106290E-4,-3.726121411E-2,3.729901456E-2
1.678296625E0,2.206932753E-3,2.161106095E-4,-4.008469731E-2,4.014598628E-2
1.688252625E0,6.225805846E-4,1.071747392E-3,-3.781003505E-2,3.783034496E-2
1.698208625E0,-1.980126835E-3,-9.139059111E-4,-3.290636092E-2,3.297854932E-2
1.708165625E0,-9.313854389E-5,9.582592174E-4,-3.481501341E-2,3.482832316E-2
1.718121625E0,8.560120477E-4,1.115651801E-3,-3.382431716E-2,3.385353551E-2
1.728077625E0,-3.454486374E-3,1.295907423E-4,-3.453857452E-2,3.471114230E-2
1.738033625E0,1.543734223E-3,-1.208115369E-3,-3.495935351E-2,3.501426932E-2
1.747989625E0,7.233490469E-4,-5.839169025E-4,-3.540778533E-2,3.541998665E-2
1.757945625E0,-5.645556375E-4,-3.255903721E-4,-3.312093019E-2,3.312734141E-2
1.767901625E0,-2.240050817E-4,4.507163540E-4,-3.286813200E-2,3.287198540E-2
1.777857625E0,4.250073107E-4,-8.326610550E-4,-2.842731029E-2,2.844267790E-2
1.787813625E0,-4.527647980E-4,3.036409616E-4,-3.057640791E-2,3.058126738E-2
1.797769625E0,3.954520216E-4,-4.204725847E-4,-3.064991161E-2,3.065534637E-2
1.807725625E0,-9.595965967E-4,-2.125818282E-4,-3.488838300E-2,3.490222464E-2
1.817682625E0,2.508101752E-4,-6.213765591E-4,-3.637709096E-2,3.638326210E-2
1.827638625E0,1.066814293E-3,1.658573747E-3,-3.717429936E-2,3.722656971E-2
1.837594625E0,2.949669259E-3,-9.244261310E-4,-3.617561236E-2,3.630743783E-2
1.847550625E0,2.772219479E-3,-8.456707001E-4,-3.796064854E-2,3.807113338E-2
1.857506625E0,1.514142146E-3,-7.452694699E-4,-3.068595566E-2,3.073232708E-2
1.867462625E0,-1.725632115E-3,-7.647620514E-4,-2.896138281E-2,2.902282483E-2
1.877418625E0,-1.149057760E-3,1.237135381E-3,-3.298914805E-2,3.303232851E-2
1.887374625E0,1.919998671E-3,-1.261659898E-3,-3.708655015E-2,3.715764231E-2
1.897330625E0,2.320804400E-3,-5.306228995E-4,-3.830175102E-2,3.837566709E-2
1.907286625E0,1.564627164E-4,-1.428321935E-3,-3.766614199E-2,3.769353839E-2
1.917243625E0,8.182582678E-4,2.634863369E-3,-3.726613522E-2,3.736812660E-2
1.927199625E0,5.810754374E-4,7.666638121E-4,-3.699378669E-2,3.700629238E-2
1.937155625E0,1.764317858E-3,-3.087203950E-4,-3.421051800E-2,3.425737392E-2
1.947111625E0,-9.318239754E-4,-1.659707166E-3,-3.370659798E-2,3.376029727E-2
1.957067625E0,1.847450971E-3,1.012241468E-3,-3.362084180E-2,3.368677354E-2
1.967023625E0,-1.254963689E-3,-1.752051525E-3,-3.495810553E-2,3.502447374E-2
1.976979625E0,-2.318363870E-3,-2.968316898E-3,-3.485823795E-2,3.506112476E-2
1.986935625E0,-2.104870044E-3,3.223866224E-5,-3.700199351E-2,3.706182727E-2
1.996891625E0,7.439132896E-4,7.182685658E-4,-3.561129048E-2,3.562630105E-2
2.006847625E0,-6.711229216E-4,-7.276581600E-4,-3.311617300E-2,3.313096447E-2
2.016803625E0,1.193033531E-4,1.336025074E-3,-3.310472146E-2,3.313188463E-2
2.026760625E0,-7.670902414E-4,-1.202126965E-3,-3.408359364E-2,3.411341220E-2
2.036716625E0,1.210739138E-4,1.851134002E-4,-3.531930223E-2,3.531999485E-2
2.046672625E0,-1.904857461E-3,5.688825622E-4,-3.695445880E-2,3.700789287E-2
2.056628625E0,-3.455765545E-4,3.624875098E-4,-3.546335176E-2,3.546688791E-2
2.066584625E0,1.189751201E-4,2.102499828E-3,-3.392837197E-2,3.399366242E-2
2.076540625E0,5.490756594E-4,1.913148910E-3,-3.021672368E-2,3.028220621E-2
2.086496625E0,1.153939520E-4,1.156311482E-4,-3.166351095E-2,3.166393235E-2
2.096452625E0,-5.751637509E-4,-2.096123993E-3,-3.309735656E-2,3.316865328E-2
2.106408625E0,7.460736670E-4,9.974809363E-4,-3.782802075E-2,3.784852372E-2
2.116364625E0,-2.073947340E-3,6.659179926E-4,-3.871671483E-2,3.877794104E-2
2.126321625E0,1.490711467E-3,-2.216344699E-3,-3.755234182E-2,3.764721478E-2
2.136277625E0,-1.430243487E-3,1.818323508E-4,-3.358370066E-2,3.361463386E-2
2.146233625E0,1.446846523E-3,-3.689909354E-4,-3.450443596E-2,3.453672856E-2
2.156189625E0,-1.423508511E-3,-1.675271429E-3,-3.290760517E-2,3.298095494E-2
2.166145625E0,-9.426267352E-4,-3.263510764E-3,-3.333663195E-2,3.350925361E-2
2.176101625E0,1.551689813E-3,1.507275738E-3,-3.406580538E-2,3.413442130E-2
2.186057625E0,7.830837276E-4,6.161862984E-4,-3.202327713E-2,3.203877626E-2
2.196013625E0,2.213201253E-3,-5.846330896E-4,-3.426779062E-2,3.434416296E-2
2.205969625E0,-5.221692845E-6,1.544645056E-3,-2.880460769E-2,2.884599417E-2
2.215925625E0,-1.913766610E-4,-8.743042126E-4,-2.820193395E-2,2.821613211E-2
2.225882625E0,-2.625316847E-4,2.548517659E-3,-3.054809943E-2,3.065534609E-2
2.235838625E0,-8.937008679E-4,1.727119088E-4,-2.971293032E-2,2.972686931E-2
2.245794625E0,-9.168109391E-4,-2.501038834E-4,-3.111835942E-2,3.113286667E-2
2.255750625E0,5.814833567E-4,1.558981836E-3,-3.267231584E-2,3.271465680E-2
2.265706625E0,1.875672722E-3,-1.309149899E-3,-3.326962143E-2,3.334815935E-2
2.275662625E0,-9.749749443E-4,4.860870540E-4,-3.291089088E-2,3.292891731E-2
2.285618625E0,9.327361477E-4,1.147082075E-4,-3.310658783E-2,3.311992319E-2
2.295574625E0,1.178013277E-3,-1.445505768E-5,-3.119577095E-2,3.121800841E-2
2.305530625E0,-1.519081648E-3,-1.889592968E-3,-2.979084663E-2,2.988934114E-2
2.315486625E0,3.951985855E-4,-7.055513561E-4,-2.698360942E-2,2.699572489E-2
2.325443625E0,6.396147655E-4,-3.149610944E-3,-2.790811844E-2,2.809256541E-2
2.335399625E0,8.329602424E-4,1.786558889E-3,-3.103760071E-2,3.110013301E-2
2.345355625E0,1.218496822E-3,3.442941234E-4,-3.247978538E-2,3.250445710E-2
2.355311625E0,1.917310292E-3,-1.640027389E-3,-3.365557641E-2,3.375001618E-2
2.365267625E0,2.760350704E-3,1.115141436E-3,-3.176995739E-2,3.190914084E-2
2.375223625E0,-7.289230125E-4,1.234184951E-3,-3.160324320E-2,3.163573173E-2
2.385179625E0,1.301525394E-3,4.966370761E-4,-3.126451001E-2,3.129553007E-2
2.395135625E0,1.229886315E-3,7.131528109E-4,-3.094226494E-2,3.097490867E-2
2.405091625E0,-1.537067001E-3,1.950902864E-3,-3.112257458E-2,3.122151895E-2
2.415047625E0,4.831282422E-5,-6.842948496E-4,-2.696591429E-2,2.697463859E-2
2.425003625E0,2.707275096E-3,7.456364110E-4,-3.010120243E-2,3.023189871E-2
2.434960625E0,5.719526671E-4,-8.040564135E-4,-3.473829851E-2,3.475230956E-2
2.444916625E0,3.888025414E-3,-7.609473541E-4,-3.486271575E-2,3.508710208E-2
2.454872625E0,5.747866817E-4,-1.162284985E-3,-3.409013525E-2,3.411478576E-2
2.464828625E0,-1.155033940E-3,2.884042449E-3,-2.739364654E-2,2.756925235E-2
2.474784625E0,3.737725550E-3,3.942530602E-4,-2.681734040E-2,2.707943452E-2
2.484740625E0,7.240154082E-5,-3.348570317E-5,-3.033740073E-2,3.033750561E-2
2.494696625E0,1.803456224E-3,7.641315460E-4,-3.202717379E-2,3.208701002E-2
2.504652625E0,9.460101137E-4,2.036793157E-4,-3.250965476E-2,3.252405376E-2
2.514608625E0,3.603809746E-4,-2.908054739E-5,-3.266146034E-2,3.266346142E-2
2.524564625E0,-1.162484521E-3,8.302023634E-4,-3.182442114E-2,3.185646539E-2
2.534521625E0,1.217848854E-3,1.742662862E-4,-2.793008089E-2,2.795716264E-2
2.544477625E0,5.030947505E-4,1.339415088E-3,-2.835012227E-2,2.838620387E-2
2.554433625E0,3.941714531E-4,-3.668721765E-4,-2.842788398E-2,2.843298356E-2
2.564389625E0,1.547181397E-3,-1.529932022E-3,-3.049902245E-2,3.057654056E-2
2.574345625E0,-8.107813774E-4,1.025861129E-4,-3.165563196E-2,3.166617952E-2
2.584301625E0,-1.544575673E-3,1.792975701E-3,-3.016966954E-2,3.026234353E-2
2.594257625E0,-8.138042176E-4,-2.020138316E-3,-3.214680031E-2,3.222049047E-2
2.604213625E0,-2.109795576E-3,7.333047688E-4,-2.740548365E-2,2.749635444E-2
2.614169125E0,-1.151856501E-3,2.783350646E-5,-2.962096594E-2,2.964336640E-2
2.624125125E0,1.396767329E-3,-5.271844566E-5,-3.210940212E-2,3.213981087E-2
2.634082125E0,-1.853886992E-3,-1.903083175E-3,-3.056343645E-2,3.067869407E-2
2.644038125E0,-2.685484942E-4,-1.130913384E-3,-3.383158147E-2,3.385154337E-2
2.653994125E0,1.897400478E-3,-7.253140211E-4,-3.136150166E-2,3.142721743E-2
2.663950125E0,1.544399420E-3,3.717318177E-4,-2.623911388E-2,2.628715373E-2
2.673906125E0,-2.484963275E-3,-1.561722718E-3,-2.727322094E-2,2.743068721E-2
2.683862125E0,-4.521791125E-4,-1.551157795E-3,-3.082648665E-2,3.086880036E-2
2.693818125E0,-1.308651641E-3,1.575127244E-3,-3.066589683E-2,3.073419632E-2
2.703774125E0,-1.689010300E-3,3.585033119E-4,-3.350480646E-2,3.354926730E-2
2.713730125E0,-3.331948537E-4,-2.423435450E-3,-3.271917626E-2,3.281049456E-2
2.723686125E0,-1.062744297E-3,-7.480559871E-4,-2.888963744E-2,2.891885483E-2
2.733643125E0,-2.638004022E-3,5.622189492E-4,-2.848217264E-2,2.860960177E-2
2.743599125E0,-1.178169274E-3,2.893628553E-4,-2.949151210E-2,2.951645473E-2
2.753555125E0,-3.033208195E-4,8.073477075E-4,-2.601395734E-2,2.602824985E-2
2.763511125E0,-1.714559854E-3,1.958213747E-3,-2.875310369E-2,2.887066484E-2
2.773467125E0,1.890561194E-3,2.081784420E-3,-2.742232196E-2,2.756613483E-2
2.783423125E0,7.657729439E-4,1.938384026E-3,-3.281091899E-2,3.287704588E-2
2.793379125E0,6.738938973E-4,-2.138117328E-3,-3.215365112E-2,3.223170735E-2
2.803335125E0,-1.137441257E-3,3.786862828E-3,-2.812181413E-2,2.839842483E-2
2.813291125E0,-7.126670098E-4,-9.197415784E-4,-2.611032501E-2,2.613623712E-2
2.823247125E0,-1.311870525E-3,1.159226522E-4,-2.453751676E-2,2.457283400E-2
2.833204125E0,-1.297755865E-3,-9.599942714E-4,-2.779749222E-2,2.784432317E-2
2.843160125E0,1.992563019E-3,-9.543998167E-4,-3.200821579E-2,3.208437414E-2
2.853116125E0,-8.516929811E-4,8.876062930E-5,-2.979220264E-2,2.980450633E-2
2.863072125E0,-5.586349871E-4,-1.192213967E-3,-3.246995434E-2,3.249663647E-2
2.873028125E0,-6.329371827E-4,-2.965346910E-3,-3.148591891E-2,3.163158202E-2
2.882984125E0,6.746237050E-4,4.668524489E-4,-2.918652631E-2,2.919805450E-2
2.892940125E0,-6.942410255E-4,2.559302375E-4,-2.889464609E-2,2.890411811E-2
2.902896125E0,1.243898878E-3,1.663425937E-3,-3.085966036E-2,3.092948282E-2
2.912852125E0,1.197027275E-3,7.920395583E-4,-2.918959409E-2,2.922486277E-2
2.922808125E0,1.358029782E-3,-4.643518478E-4,-2.752158418E-2,2.755898154E-2
2.932765125E0,-7.173715858E-4,2.128900960E-4,-2.855622023E-2,2.856602279E-2
2.942721125E0,-1.058245776E-3,-2.068062313E-3,-2.657585964E-2,2.667720153E-2
2.952677125E0,-8.361381479E-4,3.708600998E-4,-2.991839498E-2,2.993237416E-2
2.962633125E0,-1.317944727E-3,2.161093988E-3,-2.720600367E-2,2.732350528E-2
2.972589125E0,-2.113963477E-3,-8.413540199E-4,-3.132963926E-2,3.141214756E-2
2.982545125E0,-1.052749576E-3,4.775319248E-4,-3.023426048E-2,3.025635182E-2
2.992501125E0,4.300984438E-4,-1.509718597E-3,-2.983718179E-2,2.987844795E-2
3.002457125E0,1.451853663E-3,3.962032497E-5,-2.732461505E-2,2.736318761E-2
3.012413125E0,-2.931443276E-3,-9.177858010E-4,-2.829081006E-2,2.845708391E-2
3.022369125E0,2.432400361E-3,1.551620662E-3,-2.987414785E-2,3.001314392E-2
3.032326125E0,7.298414130E-4,1.167060807E-3,-2.859742753E-2,2.863053546E-2
3.042282125E0,-8.780676872E-4,-8.683111519E-4,-2.738386020E-2,2.741169033E-2
3.052238125E0,-7.643506397E-4,5.405014381E-4,-2.632445469E-2,2.634109505E-2
3.062194125E0,-1.082710922E-3,2.158726566E-3,-2.964037471E-2,2.973859741E-2
3.072150125E0,1.433443627E-3,1.665509306E-3,-3.052214719E-2,3.060114624E-2
3.082106125E0,-1.757207792E-3,3.608874977E-6,-2.795554139E-2,2.801071378E-2
3.092062125E0,1.194639946E-3,3.940286115E-4,-3.012362309E-2,3.014987713E-2
3.102018125E0,1.813998446E-3,1.455046237E-3,-3.039632924E-2,3.048515345E-2
3.111974125E0,-7.647405146E-4,-3.153085709E-5,-2.610996924E-2,2.612118520E-2
3.121930125E0,-5.327899707E-4,-1.454610378E-3,-2.541661263E-2,2.546377729E-2
3.131887125E0,5.037123337E-4,-4.474027082E-4,-2.634578943E-2,2.635440222E-2
3.141843125E0,-1.787154237E-3,-3.671767190E-4,-2.607347630E-2,2.613723217E-2
3.151799125E0,-4.526443081E-4,6.062909961E-7,-2.743781172E-2,2.744154513E-2
3.161755125E0,1.724372967E-3,1.804783940E-3,-2.915899828E-2,2.926564347E-2
3.171711125E0,4.631513730E-5,-8.320119232E-4,-2.950680628E-2,2.951857053E-2
3.181667125E0,-7.348340005E-4,1.050208695E-3,-2.803110331E-2,2.806039330E-2
3.191623125E0,1.250286237E-3,6.403960288E-5,-2.675731480E-2,2.678658642E-2
3.201579125E0,9.132644045E-4,1.522549428E-3,-2.572090365E-2,2.578210801E-2
3.211535125E0,-5.682520568E-4,-1.299418509E-4,-2.416987903E-2,2.417690733E-2
3.221491125E0,7.142509567E-4,-1.895604655E-4,-2.874686196E-2,2.875635861E-2
3.231448125E0,1.290825312E-3,5.955398083E-4,-3.291390836E-2,3.294459381E-2
3.241404125E0,9.806401795E-4,-8.157873526E-4,-3.306764364E-2,3.309223807E-2
3.251360125E0,2.543961164E-4,-2.634478733E-4,-2.600654028E-2,2.600911878E-2
3.261316125E0,3.385018557E-3,4.852749407E-4,-2.379590832E-2,2.404036387E-2
3.271272125E0,6.651319563E-4,-1.734735444E-3,-2.406488545E-2,2.413649559E-2
3.281228125E0,-1.478305901E-3,9.781206027E-4,-2.495847642E-2,2.502134396E-2
3.291184125E0,-8.687082445E-4,6.460240111E-4,-2.588045970E-2,2.590309239E-2
3.301140125E0,9.643831872E-4,-1.311107539E-3,-2.990950271E-2,2.995375420E-2
3.311096125E0,5.891437759E-4,-8.892621845E-4,-3.545500338E-2,3.547104654E-2
3.321052125E0,1.289862907E-3,1.215566881E-3,-3.168078512E-2,3.173032453E-2
3.331009125E0,4.152808106E-4,1.810517162E-3,-2.519864775E-2,2.526701959E-2
3.340965125E0,2.701664576E-3,7.822476327E-4,-2.401148528E-2,2.417565569E-2
3.350921125E0,-6.174331065E-4,2.293754369E-4,-2.669115737E-2,2.669928311E-2
3.360877125E0,2.028602175E-4,-4.871664569E-4,-2.684098110E-2,2.684616825E-2
3.370833125E0,1.543229213E-3,2.515949309E-4,-2.898456156E-2,2.902670607E-2
3.380789125E0,2.641841304E-3,1.759220846E-3,-2.890625782E-2,2.907999183E-2
3.390745125E0,-2.150783315E-3,7.117995992E-4,-3.011826240E-2,3.020334844E-2
3.400701125E0,-1.479594735E-3,4.920493811E-4,-2.664086409E-2,2.668645635E-2
3.410657125E0,-8.942319546E-4,1.165563241E-3,-2.639771812E-2,2.643856483E-2
3.420613125E0,-7.390801329E-4,1.819102094E-3,-2.319261059E-2,2.327557857E-2
3.430570125E0,-7.952728774E-4,-2.376974560E-3,-2.646376938E-2,2.658220376E-2
3.440526125E0,1.117310370E-3,9.085079655E-4,-2.687759325E-2,2.691614363E-2
3.450482125E0,-3.405003343E-3,1.156714745E-3,-2.904993296E-2,2.927166961E-2
3.460438125E0,-1.315945061E-3,1.701025292E-3,-3.307946771E-2,3.314930441E-2
3.470394125E0,1.186893671E-3,2.384126186E-3,-3.060911968E-2,3.072476171E-2
3.480350125E0,1.345276367E-3,3.057634458E-4,-2.441772446E-2,2.445666632E-2
3.490306125E0,-5.508942995E-4,6.991121918E-4,-2.220996469E-2,2.222779283E-2
3.500262125E0,-5.778692430E-4,3.790855408E-5,-2.253012918E-2,2.253757065E-2
3.510218125E0,1.023489516E-3,-8.497228846E-4,-2.775525115E-2,2.778711080E-2
3.520174125E0,1.242877333E-4,-8.777063340E-5,-3.437968343E-2,3.438002013E-2
3.530131125E0,9.125833749E-4,8.636154234E-6,-3.217804432E-2,3.219098351E-2
3.540087125E0,2.949906047E-4,-1.153239980E-3,-2.761512622E-2,2.764077022E-2
3.550043125E0,3.919297014E-4,-1.846486703E-4,-2.329041809E-2,2.329444738E-2
3.559999125E0,-1.892341417E-3,-9.405659512E-4,-2.383049577E-2,2.392400780E-2
3.569955125E0,3.066306817E-4,-3.072666004E-4,-2.371678129E-2,2.372075357E-2
3.579911125E0,-3.403837327E-4,1.622945070E-3,-2.685838379E-2,2.690952604E-2
3.589867125E0,-6.245430559E-4,1.134254970E-3,-2.926481701E-2,2.929344813E-2
3.599823125E0,-2.854245249E-4,-1.527937129E-4,-2.874812670E-2,2.874994960E-2
3.609779125E0,2.841925714E-3,-1.466264948E-3,-2.946744673E-2,2.964046038E-2
3.619735250E0,-2.150723943E-3,-6.154067814E-4,-2.419926785E-2,2.430244645E-2
3.629692250E0,-5.384462420E-4,1.727109775E-3,-2.523710020E-2,2.530185880E-2
3.639648250E0,-1.570966560E-3,-1.059705392E-4,-2.616259083E-2,2.620992798E-2
3.649604250E0,-3.903872566E-4,-1.725498587E-4,-2.639774978E-2,2.640120015E-2
3.659560250E0,-1.146707218E-3,-7.652835920E-4,-2.748378739E-2,2.751834235E-2
3.669516250E0,2.145226113E-3,2.255273052E-3,-3.081912920E-2,3.097590961E-2
3.679472250E0,1.234329189E-3,-1.091836952E-3,-3.158716112E-2,3.163011894E-2
3.689428250E0,-7.265562890E-4,2.117808908E-4,-3.117384017E-2,3.118302496E-2
3.699384250E0,1.454555080E-3,-1.800050959E-4,-2.502617240E-2,2.506905338E-2
3.709340250E0,2.442321507E-3,-1.127557829E-3,-2.307913452E-2,2.323537758E-2
3.719296250E0,-1.957105007E-3,-1.071079634E-3,-2.255507559E-2,2.266514739E-2
3.729253250E0,2.234912827E-4,1.224032603E-3,-2.603103220E-2,2.606075290E-2
3.739209250E0,1.168383635E-3,9.504090995E-4,-2.883796208E-2,2.887726536E-2
3.749165250E0,-5.480623804E-5,1.118986867E-3,-3.289368749E-2,3.291276062E-2
3.759121250E0,2.876630519E-3,2.972399816E-4,-3.316638991E-2,3.329223295E-2
3.769077250E0,3.384761512E-3,7.952516899E-4,-2.758786455E-2,2.780610196E-2
3.779033250E0,2.153366338E-3,3.107246011E-4,-2.549814247E-2,2.559079533E-2
3.788989250E0,1.122190501E-3,-4.418846220E-4,-2.416229807E-2,2.419237941E-2
3.798945250E0,-3.162464127E-4,4.104655236E-4,-2.419882640E-2,2.420437343E-2
3.808901250E0,-1.100014662E-3,-9.287148714E-5,-2.618661150E-2,2.620986989E-2
3.818857250E0,2.937272657E-4,-1.215972938E-3,-3.028595075E-2,3.031177459E-2
3.828814250E0,4.093259107E-3,1.500184648E-3,-3.253845125E-2,3.282919637E-2
3.838770250E0,-3.355846275E-3,-3.143986687E-4,-2.933152393E-2,2.952454651E-2
3.848726250E0,-4.229070619E-4,-1.332525164E-3,-2.671150491E-2,2.674806475E-2
3.858682250E0,2.536797896E-3,-2.919984981E-4,-2.829628065E-2,2.841126723E-2
3.868638250E0,-3.293394577E-3,-1.213186421E-3,-2.671516314E-2,2.694472510E-2
3.878594250E0,2.714515664E-3,-2.452144399E-4,-2.584860101E-2,2.599190066E-2
3.888550250E0,-1.418976812E-3,1.775325276E-3,-2.555192262E-2,2.565279760E-2
3.898506250E0,7.584540872E-4,-5.286680534E-4,-2.620061673E-2,2.621692315E-2
3.908462250E0,5.406075506E-4,-7.510418072E-4,-2.551405318E-2,2.553082901E-2
3.918418250E0,2.801774070E-3,1.942384988E-4,-2.632651292E-2,2.647589373E-2
3.928375250E0,9.360542754E-5,-5.341358483E-4,-2.683970518E-2,2.684518276E-2
3.938331250E0,-2.259772271E-3,-1.832277514E-3,-2.709114365E-2,2.724690581E-2
3.948287250E0,-1.201886917E-4,1.458590850E-3,-2.583040111E-2,2.587182935E-2
3.958243250E0,1.920260605E-3,9.001521394E-4,-2.574887313E-2,2.583606282E-2
3.968199250E0,-6.811150815E-4,-1.009334810E-3,-2.614089288E-2,2.616923681E-2
3.978155250E0,1.829755493E-4,-8.980026469E-4,-2.746843547E-2,2.748371947E-2
3.988111250E0,7.105477853E-4,-1.022904180E-3,-2.879016101E-2,2.881708837E-2
3.998067250E0,2.345988993E-3,1.490714960E-3,-2.998817898E-2,3.011671918E-2
4.008023250E0,2.382740378E-3,-6.225034595E-4,-3.133494407E-2,3.143157142E-2
4.017979250E0,6.508085644E-4,-2.972073853E-4,-2.619712800E-2,2.620689603E-2
4.027936250E0,1.734715072E-3,2.836800180E-3,-2.627089620E-2,2.648049581E-2
4.037892250E0,-5.012351321E-4,-3.761353903E-3,-2.497770265E-2,2.526429594E-2
4.047848250E0,1.250858535E-3,5.553625524E-4,-2.394865453E-2,2.398772871E-2
4.057804250E0,-1.534615876E-4,1.891505904E-3,-2.342731133E-2,2.350404776E-2
4.067760250E0,1.289172797E-3,-3.524739295E-4,-2.610511705E-2,2.613930643E-2
4.077716250E0,2.399564255E-4,3.876602277E-4,-2.724152058E-2,2.724533544E-2
4.087672250E0,2.967566019E-3,-1.342861913E-3,-2.708679065E-2,2.728193457E-2
4.097628250E0,2.710124478E-3,1.012410969E-3,-2.590204217E-2,2.606310686E-2
4.107584250E0,1.308502629E-3,7.106745616E-4,-2.546554990E-2,2.550904681E-2
4.117541250E0,1.667177305E-3,5.906671286E-4,-2.069666982E-2,2.077210893E-2
4.127497250E0,-2.275899053E-3,1.574705355E-3,-2.436890453E-2,2.452555650E-2
4.137453250E0,-1.674877596E-3,-4.750937223E-4,-2.766629867E-2,2.772102111E-2
4.147409250E0,-3.347748425E-4,-6.070639938E-5,-3.193694353E-2,3.193875579E-2
4.157365250E0,-7.328785723E-4,-1.479908824E-4,-3.003530949E-2,3.004461397E-2
4.167321250E0,1.057509216E-4,-2.084641717E-3,-2.872210741E-2,2.879785354E-2
4.177277250E0,-8.583664894E-4,4.566032439E-4,-2.709487826E-2,2.711231652E-2
4.187233250E0,3.882859135E-3,6.355680525E-4,-2.115443349E-2,2.151721632E-2
4.197189250E0,-3.372892970E-4,3.241840750E-4,-2.156982757E-2,2.157490025E-2
4.207145250E0,-2.070474671E-3,-2.387446351E-3,-2.601144649E-2,2.620271196E-2
4.217102250E0,-2.298159525E-4,-3.674253821E-5,-2.965336293E-2,2.965427623E-2
4.227058250E0,3.191813361E-3,-1.622122712E-3,-2.959424257E-2,2.981003435E-2
4.237014250E0,-1.741508371E-3,-8.973209187E-4,-2.955528162E-2,2.962014024E-2
4.246970250E0,1.663875766E-3,-1.953796484E-3,-2.621221356E-2,2.633753867E-2
4.256926250E0,3.270632122E-3,5.335025489E-4,-2.597270161E-2,2.618325588E-2
4.266882250E0,2.621885855E-3,9.942296892E-4,-2.201977372E-2,2.219759475E-2
4.276838250E0,1.946985722E-4,1.337687485E-3,-2.429619245E-2,2.433376837E-2
4.286794250E0,-9.728311561E-4,1.723046415E-3,-2.698411979E-2,2.705657055E-2
4.296750250E0,2.011084463E-3,-1.064267009E-3,-2.864891291E-2,2.873912552E-2
4.306706250E0,-1.167813316E-4,4.143202677E-4,-2.967050299E-2,2.967362544E-2
4.316663250E0,2.057843376E-4,-1.736339182E-4,-3.253837675E-2,3.253949074E-2
4.326619250E0,1.595155452E-3,-1.496692188E-3,-2.758382820E-2,2.767042078E-2
4.336575250E0,1.825596439E-3,1.302982680E-3,-2.554873377E-2,2.564699521E-2
4.346531250E0,1.862081699E-3,-2.741413191E-4,-2.457827702E-2,2.465023738E-2
4.356487250E0,2.154584508E-4,5.021700636E-4,-2.301544137E-2,2.302192735E-2
4.366443250E0,-2.219736110E-3,6.819339469E-4,-2.935083397E-2,2.944254943E-2
4.376399250E0,-1.203027321E-3,-1.377861015E-3,-3.043909743E-2,3.049400643E-2
4.386355250E0,1.632973086E-3,8.850274608E-4,-3.103191778E-2,3.108745399E-2
4.396311250E0,1.813837327E-3,-9.276205674E-4,-2.957104333E-2,2.964113846E-2
4.406267250E0,2.593502286E-4,-1.269570552E-3,-2.513235249E-2,2.516573491E-2
4.416224250E0,-9.421976283E-4,3.503486514E-4,-2.483458631E-2,2.485492220E-2
4.426180250E0,-4.071685253E-4,2.266226336E-3,-2.427692153E-2,2.438586654E-2
4.436136250E0,-1.120238565E-3,5.929730833E-5,-2.296913974E-2,2.299651780E-2
4.446092250E0,5.263939383E-4,-9.566983208E-4,-2.733991854E-2,2.736171610E-2
4.456048250E0,6.219787756E-4,-3.622788936E-4,-2.807029337E-2,2.807952053E-2
4.466004250E0,2.796716057E-3,3.370679915E-4,-2.954701707E-2,2.968099481E-2
4.475960250E0,7.508326671E-4,1.178123057E-3,-2.723246999E-2,2.726828094E-2
4.485916250E0,-8.965986781E-4,-2.137245610E-3,-2.549422719E-2,2.559936186E-2
4.495872250E0,2.507341094E-3,-5.354052410E-4,-2.211403847E-2,2.226216781E-2
4.505829250E0,-1.548386877E-3,1.494456083E-3,-2.294681221E-2,2.304749643E-2
4.515785250E0,-1.809101319E-3,1.448738389E-3,-2.449554019E-2,2.460494218E-2
4.525741250E0,1.174704405E-3,-1.728412695E-3,-2.945674397E-2,2.953078235E-2
4.535697250E0,1.476100995E-3,2.786694095E-4,-2.758755721E-2,2.762842456E-2
4.545653250E0,-7.210068870E-4,1.533550210E-3,-2.905788831E-2,2.910725855E-2
4.555609250E0,-1.032899367E-3,7.522134110E-4,-2.828140184E-2,2.831025249E-2
4.565565250E0,1.845711377E-3,2.269682474E-3,-2.426056191E-2,2.443630441E-2
4.575521250E0,2.215394750E-3,1.602685079E-3,-2.292693965E-2,2.308941608E-2
4.585477250E0,2.530979458E-3,-8.074752986E-4,-2.422496490E-2,2.437020307E-2
4.595433250E0,3.133820137E-4,1.069918275E-3,-2.849879861E-2,2.852059704E-2
4.605390250E0,-4.778431030E-4,6.670597941E-5,-2.825298905E-2,2.825710838E-2
4.615346000E0,4.795053392E-4,1.183738932E-4,-3.025127575E-2,3.025530734E-2
4.625302000E0,-9.519438026E-4,-1.887518913E-3,-2.693084627E-2,2.701368923E-2
4.635258000E0,1.046498888E-3,-2.756156027E-5,-2.299556136E-2,2.301937796E-2
4.645214000E0,5.961583229E-4,2.498180605E-3,-2.286453173E-2,2.300832723E-2
4.655170000E0,-2.141704317E-5,5.366289988E-4,-2.319955453E-2,2.320576997E-2
4.665126000E0,6.502321921E-4,-1.039963216E-3,-2.691519633E-2,2.694312749E-2
4.675082000E0,5.977671826E-4,1.066728495E-3,-2.638971061E-2,2.641802531E-2
4.685038000E0,-1.103726448E-3,-7.868316025E-4,-2.754791826E-2,2.758124574E-2
4.694995000E0,1.190777402E-3,1.339661889E-3,-3.012897633E-2,3.018224411E-2
4.704951000E0,-1.919358037E-4,1.309568062E-3,-2.642931230E-2,2.646243293E-2
4.714907000E0,5.926307058E-4,1.113524660E-3,-2.375184745E-2,2.378531912E-2
4.724863000E0,-1.167985145E-3,-3.818403929E-4,-2.618624270E-2,2.621505861E-2
4.734819000E0,1.725209877E-3,-3.702612594E-4,-2.764517441E-2,2.770142796E-2
4.744775000E0,2.460242249E-3,-1.576673239E-3,-2.636792138E-2,2.652934165E-2
4.754731000E0,6.140815094E-5,1.489329152E-3,-2.833842859E-2,2.837760397E-2
4.764687000E0,2.936357632E-4,1.582810655E-4,-2.606355771E-2,2.606569231E-2
4.774643000E0,-1.034179237E-3,-1.847390085E-4,-2.820374258E-2,2.822330155E-2
4.784599000E0,-1.147097209E-3,-1.924315467E-3,-2.812038548E-2,2.820948248E-2
4.794556000E0,1.004013116E-3,1.221084967E-4,-2.627252229E-2,2.629198319E-2
4.804512000E0,1.121991081E-3,6.736489013E-4,-2.615534328E-2,2.618806310E-2
4.814468000E0,1.371224876E-3,7.503479719E-4,-2.706282213E-2,2.710792544E-2
4.824424000E0,1.075549517E-4,-3.133339807E-3,-2.647133172E-2,2.665634613E-2
4.834380000E0,-1.147073694E-3,5.917977542E-4,-2.791562118E-2,2.794544522E-2
4.844336000E0,1.157093327E-3,-1.931814477E-3,-2.767780237E-2,2.776925487E-2
4.854292000E0,1.783960848E-3,-1.643775962E-3,-2.858303115E-2,2.868578368E-2
4.864248000E0,-3.407091135E-4,5.735717714E-4,-2.496059611E-2,2.496950992E-2
4.874204000E0,2.658019308E-3,1.599152572E-3,-2.451724745E-2,2.471270479E-2
4.884160000E0,-2.538810950E-4,1.028969884E-3,-2.491539158E-2,2.493792237E-2
4.894117000E0,1.550903777E-3,3.607459366E-4,-2.698798478E-2,2.703491747E-2
4.904073000E0,2.811086015E-4,1.367740333E-4,-2.976166829E-2,2.976331011E-2
4.914029000E0,-1.276410185E-4,2.423888072E-4,-3.160883859E-2,3.161002565E-2
4.923985000E0,6.273650797E-4,1.278733835E-4,-3.215718269E-2,3.216355604E-2
4.933941000E0,1.146002207E-3,5.735717714E-4,-2.725826204E-2,2.728837032E-2
4.943897000E0,1.034149434E-3,-1.271998510E-3,-2.583160624E-2,2.588357252E-2
4.953853000E0,-7.260642014E-4,-7.786769420E-4,-2.462220564E-2,2.464521288E-2
4.963809000E0,-1.192383817E-3,4.136199132E-4,-2.262483537E-2,2.266000963E-2
4.973765000E0,2.344580367E-3,-1.699754968E-3,-2.795338258E-2,2.810298599E-2
4.983722000E0,9.767134907E-5,1.700568944E-3,-3.030947968E-2,3.035730609E-2
4.993678000E0,4.351767711E-4,-2.513928339E-4,-3.021738678E-2,3.022156583E-2
5.003634000E0,1.079395413E-3,-2.160613425E-3,-2.748950943E-2,2.759540675E-2
5.013590000E0,6.254793261E-4,1.796577126E-3,-2.620359138E-2,2.627255440E-2
5.023546000E0,-4.384535132E-4,-1.793630421E-3,-2.792292833E-2,2.798391106E-2
5.033502000E0,-1.276433701E-3,3.924127668E-5,-2.412176132E-2,2.415554164E-2
5.043458000E0,1.136123901E-3,-8.246488869E-5,-2.570527792E-2,2.573050507E-2
5.053414000E0,9.551122785E-4,1.347819343E-3,-2.801445499E-2,2.806311716E-2
5.063370000E0,-9.144268697E-4,-1.674868166E-3,-2.914363518E-2,2.920604101E-2
5.073326000E0,1.508329064E-3,-1.912633888E-3,-2.497033961E-2,2.508886377E-2
5.083283000E0,-1.998255029E-3,4.240237176E-4,-2.301584743E-2,2.310632061E-2
5.093239000E0,-2.880486427E-4,1.357565634E-3,-2.386507019E-2,2.390538709E-2
5.103195000E0,1.485350309E-3,2.680663019E-4,-2.322937548E-2,2.327835927E-2
5.113151000E0,1.784144551E-3,-4.427945241E-4,-2.577885240E-2,2.584431214E-2
5.123107000E0,-2.513398416E-3,7.234038785E-4,-2.461159229E-2,2.475017091E-2
5.133063000E0,6.354394136E-4,-1.099091955E-3,-2.307315171E-2,2.310805306E-2
5.143019000E0,2.249314915E-3,-5.720527843E-4,-2.517385036E-2,2.528061320E-2
5.152975000E0,1.599987503E-3,-1.553313807E-3,-2.722179703E-2,2.731298185E-2
5.162931000E0,9.839982959E-4,4.677595571E-4,-2.722765692E-2,2.724944683E-2
5.172887000E0,-3.024403704E-4,2.188535407E-3,-2.607346326E-2,2.616689978E-2
5.182844000E0,-1.652875217E-4,1.370145939E-3,-2.339379117E-2,2.343446362E-2
5.192800000E0,1.553412993E-3,-2.627274953E-3,-2.337298729E-2,2.357142762E-2
5.202756000E0,-1.159282867E-3,3.849266097E-3,-2.130850591E-2,2.168440016E-2
5.212712000E0,-6.434464594E-4,8.396711200E-5,-2.414551750E-2,2.415423543E-2
5.222668000E0,7.123688702E-4,-2.295301296E-3,-2.550479397E-2,2.561777494E-2
5.232624000E0,-3.384415759E-3,7.294965908E-4,-2.633484267E-2,2.656144525E-2
5.242580000E0,1.174649457E-3,7.140506059E-4,-2.373959310E-2,2.377935975E-2
5.252536000E0,-8.299947949E-4,1.315944828E-3,-2.052509412E-2,2.058397656E-2
5.262492000E0,2.342044027E-4,-1.144390553E-4,-2.054320276E-2,2.054485647E-2
5.272449000E0,-5.195415579E-4,9.761191905E-6,-2.123970725E-2,2.124606276E-2
5.282405000E0,-6.351227639E-4,-1.361234114E-3,-2.208312787E-2,2.213415632E-2
5.292361000E0,6.928786752E-4,1.266018488E-3,-2.245943435E-2,2.250575648E-2
5.302317000E0,-1.797975972E-3,1.890361309E-4,-2.338142134E-2,2.345121140E-2
5.312273000E0,1.967000309E-3,-3.505777568E-5,-2.463409305E-2,2.471252434E-2
5.322229000E0,-5.460542161E-5,-5.064373836E-4,-2.403222024E-2,2.403761782E-2
5.332185000E0,1.595113194E-3,-2.149582841E-3,-2.198047750E-2,2.214286530E-2
5.342141000E0,-9.806961752E-4,-1.348503865E-3,-2.144890837E-2,2.151362122E-2
5.352097000E0,-3.490364179E-6,-5.707843229E-4,-2.715937048E-2,2.716536788E-2
5.362053000E0,2.337161917E-3,3.646065481E-3,-2.757961676E-2,2.791758191E-2
5.372010000E0,1.557361567E-3,1.658657566E-4,-2.691663802E-2,2.696216402E-2
5.381966000E0,1.298502320E-3,3.217440099E-5,-2.558878437E-2,2.562172962E-2
5.391922000E0,-3.279602388E-4,-7.166340947E-5,-2.084183693E-2,2.084454030E-2
5.401878000E0,1.198563725E-3,-2.320170403E-3,-1.995047927E-2,2.012067019E-2
5.411834000E0,-1.424564747E-3,6.349859759E-4,-1.935743541E-2,1.942016728E-2
5.421790000E0,-2.381704981E-3,3.284774721E-6,-2.338200435E-2,2.350299251E-2
5.431746000E0,-1.799153863E-3,1.432844438E-3,-2.353553846E-2,2.364765461E-2
5.441702000E0,2.805717755E-3,2.817155793E-3,-2.811910585E-2,2.839881217E-2
5.451658000E0,5.075552617E-4,2.522002906E-3,-2.716032602E-2,2.728188814E-2
5.461615000E0,-3.654289758E-4,1.451944932E-3,-2.125822566E-2,2.131088550E-2
5.471571000E0,-1.953465864E-3,5.743904039E-4,-2.047531493E-2,2.057630858E-2
5.481527000E0,-1.384082017E-3,1.446309499E-3,-1.864998601E-2,1.875711792E-2
5.491483000E0,3.820319194E-3,-1.785347238E-3,-2.098726295E-2,2.140671646E-2
5.501439000E0,-1.246212050E-4,4.975143820E-4,-2.397905476E-2,2.398453915E-2
5.511395000E0,-7.137564244E-4,4.748366773E-4,-2.549610659E-2,2.551051488E-2
5.521351000E0,-1.109235920E-3,-2.082064748E-3,-2.594138682E-2,2.604843466E-2
5.531307000E0,-1.071038889E-3,2.688628621E-3,-2.404719964E-2,2.422072787E-2
5.541263000E0,1.180626568E-4,-5.372576416E-4,-2.078456059E-2,2.079183839E-2
5.551220000E0,-1.552890986E-3,1.141440123E-3,-2.107934281E-2,2.116726362E-2
5.561176000E0,1.781637548E-4,1.242639497E-3,-2.150571346E-2,2.154232130E-2
5.571132000E0,6.233511958E-4,9.769964963E-4,-2.423541062E-2,2.426310402E-2
5.581088000E0,2.668925095E-3,1.810831949E-3,-2.810045518E-2,2.828494042E-2
5.591044000E0,6.825008895E-4,-4.388019443E-4,-2.380377054E-2,2.381759532E-2
5.601000000E0,1.691838959E-3,4.815869033E-4,-2.217684314E-2,2.224649672E-2
5.610956000E0,-7.447344251E-4,1.476154663E-3,-2.044345438E-2,2.051020451E-2
5.620912875E0,-5.444302224E-5,2.308925614E-3,-2.640121058E-2,2.650203806E-2
5.630868875E0,-8.875795174E-4,2.354498021E-3,-2.506893873E-2,2.519490320E-2
5.640824875E0,7.076540496E-4,1.324120909E-3,-2.746871114E-2,2.750971032E-2
5.650781875E0,-4.108438734E-4,3.388710320E-5,-2.719397470E-2,2.719709913E-2
5.660737875E0,7.249943446E-4,1.547894441E-3,-2.685708553E-2,2.691142205E-2
5.670693875E0,1.075285720E-3,-2.390954643E-3,-2.324334159E-2,2.339072107E-2
5.680649875E0,3.718549851E-5,-1.734752208E-3,-1.920225844E-2,1.928049473E-2
5.690605875E0,8.979550330E-4,-1.413943246E-3,-2.305358462E-2,2.311435317E-2
5.700561875E0,-1.041924115E-4,1.044686884E-3,-2.692901902E-2,2.694947666E-2
5.710517875E0,-8.860297967E-4,-1.170978881E-3,-2.770759538E-2,2.774647873E-2
5.720473875E0,1.879929216E-3,2.205642872E-3,-2.936195210E-2,2.950463057E-2
5.730429875E0,-1.317965798E-4,-1.033025794E-3,-2.537599206E-2,2.539735194E-2
5.740386875E0,-6.255437620E-5,-3.770897165E-4,-2.546280995E-2,2.546567887E-2
5.750342875E0,-1.876241527E-3,1.048922539E-3,-2.326120436E-2,2.336031141E-2
5.760298875E0,1.935008215E-3,-2.192144282E-3,-2.117355540E-2,2.137449887E-2
5.770254875E0,-1.273966860E-3,7.411586121E-4,-2.277901210E-2,2.282664452E-2
5.780210875E0,-1.321903663E-3,-1.412007026E-3,-2.573059313E-2,2.580319003E-2
5.790166875E0,4.366550129E-4,1.532020979E-3,-2.532167919E-2,2.537174004E-2
5.800122875E0,-2.085358603E-3,-2.682758495E-4,-2.605164982E-2,2.613635688E-2
5.810078875E0,5.857811775E-4,9.963717312E-4,-2.509494126E-2,2.512154400E-2
5.820034875E0,-2.275785431E-3,-1.877179369E-3,-2.357481048E-2,2.375867611E-2
5.829990875E0,1.099568442E-3,1.059496775E-3,-2.399408445E-2,2.404262200E-2
5.839947875E0,1.487324713E-3,-2.979186364E-3,-2.321005240E-2,2.344769112E-2
5.849903875E0,-9.115474531E-4,-7.892791182E-4,-2.625923418E-2,2.628690282E-2
5.859859875E0,1.880244352E-3,2.562575042E-3,-2.640038170E-2,2.659101847E-2
5.869815875E0,-2.013762947E-3,2.371964976E-3,-2.824003994E-2,2.841093654E-2
5.879771875E0,-3.255851334E-4,-1.286952756E-3,-2.268255502E-2,2.272136781E-2
5.889727875E0,-8.851909079E-4,6.219670177E-4,-2.299463376E-2,2.302006924E-2
5.899683875E0,4.405307118E-4,5.796225742E-4,-2.248410508E-2,2.249588876E-2
5.909639875E0,3.242434468E-5,5.539227277E-4,-2.325507998E-2,2.326169871E-2
5.919595875E0,-1.799031626E-3,-1.976879314E-3,-2.123666927E-2,2.140422128E-2
5.929552875E0,-9.183519287E-4,6.303852424E-4,-2.611833811E-2,2.614207990E-2
5.939508875E0,5.221518804E-4,2.029472962E-4,-2.799560130E-2,2.800120573E-2
5.949464875E0,1.576947165E-3,1.109949313E-3,-2.518903464E-2,2.526274364E-2
5.959420875E0,3.337906674E-5,-3.252178431E-6,-2.234264836E-2,2.234267353E-2
5.969376875E0,1.596495626E-3,2.746302634E-4,-2.138657495E-2,2.144783925E-2
5.979332875E0,1.968583092E-7,6.818277761E-4,-2.142998576E-2,2.144082972E-2
5.989288875E0,-1.312333392E-3,1.371548511E-3,-2.336167172E-2,2.343866612E-2
5.999244875E0,4.086013651E-4,-3.248853609E-4,-2.642643452E-2,2.643158994E-2
6.009200875E0,9.686835110E-4,-1.063273288E-3,-2.555905096E-2,2.559949187E-2
6.019157875E0,1.851815032E-4,1.017455012E-3,-2.996764891E-2,2.998548796E-2
6.029113875E0,-2.749424428E-3,-2.381333150E-3,-2.482697368E-2,2.509200479E-2
6.039069875E0,-2.435171511E-3,-6.867637858E-4,-2.055952325E-2,2.071462530E-2
6.049025875E0,-4.837904125E-4,7.526837289E-4,-1.960340887E-2,1.962381781E-2
6.058981875E0,-1.107936259E-5,-1.995432191E-3,-2.275419235E-2,2.284152232E-2
6.068937875E0,-1.340960618E-3,9.042406455E-4,-2.341367677E-2,2.346947137E-2
6.078893875E0,2.943266649E-3,-1.077418216E-3,-2.543075755E-2,2.562317463E-2
6.088849875E0,-3.082749899E-4,5.883816630E-4,-2.484202757E-2,2.485090663E-2
6.098805875E0,5.447354633E-4,-2.259070054E-3,-2.635629848E-2,2.645854500E-2
6.108762875E0,2.309435513E-5,-1.081585884E-3,-2.480783127E-2,2.483140862E-2
6.118718875E0,-1.823275117E-3,2.395703457E-3,-2.171723358E-2,2.192491646E-2
6.128674875E0,3.284173086E-3,-2.415990457E-3,-2.272855118E-2,2.309133694E-2
6.138630875E0,2.497475594E-3,-2.074839547E-3,-2.262868360E-2,2.286043886E-2
6.148586875E0,-8.836637717E-4,-2.444634214E-3,-2.346561849E-2,2.360915817E-2
6.158542875E0,1.666046679E-3,1.281660981E-3,-2.313618734E-2,2.323147716E-2
6.168498875E0,5.531145725E-4,-4.803482443E-5,-2.334217355E-2,2.334877532E-2
6.178454875E0,-3.417076077E-4,1.916503534E-4,-2.197410911E-2,2.197760144E-2
6.188410875E0,2.117830794E-3,-1.018087380E-3,-2.258292027E-2,2.270484523E-2
6.198366875E0,-1.634329092E-4,2.501013689E-3,-2.339385264E-2,2.352773089E-2
6.208323875E0,1.788741094E-3,-8.911443874E-4,-2.290509827E-2,2.299211300E-2
6.218279875E0,9.631611756E-4,-8.344184607E-4,-2.053595148E-2,2.057545229E-2
6.228235875E0,-2.180486219E-3,1.224009320E-4,-2.180150524E-2,2.191061690E-2
6.238191875E0,1.448869589E-3,5.298648030E-4,-2.638586983E-2,2.643093087E-2
6.248147875E0,-1.475611585E-3,2.184882760E-4,-2.292684279E-2,2.297531909E-2
6.258103875E0,1.212197240E-4,-2.345869318E-3,-2.467068098E-2,2.478225771E-2
6.268059875E0,1.638513408E-3,-5.367249250E-4,-2.526614815E-2,2.532490952E-2
6.278015875E0,-7.684514858E-4,1.554388553E-3,-2.307995781E-2,2.314500149E-2
6.287971875E0,9.195249877E-4,1.113860868E-3,-2.227043547E-2,2.231722447E-2
6.297928875E0,1.509681460E-3,-7.133334875E-4,-2.277084254E-2,2.283197873E-2
6.307884875E0,1.168098534E-3,8.725039661E-4,-2.558971383E-2,2.563121478E-2
6.317840875E0,3.901891760E-4,9.379629046E-5,-2.792876773E-2,2.793165072E-2
6.327796875E0,1.423819340E-4,5.976418033E-4,-2.684758790E-2,2.685461644E-2
6.337752875E0,1.728028059E-3,4.700766876E-4,-2.691896074E-2,2.697846364E-2
6.347708875E0,5.233436823E-4,7.549505681E-4,-2.406366915E-2,2.408119623E-2
6.357664875E0,6.937859580E-4,-3.028602339E-3,-2.493878454E-2,2.513158860E-2
6.367620875E0,2.250874415E-3,-4.892228171E-4,-2.024179325E-2,2.037243158E-2
6.377576875E0,1.586952130E-4,7.896265015E-4,-2.179921046E-2,2.181408423E-2
6.387533875E0,2.898673993E-4,2.492405474E-5,-2.256465703E-2,2.256653255E-2
6.397489875E0,1.516519347E-3,1.316556707E-3,-2.391541377E-2,2.399958683E-2
6.407445875E0,7.668688777E-4,9.947745129E-4,-2.317706682E-2,2.321107689E-2
6.417401875E0,1.718682703E-3,2.446463332E-3,-2.396749519E-2,2.415325814E-2
6.427357875E0,9.388233302E-4,-1.140528359E-3,-2.086666226E-2,2.091888592E-2
6.437313875E0,5.132502411E-4,7.836055011E-4,-2.169064432E-2,2.171086167E-2
6.447269875E0,-2.423805883E-3,-1.868019812E-3,-2.327613905E-2,2.347643461E-2
6.457225875E0,-8.842324605E-4,-7.931683213E-4,-2.165161073E-2,2.168417004E-2
6.467181875E0,9.923705366E-4,1.671349630E-3,-2.400998026E-2,2.408853173E-2
6.477138875E0,1.442178385E-3,9.400453418E-4,-2.103522792E-2,2.110555324E-2
6.487094875E0,1.987609081E-3,-3.157649189E-5,-2.070613950E-2,2.080134131E-2
6.497050875E0,7.236729143E-4,-1.165017486E-3,-2.103104442E-2,2.107571583E-2
6.507006875E0,-1.834033406E-3,-8.802497759E-4,-2.046731859E-2,2.056817077E-2
6.516962875E0,-9.732997278E-4,-6.399024278E-5,-1.983482018E-2,1.985878895E-2
6.526918875E0,-1.421949361E-3,-3.678994253E-4,-2.043619007E-2,2.048890320E-2
6.536874875E0,1.460123574E-3,-1.200136729E-3,-2.255260572E-2,2.263166617E-2
6.546830875E0,8.414001204E-4,1.645684242E-4,-2.228990942E-2,2.230639144E-2
6.556786875E0,1.346868114E-3,1.714928076E-4,-2.021797001E-2,2.026350846E-2
6.566742875E0,-1.086451579E-3,1.283809543E-3,-1.771881990E-2,1.779845844E-2
6.576699875E0,-1.815625001E-3,1.213401556E-4,-2.223900147E-2,2.231332346E-2
6.586655875E0,1.608530176E-3,-1.366604120E-4,-2.299720049E-2,2.305379092E-2
6.596611875E0,6.023879396E-4,2.346737310E-3,-1.978809386E-2,1.993586482E-2
6.606567875E0,-2.020661486E-4,8.664065972E-4,-2.125813812E-2,2.127674617E-2
6.616523250E0,2.011364559E-4,-1.680374146E-3,-1.895983145E-2,1.903521268E-2
6.626479250E0,-7.827466470E-4,-7.151896134E-4,-1.626913995E-2,1.630365306E-2
6.636435250E0,4.055558238E-4,4.621939734E-4,-1.551359892E-2,1.552578018E-2
6.646391250E0,-2.769408748E-4,1.011267304E-3,-2.264457569E-2,2.266883689E-2
6.656347250E0,-3.216005396E-3,3.974083811E-4,-2.330983430E-2,2.353399667E-2
6.666304250E0,9.085524362E-4,3.528650850E-4,-2.298475429E-2,2.300541048E-2
6.676260250E0,6.739279488E-4,-1.781392843E-3,-2.144758031E-2,2.153198180E-2
6.686216250E0,2.698974218E-3,-5.084844306E-4,-1.968402043E-2,1.987469946E-2
6.696172250E0,-2.333334647E-3,1.435888931E-3,-1.897988096E-2,1.917660316E-2
6.706128250E0,1.578926924E-3,-3.452105448E-4,-1.974596828E-2,1.981200252E-2
6.716084250E0,-1.851490932E-3,4.960820079E-4,-2.193988115E-2,2.202345342E-2
6.726040250E0,1.527063781E-3,2.727145329E-3,-2.612417564E-2,2.631048837E-2
6.735996250E0,-1.920131850E-3,-2.430599183E-3,-2.692711726E-2,2.710469263E-2
6.745952250E0,-4.750039661E-4,-7.686670870E-5,-2.063426003E-2,2.063986977E-2
6.755909250E0,-1.258772216E-3,7.372619584E-4,-1.567118987E-2,1.573894071E-2
6.765865250E0,-1.018442446E-3,4.092697054E-4,-1.495669782E-2,1.499691756E-2
6.775821250E0,2.489558537E-4,-5.531962961E-4,-1.949392259E-2,1.950335928E-2
6.785777250E0,4.279027344E-4,-3.964453936E-4,-1.926822960E-2,1.927705739E-2
6.795733250E0,1.181770931E-4,-8.574379608E-4,-2.464621514E-2,2.466140885E-2
6.805689250E0,9.346582228E-4,-1.999745145E-4,-2.710796520E-2,2.712481066E-2
6.815645250E0,-1.923915697E-4,1.604583114E-3,-2.475026995E-2,2.480297490E-2
6.825601250E0,-8.120152052E-4,-1.586517319E-4,-2.043933794E-2,2.045607671E-2
6.835557250E0,4.516547488E-4,3.625284880E-4,-1.796739176E-2,1.797672344E-2
6.845514250E0,-7.205393631E-4,-1.115183346E-3,-1.962917298E-2,1.967402457E-2
6.855470250E0,-1.101637841E-3,-1.188420691E-3,-2.216503397E-2,2.222419133E-2
6.865426250E0,-1.040006755E-4,3.811191767E-3,-2.535174042E-2,2.563682393E-2
6.875382250E0,2.900311258E-3,-4.890142009E-4,-3.018431365E-2,3.032727701E-2
6.885338250E0,-8.451160393E-4,2.017928287E-3,-2.147628367E-2,2.158742727E-2
6.895294250E0,2.539495239E-3,4.232274368E-4,-1.673186198E-2,1.692877322E-2
6.905250250E0,-1.737456303E-3,2.490920946E-3,-1.490699500E-2,1.521321601E-2
6.915206250E0,-2.886610338E-3,-2.461759374E-3,-1.593550667E-2,1.638087761E-2
6.925162250E0,8.641887689E-5,-1.240687445E-3,-1.737365499E-2,1.741811302E-2
6.935119250E0,4.563319380E-4,2.052843571E-3,-2.547872066E-2,2.556535962E-2
6.945075250E0,-2.921213163E-4,1.280800439E-3,-2.519470826E-2,2.522893396E-2
6.955031250E0,1.427481882E-3,-4.108389840E-4,-2.355899662E-2,2.360577927E-2
6.964987250E0,-7.297289558E-4,-1.255169511E-3,-1.862600073E-2,1.868250139E-2
6.974943250E0,5.541810533E-4,1.464983448E-3,-1.732584462E-2,1.739649921E-2
6.984899250E0,1.423770678E-3,-1.236435957E-3,-1.581804827E-2,1.593005172E-2
6.994855250E0,-6.857191911E-4,-1.690406352E-4,-1.985912770E-2,1.987168183E-2
7.004811250E0,-2.175525064E-3,-4.374384880E-4,-2.158778906E-2,2.170154138E-2
7.014767250E0,5.022833939E-4,-1.363685355E-3,-2.545735985E-2,2.549880579E-2
7.024724250E0,1.748051378E-3,-7.605552673E-5,-2.126588300E-2,2.133774233E-2
7.034680250E0,-1.746548573E-3,7.018540055E-4,-2.193460241E-2,2.201521778E-2
7.044636250E0,5.110142520E-4,-1.186835580E-3,-1.960957050E-2,1.965209835E-2
7.054592250E0,-4.631699994E-4,1.209743321E-3,-1.877120510E-2,1.881584827E-2
7.064548250E0,-4.069932038E-5,-9.529944509E-4,-2.063358948E-2,2.065562561E-2
7.074504250E0,-1.301814918E-4,2.691308036E-4,-2.018990740E-2,2.019212073E-2
7.084460250E0,2.752152737E-3,2.725014463E-3,-2.267906442E-2,2.300739037E-2
7.094416250E0,-6.526989164E-4,-2.558963373E-3,-2.273578942E-2,2.288865286E-2
7.104372250E0,-1.103868010E-3,8.203275502E-5,-2.017109469E-2,2.020144338E-2
7.114329250E0,-1.000803662E-3,-6.372872740E-4,-1.869596913E-2,1.873357961E-2
7.124285250E0,7.973260945E-4,1.566448249E-3,-1.527603343E-2,1.537682303E-2
7.134241250E0,-1.181935193E-3,-1.230612397E-4,-1.727446914E-2,1.731529378E-2
7.144197250E0,-1.413965831E-3,8.227070794E-4,-1.937692985E-2,1.944586220E-2
7.154153250E0,2.348015318E-3,9.606592357E-4,-1.940569282E-2,1.957081899E-2
7.164109250E0,2.970942296E-5,1.756428741E-3,-2.228667215E-2,2.235579746E-2
7.174065250E0,2.318433835E-4,-1.070517115E-3,-2.198600397E-2,2.201327165E-2
7.184021250E0,-4.423269420E-4,-1.150770113E-3,-1.782910898E-2,1.787168297E-2
7.193977250E0,-2.239694353E-3,9.113159031E-4,-1.908399165E-2,1.923656582E-2
7.203934250E0,2.138723619E-3,-2.090233378E-3,-2.176069096E-2,2.196521990E-2
7.213890250E0,3.059362061E-4,-1.849483699E-3,-2.073031291E-2,2.081489996E-2
7.223846250E0,5.681026960E-5,1.709132455E-3,-2.080126852E-2,2.087144301E-2
7.233802250E0,2.841677750E-3,2.249525860E-4,-2.128676325E-2,2.147677876E-2
7.243758250E0,7.815622957E-4,2.435668372E-3,-1.936358958E-2,1.953181819E-2
7.253714250E0,-5.433603656E-4,1.301161945E-3,-1.919847354E-2,1.925018569E-2
7.263670250E0,-2.418825403E-3,-2.305973321E-4,-2.026544139E-2,2.041058564E-2
7.273626250E0,-1.048629172E-3,2.033622935E-3,-1.974452659E-2,1.987665907E-2
7.283582250E0,3.079233458E-3,-2.611149102E-4,-2.326783538E-2,2.347215420E-2
7.293539250E0,1.670154976E-3,-2.267274074E-3,-2.305664867E-2,2.322797876E-2
7.303495250E0,2.361541265E-4,-1.454278827E-4,-2.146072313E-2,2.146251512E-2
7.313451250E0,-7.066049147E-4,-2.996250987E-4,-1.758316159E-2,1.759990447E-2
7.323407250E0,-2.971179783E-4,6.011258811E-4,-2.024383843E-2,2.025494077E-2
7.333363250E0,-1.297667623E-3,-4.071472213E-4,-1.563603804E-2,1.569507552E-2
7.343319250E0,2.888811287E-3,3.126356751E-4,-2.048129961E-2,2.068638696E-2
7.353275250E0,2.318362240E-3,9.422069415E-4,-2.157771960E-2,2.172235117E-2
7.363231250E0,-2.490912098E-3,-7.593147457E-4,-2.399395406E-2,2.413485102E-2
7.373187250E0,-1.776903518E-4,-4.019187763E-4,-2.167194337E-2,2.167639827E-2
7.383144250E0,2.306592069E-4,1.481073909E-3,-2.054629847E-2,2.060090203E-2
7.393100250E0,-6.255470798E-4,9.998399764E-4,-2.250025794E-2,2.253114725E-2
7.403056250E0,-3.339374671E-4,-1.444295980E-3,-2.114486322E-2,2.119676262E-2
7.413012250E0,-7.336779963E-4,2.527276054E-3,-2.038772777E-2,2.055686871E-2
7.422968250E0,9.587862878E-4,1.086643897E-3,-2.070216835E-2,2.075282728E-2
7.432924250E0,1.902610529E-3,-3.887470812E-4,-2.302391455E-2,2.310566364E-2
7.442880250E0,9.737790679E-4,-2.595884725E-4,-1.869159192E-2,1.871874035E-2
7.452836250E0,2.603633795E-3,-3.362875432E-4,-1.714242995E-2,1.734228655E-2
7.462792250E0,6.327381125E-4,-9.277462959E-5,-1.752521098E-2,1.753687499E-2
7.472749250E0,-7.877920289E-4,6.153602153E-4,-2.131435648E-2,2.133778518E-2
7.482705250E0,-9.058218566E-4,5.176300183E-4,-2.082245052E-2,2.084857069E-2
7.492661250E0,2.864415292E-3,-9.737405926E-4,-2.145202085E-2,2.166430808E-2
7.502617250E0,6.017182022E-4,5.613109097E-4,-1.946405321E-2,1.948143994E-2
7.512573250E0,-4.797914880E-4,5.503920838E-4,-1.442002505E-2,1.443849901E-2
7.522529250E0,3.566014930E-4,3.821672872E-4,-1.747531071E-2,1.748312618E-2
7.532485250E0,1.509750262E-3,-4.239715636E-4,-1.648567989E-2,1.656009479E-2
7.542441250E0,-1.031696564E-3,1.245690510E-3,-1.900473237E-2,1.907343690E-2
7.552397250E0,4.982895916E-4,-1.471532509E-3,-2.043511719E-2,2.049408975E-2
7.562354250E0,1.578357536E-3,2.174731344E-4,-1.970047131E-2,1.976479388E-2
7.572310250E0,-2.837247448E-4,-9.167669341E-4,-1.684023812E-2,1.686756003E-2
7.582266250E0,1.204781001E-4,2.163681202E-3,-1.410507411E-2,1.427056926E-2
7.592222250E0,-2.366517438E-4,-1.308281906E-3,-1.510562375E-2,1.516401908E-2
7.602178250E0,1.085414900E-3,-1.263422891E-4,-2.159660682E-2,2.162423442E-2
7.612134250E0,1.882765326E-3,-1.738619991E-3,-2.128075436E-2,2.143450748E-2
7.622090667E0,-5.587643245E-4,-1.728357747E-4,-2.314271033E-2,2.315010002E-2
7.632046667E0,1.651659375E-3,1.040500589E-3,-2.293045446E-2,2.301339527E-2
7.642002667E0,-1.421822933E-3,5.914522335E-4,-1.887546107E-2,1.893817380E-2
7.651959667E0,2.923390595E-3,-1.097790897E-3,-1.879796013E-2,1.905556776E-2
7.661915667E0,3.454950056E-4,-6.333347410E-4,-1.712258533E-2,1.713777722E-2
7.671871667E0,-7.546568522E-4,-8.666273206E-4,-1.901742443E-2,1.905211227E-2
7.681827667E0,1.130500925E-3,-2.125010826E-3,-2.167700604E-2,2.181023370E-2
7.691783667E0,1.493924065E-4,9.362930432E-4,-1.961864904E-2,1.964154660E-2
7.701739667E0,2.218949609E-3,-2.238653600E-3,-2.214603499E-2,2.236922379E-2
7.711695667E0,1.155815786E-3,-1.260740682E-3,-1.964931935E-2,1.972361854E-2
7.721651667E0,-2.092271810E-3,-2.691252157E-4,-1.648832113E-2,1.662271829E-2
7.731607667E0,-8.448472363E-4,3.244648688E-3,-1.370904595E-2,1.411309508E-2
7.741564667E0,-7.341046003E-4,1.494204625E-3,-1.650472730E-2,1.658847734E-2
7.751520667E0,-6.094687269E-4,1.812661067E-4,-1.579818875E-2,1.581097964E-2
7.761476667E0,-7.267144392E-4,-2.254286781E-3,-1.996443421E-2,2.010444120E-2
7.771432667E0,1.809413894E-3,-3.960262984E-5,-2.072503045E-2,2.080390430E-2
7.781388667E0,6.259158254E-4,4.842076451E-4,-1.963843033E-2,1.965436779E-2
7.791344667E0,4.259124398E-4,9.406739846E-4,-1.754518598E-2,1.757554608E-2
7.801300667E0,3.053900436E-4,-1.210734248E-3,-1.275794208E-2,1.281890115E-2
7.811256667E0,-9.428335470E-4,-8.911555633E-4,-1.400110498E-2,1.406108225E-2
7.821213667E0,-1.645801705E-3,1.099043526E-3,-1.713164151E-2,1.724557046E-2
7.831169667E0,1.388071454E-3,-4.908638075E-4,-1.860649884E-2,1.866465881E-2
7.841125667E0,-5.215624114E-4,-5.141114816E-4,-2.146847919E-2,2.148096684E-2
7.851081667E0,-3.504835069E-3,-2.169329673E-5,-2.264666185E-2,2.291627440E-2
7.861037667E0,7.970811566E-4,-1.123421825E-3,-2.113977075E-2,2.118460106E-2
7.870993667E0,7.539379294E-4,7.559712976E-4,-1.787633449E-2,1.790818946E-2
7.880949667E0,1.513144467E-3,2.419441007E-3,-1.400916651E-2,1.429685445E-2
7.890905667E0,-4.245715681E-4,3.331201151E-4,-1.350875944E-2,1.351953444E-2
7.900861667E0,4.158070078E-5,-2.444740385E-3,-1.318224147E-2,1.340708673E-2
7.910818667E0,9.191443678E-5,2.309372649E-4,-1.720947400E-2,1.721126885E-2
7.920774667E0,1.521968981E-3,-1.810966060E-4,-1.925948262E-2,1.932037413E-2
7.930730667E0,1.054317807E-3,-7.371641695E-4,-2.177137509E-2,2.180935053E-2
7.940686667E0,2.313859295E-4,-1.048916019E-3,-1.935544983E-2,1.938523155E-2
7.950642667E0,-8.890059544E-4,1.176953316E-3,-1.714502648E-2,1.720835505E-2
7.960598667E0,-4.979781806E-6,5.649896339E-4,-1.546039432E-2,1.547071526E-2
7.970554667E0,6.674684118E-4,-9.034769610E-4,-1.306301728E-2,1.311122439E-2
7.980510667E0,-1.231892966E-3,2.493483014E-3,-2.082090452E-2,2.100583450E-2
7.990466667E0,-2.433274640E-4,-6.541069597E-4,-2.169415727E-2,2.170538007E-2
8.000423667E0,3.795863013E-4,-8.678250015E-4,-2.194135264E-2,2.196178867E-2
8.010379667E0,1.454970799E-3,-1.315502450E-3,-1.849095896E-2,1.859470489E-2
8.020335667E0,3.622915247E-4,-1.241941005E-3,-1.765032485E-2,1.769767329E-2
8.030291667E0,1.700112480E-4,-8.517876267E-4,-1.557039842E-2,1.559460653E-2
8.040247667E0,-2.417178359E-3,-4.761861637E-4,-1.691386476E-2,1.709234699E-2
8.050203667E0,-1.754317316E-3,-5.611404777E-4,-1.790642366E-2,1.800090320E-2
8.060159667E0,-4.687731853E-4,-2.270870842E-3,-1.903917268E-2,1.917985138E-2
8.070115667E0,6.910334923E-4,-1.617597416E-3,-1.941521093E-2,1.949473170E-2
8.080071667E0,2.548340475E-3,1.145954244E-3,-1.876403764E-2,1.897093458E-2
8.090028667E0,1.943723764E-4,-6.370320916E-4,-1.991958171E-2,1.993071313E-2
8.099984667E0,-3.347883467E-4,-1.039235853E-3,-1.672676578E-2,1.676236224E-2
8.109940667E0,2.812008024E-4,1.890147105E-4,-1.720666513E-2,1.721000073E-2
8.119896667E0,-8.315083105E-4,-9.508151561E-5,-1.539716497E-2,1.541989415E-2
8.129852667E0,2.610361204E-3,-4.563066177E-3,-1.803955436E-2,1.878991964E-2
8.139808667E0,6.893626414E-5,1.109875739E-4,-1.887592301E-2,1.887637518E-2
8.149764667E0,2.691883594E-3,1.198888756E-3,-1.966208592E-2,1.988167987E-2
8.159720667E0,8.005945710E-4,-1.222570427E-3,-1.875339448E-2,1.881024813E-2
8.169677667E0,-1.786497305E-4,-1.055324450E-3,-1.522763446E-2,1.526520477E-2
8.179633667E0,-6.733863265E-4,6.053308025E-4,-1.663846523E-2,1.666308494E-2
8.189589667E0,3.814917873E-4,4.865536466E-4,-1.890800893E-2,1.891811492E-2
8.199545667E0,2.312185010E-3,-9.040208533E-4,-1.985937357E-2,2.001394943E-2
8.209501667E0,-7.621680852E-4,-2.403381281E-3,-2.039653435E-2,2.055178229E-2
8.219457667E0,2.686754568E-3,5.318596959E-4,-2.132139727E-2,2.149659291E-2
8.229413667E0,-8.852564497E-5,-1.570705324E-3,-1.979966834E-2,1.986206984E-2
8.239369667E0,1.732644858E-3,-8.881306276E-4,-1.702271402E-2,1.713369857E-2
8.249325667E0,1.486302353E-3,-1.554945484E-4,-1.574386284E-2,1.581462900E-2
8.259282667E0,3.439987777E-4,3.372300416E-4,-1.748854667E-2,1.749518002E-2
8.269238667E0,-1.307693776E-3,-1.818865538E-3,-1.843610033E-2,1.857170241E-2
8.279194667E0,2.261218033E-4,-1.411885023E-4,-1.800936088E-2,1.801133378E-2
8.289150667E0,-1.271906309E-3,1.532875001E-3,-1.898887381E-2,1.909305581E-2
8.299106667E0,3.859947901E-4,1.042625867E-3,-1.634233817E-2,1.638011226E-2
8.309062667E0,-2.002061810E-3,-4.881592467E-4,-1.417638734E-2,1.432537989E-2
8.319018667E0,-6.862697774E-4,3.822892904E-4,-1.511128247E-2,1.513168758E-2
8.328974667E0,1.523621380E-3,1.916065812E-4,-1.651982963E-2,1.659104898E-2
8.338930667E0,-1.583207166E-3,-1.336419955E-3,-1.718788967E-2,1.731231106E-2
8.348887667E0,-2.328626113E-3,1.706629992E-4,-1.863212138E-2,1.877784793E-2
8.358843667E0,-6.816527457E-4,6.764475256E-4,-1.919281483E-2,1.921682525E-2
8.368799667E0,-6.379768602E-4,-2.322224900E-4,-1.909720898E-2,1.910927347E-2
8.378755667E0,-1.416074578E-3,6.462782621E-4,-1.511171833E-2,1.519167448E-2
8.388711667E0,-6.208546110E-4,3.232359886E-4,-2.024522796E-2,2.025732453E-2
8.398667667E0,-6.453949027E-5,-3.478983417E-4,-1.927072182E-2,1.927396996E-2
8.408623667E0,4.105684347E-4,1.696343534E-3,-2.049550787E-2,2.056968620E-2
8.418579667E0,2.615988022E-3,-2.219378948E-4,-1.882405579E-2,1.900625492E-2
8.428535667E0,1.232742216E-3,-3.103539348E-4,-1.545648649E-2,1.550867330E-2
8.438492667E0,-8.960166597E-4,-9.648017585E-4,-1.653797925E-2,1.659031181E-2
8.448448667E0,1.923205564E-3,-2.832742408E-3,-1.571372896E-2,1.608242603E-2
8.458404667E0,-9.352151537E-4,-1.327798702E-3,-1.620209962E-2,1.628329539E-2
8.468360667E0,6.810573395E-4,-2.083337866E-3,-1.854088902E-2,1.866999469E-2
8.478316667E0,-8.862687391E-4,-1.363005489E-3,-1.845366135E-2,1.852514166E-2
8.488272667E0,-3.008008935E-3,1.266066916E-3,-1.443122327E-2,1.479564964E-2
8.498228667E0,2.509001177E-3,7.854560390E-4,-1.395526156E-2,1.420075186E-2
8.508184667E0,1.563648111E-4,7.918570191E-5,-1.553744823E-2,1.553843679E-2
8.518141667E0,1.348614460E-4,4.878984764E-4,-1.920041442E-2,1.920708584E-2
8.528097667E0,-6.273352774E-4,1.122795977E-3,-2.212882414E-2,2.216616968E-2
8.538053667E0,2.582470654E-3,1.169365831E-3,-2.427875251E-2,2.444369846E-2
8.548009667E0,-3.768340102E-4,-1.168889925E-3,-1.974365488E-2,1.978181527E-2
8.557965667E0,2.170589869E-4,-1.485357992E-3,-1.605643332E-2,1.612645199E-2
8.567921667E0,7.065479876E-4,2.867085859E-4,-1.689293236E-2,1.691013233E-2
8.577877667E0,5.211103708E-4,8.641462773E-4,-1.717610285E-2,1.720572038E-2
8.587833667E0,-1.347363461E-3,-2.581104636E-4,-1.772311702E-2,1.777613249E-2
8.597789667E0,3.030499211E-4,2.892324701E-4,-1.701664925E-2,1.702180502E-2
8.607746667E0,3.103630152E-3,1.432914287E-4,-1.741931960E-2,1.769422923E-2
8.617702125E0,1.260818448E-3,9.094476700E-4,-1.959370822E-2,1.965528326E-2
8.627658125E0,3.854373936E-4,9.888103232E-4,-2.024751529E-2,2.027530970E-2
8.637614125E0,1.176449354E-3,1.499829814E-4,-1.907785237E-2,1.911467967E-2
8.647570125E0,3.122535418E-4,1.737493090E-3,-1.688553765E-2,1.697756656E-2
8.657526125E0,3.541443730E-4,-1.373104751E-4,-1.597545296E-2,1.597996776E-2
8.667482125E0,8.883745177E-4,6.054453552E-4,-1.727613807E-2,1.730955574E-2
8.677438125E0,-5.230060779E-4,-1.904826611E-3,-1.683771983E-2,1.695319170E-2
8.687395125E0,-2.326765098E-3,1.565804705E-3,-1.788434014E-2,1.810290591E-2
8.697351125E0,1.116166590E-3,1.428657211E-3,-1.861401647E-2,1.870209877E-2
8.707307125E0,2.647484187E-3,3.133248538E-4,-1.704754680E-2,1.725474419E-2
8.717263125E0,-2.108607208E-3,1.606962644E-3,-1.262682304E-2,1.290213987E-2
8.727219125E0,-7.474655868E-4,-1.074308529E-3,-1.313761622E-2,1.320264381E-2
8.737175125E0,-5.349768326E-4,2.491790801E-4,-1.415812969E-2,1.417042437E-2
8.747131125E0,9.856880642E-4,-5.364529788E-4,-1.646416262E-2,1.650236388E-2
8.757087125E0,4.767568607E-4,1.381999813E-3,-1.707525551E-2,1.713772364E-2
8.767043125E0,-8.969015907E-4,-2.409542911E-3,-1.623476297E-2,1.643708788E-2
8.777000125E0,2.567767864E-3,-2.463833429E-3,-1.644825190E-2,1.682881153E-2
8.786956125E0,-7.694392698E-4,-3.695544787E-3,-1.878277585E-2,1.915833387E-2
8.796912125E0,1.939603593E-3,1.458658837E-3,-1.827094331E-2,1.843141658E-2
8.806868125E0,-5.786814145E-4,1.020834781E-3,-1.825736091E-2,1.829503220E-2
8.816824125E0,3.719489556E-3,-2.165756188E-3,-1.677750796E-2,1.732079316E-2
8.826780125E0,-3.137884196E-3,-1.985194162E-3,-1.470903307E-2,1.517046364E-2
8.836736125E0,1.394172432E-4,-4.154108465E-4,-1.472309232E-2,1.472961136E-2
8.846692125E0,1.113601495E-3,2.567863092E-3,-1.507010311E-2,1.532781905E-2
8.856649125E0,3.875736729E-4,-9.613009170E-4,-1.526760310E-2,1.530274541E-2
8.866605125E0,-3.160822205E-3,-1.917376183E-3,-1.616748422E-2,1.658477237E-2
8.876561125E0,1.016514143E-4,2.270581201E-3,-1.405191049E-2,1.423453759E-2
8.886517125E0,1.922720927E-3,-1.662109047E-3,-1.615394279E-2,1.635265514E-2
8.896473125E0,1.568830688E-3,-4.077963531E-4,-1.637067273E-2,1.645072805E-2
8.906429125E0,-1.373962266E-3,-3.308309242E-4,-1.541459933E-2,1.547924720E-2
8.916385125E0,2.600130625E-3,1.468430273E-3,-1.805668324E-2,1.830193368E-2
8.926341125E0,9.138169698E-4,3.001019359E-4,-1.385315135E-2,1.388650154E-2
8.936297125E0,5.103956792E-4,-1.030284911E-4,-1.436498761E-2,1.437442130E-2
8.946254125E0,2.058491111E-3,4.786057398E-4,-1.770379394E-2,1.782949155E-2
8.956210125E0,-3.628082923E-4,-2.056204714E-3,-1.790202782E-2,1.802337947E-2
8.966166125E0,-6.797244423E-4,4.769945517E-4,-1.379436627E-2,1.381933754E-2
8.976122125E0,-2.938838443E-4,1.247684471E-3,-1.286018267E-2,1.292390741E-2
8.986078125E0,1.790838665E-3,-3.488808870E-4,-1.436620206E-2,1.448159461E-2
8.996034125E0,8.186914492E-4,3.263382241E-4,-1.525540277E-2,1.528083984E-2
9.005990125E0,-2.074833261E-3,-2.473975532E-3,-1.491984352E-2,1.526522908E-2
9.015946125E0,-4.441334866E-3,1.366312616E-3,-1.688046753E-2,1.750835371E-2
9.025903125E0,-8.380776853E-4,3.286983818E-3,-1.855026931E-2,1.885786648E-2
9.035859125E0,1.426427974E-3,-1.459971070E-3,-2.035649493E-2,2.045857029E-2
9.045815125E0,-2.518960973E-4,1.386947930E-3,-1.614151150E-2,1.620294633E-2
9.055771125E0,1.126790419E-3,-1.360510476E-3,-1.242374629E-2,1.254870978E-2
9.065727125E0,-2.574204467E-3,-9.794123471E-4,-1.134862751E-2,1.167806163E-2
9.075683125E0,1.921115327E-4,-4.331385717E-4,-1.340942830E-2,1.341779725E-2
9.085639125E0,1.119503868E-4,2.700869925E-3,-1.381422952E-2,1.407622707E-2
9.095595125E0,1.305721467E-3,1.342127100E-3,-1.363299415E-2,1.376098627E-2
9.105551125E0,-2.133165253E-5,1.689669676E-3,-1.842056215E-2,1.849790660E-2
9.115508125E0,8.586866315E-4,-2.160493284E-3,-1.725064591E-2,1.740660387E-2
9.125464125E0,9.308582521E-4,-9.554130957E-4,-1.384605840E-2,1.391016335E-2
9.135420125E0,2.659979742E-3,1.270975918E-3,-1.553375274E-2,1.581101977E-2
9.145376125E0,-7.363494951E-4,1.549010165E-3,-1.155978441E-2,1.168632785E-2
9.155332125E0,3.577012103E-4,-1.217548735E-3,-1.203575730E-2,1.210247202E-2
9.165288125E0,1.102853683E-3,-2.388376743E-4,-1.734529808E-2,1.738196465E-2
9.175244125E0,1.454922603E-3,3.623794764E-4,-1.721055806E-2,1.727574679E-2
9.185200125E0,-1.874294947E-3,1.440160908E-3,-1.557617635E-2,1.575450141E-2
9.195157125E0,1.719291438E-3,3.566015512E-4,-1.320063695E-2,1.331690443E-2
9.205113125E0,-2.030172851E-3,2.278071828E-3,-9.680204093E-3,1.014975686E-2
9.215069125E0,-6.700363010E-4,3.253677860E-4,-1.185416058E-2,1.187753913E-2
9.225025125E0,2.535480307E-4,-3.406889737E-4,-1.483982801E-2,1.484590351E-2
9.234981125E0,7.737096166E-5,-8.376110345E-4,-1.792341098E-2,1.794313907E-2
9.244937125E0,-9.836324025E-4,1.299574971E-3,-2.057618275E-2,2.064063285E-2
9.254893125E0,-2.128487220E-3,3.006581217E-3,-1.710146666E-2,1.749371745E-2
9.264849125E0,5.727569223E-4,-1.661141403E-3,-1.591369510E-2,1.601040702E-2
9.274805125E0,1.508640591E-3,1.298496500E-4,-9.642381221E-3,9.760551879E-3
9.284762125E0,-2.660005353E-3,-4.398003221E-4,-9.708430618E-3,1.007584626E-2
9.294718125E0,7.817097940E-4,-1.436583698E-4,-1.161143929E-2,1.163860946E-2
9.304674125E0,1.545504434E-3,9.964406490E-4,-1.432866231E-2,1.444617740E-2
9.314630125E0,1.706393668E-3,-2.771196887E-4,-1.690374315E-2,1.699191299E-2
9.324586125E0,-1.764611807E-4,-9.248005226E-4,-1.734050363E-2,1.736604333E-2
9.334542125E0,2.154388465E-3,-9.524030611E-4,-1.629059017E-2,1.646000575E-2
9.344498125E0,-4.688252811E-4,1.957367174E-3,-1.199278235E-2,1.216050624E-2
9.354454125E0,-1.283861231E-3,1.203182153E-3,-1.303556189E-2,1.315377591E-2
9.364411125E0,-8.399123908E-4,-1.309776679E-3,-1.539884880E-2,1.547725790E-2
9.374367125E0,1.429901924E-3,9.285565466E-5,-1.710958034E-2,1.716947818E-2
9.384323125E0,-8.943147259E-5,1.260918565E-3,-1.588426158E-2,1.593448084E-2
9.394279125E0,-1.581049990E-3,1.466386952E-3,-1.346433908E-2,1.363592448E-2
9.404235125E0,1.440572552E-3,2.298811451E-4,-1.429737732E-2,1.437160718E-2
9.414191125E0,-6.557480665E-4,1.480875537E-3,-1.236224174E-2,1.246787948E-2
9.424147125E0,9.819283150E-5,-1.910926774E-3,-1.284507290E-2,1.298680795E-2
9.434103125E0,-9.062708705E-4,5.176095292E-4,-1.515655965E-2,1.519245032E-2
9.444060125E0,2.128667431E-3,4.832549021E-4,-1.586549357E-2,1.601495072E-2
9.454016125E0,1.858742675E-3,9.076576680E-5,-1.707071066E-2,1.717184688E-2
9.463972125E0,3.044381971E-3,-4.360070452E-4,-1.276065037E-2,1.312602611E-2
9.473928125E0,-4.528167192E-4,-1.041270792E-3,-1.168330386E-2,1.173835069E-2
9.483884125E0,-7.066159742E-4,-1.327827573E-3,-1.161938906E-2,1.171634048E-2
9.493840125E0,1.485395711E-3,5.256133154E-4,-1.448263600E-2,1.456809581E-2
9.503796125E0,1.055295230E-3,-2.377498895E-3,-1.573352516E-2,1.594709889E-2
9.513752125E0,5.376571207E-4,-4.944587126E-4,-1.641030610E-2,1.642655505E-2
9.523708125E0,-1.029879553E-3,-1.418842003E-3,-1.537167281E-2,1.547133121E-2
9.533665125E0,-2.691870322E-4,-8.272491395E-4,-1.494518295E-2,1.497048083E-2
9.543621125E0,-6.806454621E-4,-2.855778672E-3,-1.301412657E-2,1.334114839E-2
9.553577125E0,1.600293908E-3,-1.504881307E-3,-1.221250370E-2,1.240849930E-2
9.563533125E0,9.004151216E-4,-5.501387641E-4,-1.474064216E-2,1.477836024E-2
9.573489125E0,-2.307451796E-3,-5.039498210E-4,-1.601323858E-2,1.618647920E-2
9.583445125E0,2.182637574E-3,-2.189731225E-3,-1.723802835E-2,1.751309370E-2
9.593401125E0,-1.290198998E-4,1.523507759E-3,-1.518969238E-2,1.526644938E-2
9.603357125E0,-6.890827208E-4,-1.071476378E-3,-9.585335851E-3,9.669620468E-3
9.613314125E0,1.378548564E-3,2.694821917E-3,-1.125105843E-2,1.165112772E-2
9.623270250E0,9.654922760E-4,-1.780353487E-3,-8.732773364E-3,8.964550434E-3
9.633226250E0,-1.370717073E-4,1.241105609E-3,-1.319633052E-2,1.325527332E-2
9.643182250E0,2.470429288E-3,-2.175075933E-4,-1.623393223E-2,1.642226799E-2
9.653138250E0,1.082558301E-3,-1.587685198E-3,-1.872312278E-2,1.882147718E-2
9.663094250E0,2.109056804E-4,-3.469185904E-4,-1.707329229E-2,1.707811884E-2
9.673050250E0,-3.842852311E-5,-3.599299118E-3,-1.341567934E-2,1.389017217E-2
9.683006250E0,1.681440976E-3,-6.429245695E-4,-8.710671216E-3,8.894739389E-3
9.692963250E0,-1.527739805E-4,-9.046187624E-4,-9.705573320E-3,9.748837288E-3
9.702919250E0,7.361892494E-4,-1.374667510E-3,-1.614189893E-2,1.621704617E-2
9.712875250E0,-1.370631158E-3,-9.234221652E-4,-1.707120240E-2,1.715101424E-2
9.722831250E0,-1.072889660E-3,6.771376356E-4,-1.630900800E-2,1.635828077E-2
9.732787250E0,2.275989391E-3,-1.485487446E-4,-1.428806037E-2,1.446896207E-2
9.742743250E0,2.602429595E-4,-9.901449084E-5,-1.680954173E-2,1.681184771E-2
9.752699250E0,-4.306488554E-4,9.820917621E-4,-1.211243123E-2,1.215980892E-2
9.762655250E0,-1.985934796E-3,2.018594183E-3,-1.365307346E-2,1.394363921E-2
9.772611250E0,1.264140359E-3,-5.326801911E-4,-1.398684084E-2,1.405395019E-2
9.782568250E0,-2.425669227E-3,1.494518481E-3,-1.686784998E-2,1.710677700E-2
9.792524250E0,1.239222940E-3,8.626906201E-4,-1.456353068E-2,1.464159604E-2
9.802480250E0,-1.062280731E-3,9.503085166E-4,-1.527885348E-2,1.534519111E-2
9.812436250E0,1.252410468E-3,-1.632571220E-4,-1.292976364E-2,1.299130374E-2
9.822392250E0,-4.014125443E-4,4.686694592E-5,-1.267196983E-2,1.267841267E-2
9.832348250E0,2.180867363E-3,-1.241630875E-3,-1.298599690E-2,1.322625968E-2
9.842304250E0,-3.877514973E-4,-2.562608570E-4,-1.305204257E-2,1.306031532E-2
9.852260250E0,-1.088529127E-3,1.490096562E-3,-1.544329524E-2,1.555315567E-2
9.862217250E0,-2.480297117E-3,-4.947576672E-4,-1.754053310E-2,1.772193444E-2
9.872173250E0,-1.039679977E-3,-2.596645616E-3,-1.655438170E-2,1.678901594E-2
9.882129250E0,-1.106525422E-3,-1.060571522E-4,-1.547100767E-2,1.551089053E-2
9.892085250E0,3.706146963E-4,-4.419852048E-4,-1.365931332E-2,1.367148663E-2
9.902041250E0,-3.072053660E-3,-1.003646292E-3,-1.313120872E-2,1.352307147E-2
9.911997250E0,-4.444040824E-4,-3.109043464E-4,-1.483361423E-2,1.484352612E-2
9.921953250E0,1.662587747E-4,2.576228231E-3,-1.858680695E-2,1.876523345E-2
9.931909250E0,2.965935972E-3,1.516871154E-3,-1.811919734E-2,1.842289300E-2
9.941866250E0,5.443234695E-4,-2.909451723E-5,-1.801107451E-2,1.801932129E-2
9.951822250E0,-8.428888395E-4,8.294591680E-4,-1.083607227E-2,1.090040945E-2
9.961778250E0,4.660693230E-5,1.152766868E-3,-8.939366788E-3,9.013507765E-3
9.971734250E0,-8.574578678E-4,-1.033288427E-3,-1.131643355E-2,1.139581446E-2
9.981690250E0,4.112719907E-4,-5.219606683E-4,-1.617750153E-2,1.619114398E-2
9.991646250E0,-4.814720014E-4,-1.144375652E-3,-2.032806352E-2,2.036594160E-2
1.000160225E1,2.036280464E-3,1.533166505E-3,-2.081968635E-2,2.097513713E-2
1.001155825E1,-1.241964288E-3,-3.888690844E-4,-1.448603347E-2,1.454437555E-2
1.002151425E1,-5.982782459E-4,-4.823459312E-4,-7.595103234E-3,7.633884175E-3
1.003147125E1,-7.579178782E-4,3.826189786E-4,-7.668882608E-3,7.715736987E-3
1.004142725E1,7.121469826E-4,-2.208103426E-3,-1.096587628E-2,1.120862689E-2
1.005138325E1,-1.069351099E-3,-1.814506017E-3,-1.771472022E-2,1.783948588E-2
1.006133925E1,1.000723918E-3,-1.809233800E-4,-2.163622528E-2,2.166011141E-2
1.007129525E1,-2.896356164E-4,3.747176379E-4,-2.082644030E-2,2.083182464E-2
1.008125125E1,-1.332263229E-3,2.554514445E-3,-1.502634212E-2,1.530004663E-2
1.009120725E1,8.738762699E-5,2.373461612E-3,-9.319793433E-3,9.617666362E-3
1.010116325E1,-9.717515204E-4,1.225639135E-3,-7.458511740E-3,7.620753879E-3
1.011112025E1,1.462583314E-3,-2.457684837E-3,-1.364796236E-2,1.394439821E-2
1.012107625E1,-1.715322724E-4,9.700693190E-4,-1.601950824E-2,1.604976954E-2
1.013103225E1,1.676536282E-3,-1.101372764E-4,-1.499379799E-2,1.508764005E-2
1.014098825E1,1.258153701E-3,-1.475273632E-3,-1.870597899E-2,1.880619666E-2
1.015094425E1,-1.589262392E-4,-1.258824021E-3,-1.497390494E-2,1.502756549E-2
1.016090025E1,1.109537319E-3,1.246882603E-4,-1.337068528E-2,1.341722196E-2
1.017085625E1,-3.959768219E-4,1.456435770E-3,-1.483771950E-2,1.491428586E-2
1.018081225E1,-4.354499280E-3,3.453642130E-4,-1.036307588E-2,1.124607852E-2
1.019076925E1,-1.916315989E-3,-9.119072929E-4,-1.015850529E-2,1.037781632E-2
1.020072525E1,8.626925410E-4,-3.004086204E-3,-1.348612458E-2,1.384356632E-2
1.021068125E1,5.315640010E-4,6.586387753E-4,-1.189152151E-2,1.192160431E-2
1.022063725E1,3.523359075E-3,1.028818078E-3,-1.478930935E-2,1.523798533E-2
1.023059325E1,-1.141360262E-3,-1.080731861E-3,-1.462891698E-2,1.471311988E-2
1.024054925E1,3.260414232E-4,1.175764017E-3,-1.453996822E-2,1.459107261E-2
1.025050525E1,-6.020464934E-5,-1.905461773E-3,-1.386144757E-2,1.399193117E-2
1.026046125E1,-7.085723337E-5,2.225367352E-3,-1.528597251E-2,1.544727277E-2
1.027041825E1,-1.204050146E-3,-1.577922143E-3,-1.630821824E-2,1.642855920E-2
1.028037425E1,-3.648881102E-4,-2.353700809E-3,-1.523336768E-2,1.541844810E-2
1.029033025E1,2.724435180E-4,2.569587901E-3,-1.446054876E-2,1.468960441E-2
1.030028625E1,1.826930675E-3,-1.315165311E-3,-1.461474597E-2,1.478709354E-2
1.031024225E1,-1.339781098E-3,-1.070513390E-3,-1.069312915E-2,1.082977485E-2
1.032019825E1,-1.251097769E-3,-1.071578823E-3,-1.456350088E-2,1.465636670E-2
1.033015425E1,1.059632865E-3,5.598515272E-4,-1.911960915E-2,1.915713208E-2
1.034011025E1,-2.759872703E-3,6.754323840E-4,-1.801199839E-2,1.823472490E-2
1.035006625E1,-1.115506049E-3,-3.218329512E-3,-1.693166420E-2,1.727087870E-2
1.036002325E1,-9.642385412E-4,1.951664686E-3,-9.410098195E-3,9.658607511E-3
1.036997925E1,-4.993054317E-4,-2.034760080E-3,-1.205033436E-2,1.223111249E-2
1.037993525E1,-1.121686189E-3,1.489134505E-3,-1.288470253E-2,1.301888094E-2
1.038989125E1,2.775273984E-3,5.254447460E-4,-1.846720278E-2,1.868196501E-2
1.039984725E1,1.547823078E-3,1.230407506E-4,-1.769728214E-2,1.776526640E-2
1.040980325E1,1.536938595E-3,-5.489997566E-4,-1.600401849E-2,1.608701926E-2
1.041975925E1,-1.259392593E-4,4.584733397E-4,-1.542238146E-2,1.542970863E-2
1.042971525E1,2.941582352E-6,1.323925331E-3,-8.992433548E-3,9.089370058E-3
1.043967225E1,7.755245897E-4,-4.366897047E-4,-1.057914272E-2,1.061651529E-2
1.044962825E1,-1.045830781E-3,-2.288157120E-4,-1.327057555E-2,1.331368823E-2