"Time (s)","Gyroscope x (rad/s)","Gyroscope y (rad/s)","Gyroscope z (rad/s)","Absolute (rad/s)"
-2.564833336E-3,-9.846526664E-4,-4.807971418E-4,-2.816938795E-2,2.819069216E-2
7.392166666E-3,1.544817584E-3,-9.212838486E-4,-3.044825606E-2,3.050133640E-2
1.734916666E-2,1.099268906E-3,-1.256814227E-3,-3.143920377E-2,3.148351168E-2
2.730616667E-2,2.302795183E-4,8.726492524E-4,-3.405283019E-2,3.406478811E-2
3.726316667E-2,-5.989307538E-4,2.763925120E-3,-3.507984057E-2,3.519365304E-2
4.722016667E-2,-5.664401688E-4,-4.561031237E-4,-3.364279866E-2,3.365065804E-2
5.717716667E-2,7.358012954E-4,-9.909924120E-5,-3.253231570E-2,3.254078655E-2
6.713416667E-2,-2.104199957E-4,1.508118585E-3,-2.961002849E-2,2.964915657E-2
7.709116667E-2,1.903311349E-4,6.144018844E-4,-3.090974875E-2,3.091644034E-2
8.704816666E-2,-1.090382924E-3,-1.312394626E-3,-3.003942780E-2,3.008784700E-2
9.700516667E-2,3.157623112E-3,-8.456110954E-4,-3.095341846E-2,3.112554829E-2
1.069621667E-1,-6.379139377E-4,-1.189691946E-3,-3.169164434E-2,3.172038181E-2
1.169181667E-1,-2.417290118E-3,-1.574019901E-3,-3.077784926E-2,3.091272934E-2
1.268751667E-1,-1.427925657E-3,7.205596194E-4,-3.127026930E-2,3.131114690E-2
1.368321667E-1,-1.251359354E-3,-1.082328148E-3,-3.082407266E-2,3.086844327E-2
1.467891667E-1,-5.560078425E-4,2.147287130E-3,-3.125630319E-2,3.133490826E-2
1.567461667E-1,1.342986943E-4,9.628320113E-4,-2.933460288E-2,2.935070711E-2
1.667031667E-1,-1.543879043E-4,-6.491793320E-4,-2.826694213E-2,2.827481718E-2
1.766601667E-1,-5.007309839E-3,6.806207821E-4,-2.957150899E-2,3.000017567E-2
1.866171667E-1,2.124369610E-3,-6.221970543E-4,-3.245517984E-2,3.253058213E-2
1.965741667E-1,2.438058611E-3,-8.848588914E-4,-3.263223171E-2,3.273514398E-2
2.065311667E-1,2.617234131E-4,-4.739323631E-4,-3.259148449E-2,3.259598092E-2
2.164881667E-1,3.382563591E-4,2.860417590E-4,-3.179422766E-2,3.179731356E-2
2.264451667E-1,2.781972988E-3,1.643987373E-3,-2.780987136E-2,2.799698222E-2
2.364021667E-1,7.012001006E-4,-1.662676223E-3,-3.068117425E-2,3.073419313E-2
2.463591667E-1,1.878583687E-3,-1.072786748E-3,-2.983535081E-2,2.991367758E-2
2.563151667E-1,1.788607333E-4,2.927124500E-3,-3.250809759E-2,3.264010505E-2
2.662721667E-1,7.061666111E-4,-1.038322225E-3,-2.985825390E-2,2.988464673E-2
2.762291667E-1,1.273339149E-3,-1.287171617E-4,-2.922874875E-2,2.925675502E-2
2.861861667E-1,-1.876711613E-4,-3.566835076E-4,-3.071985394E-2,3.072249778E-2
2.961431667E-1,2.067362424E-3,-9.908191860E-4,-2.949373797E-2,2.958270253E-2
3.061001667E-1,-1.138018328E-3,-6.297416985E-5,-2.969161049E-2,2.971347817E-2
3.160571667E-1,1.288949279E-3,1.665049233E-3,-2.818940766E-2,2.826794091E-2
3.260141667E-1,-1.192850526E-3,6.517162547E-4,-3.018411435E-2,3.021470479E-2
3.359711667E-1,4.083959851E-3,-8.563129231E-4,-3.214760497E-2,3.241728714E-2
3.459281667E-1,5.310364068E-4,-1.014238223E-3,-3.180219233E-2,3.182279240E-2
3.558851667E-1,-1.481946092E-3,4.742741585E-4,-3.383768350E-2,3.387343981E-2
3.658421667E-1,1.495062606E-4,-1.051716506E-3,-3.047437593E-2,3.049288521E-2
3.757991667E-1,3.043550532E-5,9.592669085E-4,-2.874271758E-2,2.875873664E-2
3.857561667E-1,-2.230055630E-3,-1.798702404E-3,-2.994966321E-2,3.008638903E-2
3.957121667E-1,-1.342338393E-3,-4.903674126E-4,-2.669558115E-2,2.673380605E-2
4.056691667E-1,1.026928658E-4,-1.439251937E-3,-3.024850413E-2,3.028289937E-2
4.156261667E-1,-1.654849737E-3,-2.941492014E-3,-3.118699603E-2,3.136908708E-2
4.255831667E-1,4.991149763E-4,-1.123618335E-3,-3.069297969E-2,3.071759490E-2
4.355401667E-1,-2.777579706E-3,7.571922615E-4,-2.922872826E-2,2.937016931E-2
4.454971667E-1,-3.059000010E-4,2.094632015E-3,-2.658740431E-2,2.667154150E-2
4.554541667E-1,-6.289525190E-4,5.423929542E-5,-2.596258000E-2,2.597025381E-2
4.654111667E-1,-3.871376393E-4,1.295273192E-3,-2.929046564E-2,2.932164705E-2
4.753681667E-1,-2.453703433E-3,9.000543505E-4,-3.158979118E-2,3.169772334E-2
4.853251667E-1,-7.186541334E-4,-3.684498370E-5,-3.172640875E-2,3.173456843E-2
4.952821667E-1,-1.505993539E-3,-1.058140770E-3,-3.116603941E-2,3.122034098E-2
5.052391667E-1,-3.736175131E-4,2.004761249E-3,-2.902352437E-2,2.909507905E-2
5.151956667E-1,1.158627798E-3,-7.566371933E-4,-2.727947384E-2,2.731454944E-2
5.251526667E-1,1.272344729E-3,5.109980702E-5,-2.854181081E-2,2.857020190E-2
5.351086667E-1,1.010425854E-3,1.736319624E-3,-2.993867919E-2,3.000600403E-2
5.450656667E-1,-1.241809456E-3,-8.613280952E-4,-2.960631624E-2,2.964486360E-2
5.550226667E-1,-4.444045480E-4,-6.766244769E-5,-3.016063198E-2,3.016398175E-2
5.649796667E-1,1.930602477E-3,6.905756891E-6,-2.941095270E-2,2.947424999E-2
5.749366667E-1,-2.195035573E-3,1.313370652E-3,-2.599066123E-2,2.611623240E-2
5.848936667E-1,-1.172372140E-4,6.707496941E-4,-2.711930871E-2,2.712785570E-2
5.948506667E-1,2.059065271E-3,6.786752492E-4,-2.888996340E-2,2.897119838E-2
6.048076667E-1,-7.931803120E-4,-9.099002928E-4,-2.863456681E-2,2.865999773E-2
6.147646667E-1,2.938647289E-3,-1.734836958E-3,-3.196141869E-2,3.214308000E-2
6.247216667E-1,-1.617488801E-3,-2.131382003E-3,-3.173345327E-2,3.184605338E-2
6.346786667E-1,2.203508047E-4,-3.839181736E-4,-2.700701542E-2,2.701064290E-2
6.446356667E-1,-5.245351931E-4,-5.429089069E-4,-2.904912829E-2,2.905893566E-2
6.545926667E-1,-1.197956386E-3,-1.859063283E-3,-2.369745076E-2,2.380042832E-2
6.645496667E-1,-2.994058887E-4,-4.438590258E-4,-2.541492507E-2,2.542056394E-2
6.745056667E-1,2.298152540E-4,-1.335196197E-3,-2.935273387E-2,2.938398457E-2
6.844626667E-1,6.860147696E-4,1.742352732E-3,-2.829998732E-2,2.836187038E-2
6.944196667E-1,-1.562025864E-5,-5.690390244E-4,-3.088607080E-2,3.089131624E-2
7.043766667E-1,-1.027056715E-4,5.138022825E-4,-3.147729486E-2,3.148165550E-2
7.143336667E-1,2.381771104E-3,-4.286989570E-4,-2.919647098E-2,2.929659594E-2
7.242906667E-1,1.325028948E-3,-1.016458496E-3,-2.782520838E-2,2.787527777E-2
7.342476667E-1,1.859492972E-3,-4.058945924E-4,-2.441616356E-2,2.449023290E-2
7.442046667E-1,-5.128508201E-4,1.981629059E-3,-2.566412091E-2,2.574562044E-2
7.541616667E-1,3.059092909E-3,-3.698840737E-5,-2.955329791E-2,2.971122405E-2
7.641186667E-1,2.302833600E-4,-1.732356846E-3,-3.049898520E-2,3.054901290E-2
7.740756667E-1,-9.611630812E-4,4.279240966E-4,-3.162493557E-2,3.164243200E-2
7.840326667E-1,-1.948663034E-3,-1.924712211E-3,-2.910584956E-2,2.923443660E-2
7.939896667E-1,-1.026314334E-3,-5.458174273E-4,-2.750085294E-2,2.752540918E-2
8.039466667E-1,-1.223920728E-3,4.541995004E-4,-2.567525581E-2,2.570842352E-2
8.139026667E-1,-2.501545940E-3,5.560247228E-4,-2.530954406E-2,2.543894487E-2
8.238596667E-1,4.811945837E-4,-4.237527028E-4,-2.563471533E-2,2.564273279E-2
8.338166667E-1,-1.250073197E-3,1.996847801E-3,-2.818102762E-2,2.827932817E-2
8.437736667E-1,6.847132463E-4,1.019467600E-3,-2.544889040E-2,2.547850406E-2
8.537306667E-1,-1.082649804E-3,1.201624051E-3,-2.748703770E-2,2.753458321E-2
8.636876667E-1,-2.719162032E-3,8.336268365E-5,-2.659461275E-2,2.673339145E-2
8.736446667E-1,-1.615466783E-3,1.421891153E-3,-2.678381093E-2,2.687013277E-2
8.836016667E-1,3.390271449E-4,-8.995858952E-4,-2.668713778E-2,2.670444752E-2
8.935586667E-1,9.548623930E-4,-6.339866668E-4,-2.410092205E-2,2.412816083E-2
9.035156667E-1,2.693646820E-4,7.782876492E-4,-2.341862023E-2,2.343309758E-2
9.134726667E-1,2.175545786E-3,1.368235797E-3,-2.414771542E-2,2.428409415E-2
9.234296667E-1,9.017558768E-4,1.391870901E-4,-2.469392866E-2,2.471078002E-2
9.333866667E-1,-1.608643099E-3,1.874364913E-3,-2.705587819E-2,2.716839195E-2
9.433436667E-1,-1.029405626E-3,1.499124803E-3,-2.954992838E-2,2.960583251E-2
9.532996667E-1,-1.319916220E-3,3.010446206E-3,-2.611875534E-2,2.632478577E-2
9.632566667E-1,1.094022300E-4,-1.103337854E-3,-2.699067444E-2,2.701343795E-2
9.732136667E-1,-2.475579269E-3,5.858559161E-4,-2.265635133E-2,2.279872749E-2
9.831706667E-1,1.985006966E-4,3.525633365E-4,-2.520313114E-2,2.520637861E-2
9.931276667E-1,1.270132954E-3,5.145454779E-4,-2.598780580E-2,2.602391295E-2
1.003084667E0,-2.470698673E-4,5.014957860E-4,-2.837106772E-2,2.837657529E-2
1.013041667E0,-8.724313229E-4,3.139078617E-4,-2.635315619E-2,2.636946181E-2
1.022998667E0,-1.494545722E-3,-9.233970195E-4,-2.653158829E-2,2.658968796E-2
1.032955667E0,1.219895203E-3,-1.551350579E-4,-2.519216016E-2,2.522215583E-2
1.042912667E0,3.321129363E-3,9.703170508E-4,-2.449201420E-2,2.473520113E-2
1.052869667E0,9.904690087E-4,1.014973968E-3,-2.470292524E-2,2.474359950E-2
1.062826667E0,4.442547215E-4,-3.482978791E-4,-2.721934579E-2,2.722519897E-2
1.072783667E0,-1.215435565E-3,2.155886963E-3,-2.922510728E-2,2.932971237E-2
1.082740667E0,7.515751058E-4,-2.378144301E-3,-2.672253549E-2,2.683867244E-2
1.092696667E0,-3.009320935E-4,1.398331486E-3,-2.677732892E-2,2.681550364E-2
1.102653667E0,2.601380693E-3,1.477105543E-4,-2.325689793E-2,2.340239947E-2
1.112610667E0,-1.779880840E-4,-1.264242455E-4,-2.372520417E-2,2.372620863E-2
1.122567667E0,-1.718627755E-4,2.421954647E-3,-2.527383342E-2,2.539019608E-2
1.132524667E0,1.698561828E-3,-1.862351783E-3,-2.832533233E-2,2.843726284E-2
1.142481667E0,3.113212297E-4,3.752363846E-4,-2.722784504E-2,2.723221014E-2
1.152438667E0,6.989388494E-4,-3.466205671E-4,-2.716670930E-2,2.717790933E-2
1.162395667E0,-1.707493560E-3,1.841965131E-3,-2.274639346E-2,2.288464081E-2
1.172352667E0,-5.175343249E-4,5.159769207E-4,-2.315531857E-2,2.316684813E-2
1.182309667E0,-1.000099117E-3,-1.637721434E-3,-2.328821085E-2,2.336713706E-2
1.192266667E0,1.940854592E-3,6.789863110E-4,-2.596519701E-2,2.604648527E-2
1.202223667E0,3.030279186E-5,2.129329368E-4,-2.593004331E-2,2.593093528E-2
1.212180667E0,2.527822275E-3,-2.097729594E-4,-2.655074559E-2,2.667163253E-2
1.222137667E0,-2.423978876E-4,2.325782552E-4,-2.659202367E-2,2.659414545E-2
1.232093667E0,-1.314606168E-3,6.074178964E-4,-2.372033149E-2,2.376449604E-2
1.242050667E0,2.882535569E-3,-2.055522054E-5,-2.461968176E-2,2.478786324E-2
1.252007667E0,-6.165755913E-4,3.159698099E-4,-2.281503007E-2,2.282554708E-2
1.261964667E0,2.332608914E-3,7.985346019E-4,-2.617434226E-2,2.629020568E-2
1.271921667E0,1.230480848E-3,9.820470586E-4,-2.443085052E-2,2.448152276E-2
1.281878667E0,-1.506345579E-4,6.669955328E-4,-2.461966872E-2,2.462916283E-2
1.291835667E0,-1.727270661E-3,5.949176848E-4,-2.306495421E-2,2.313718876E-2
1.301792667E0,-6.175313611E-4,7.509784773E-4,-2.271394990E-2,2.273474948E-2
1.311749667E0,-1.521530794E-4,-1.339567825E-4,-2.154965512E-2,2.155060860E-2
1.321706667E0,4.278834676E-4,8.029434830E-4,-2.097148262E-2,2.099120973E-2
1.331663667E0,-2.602648456E-4,2.673519775E-4,-2.304482833E-2,2.304784865E-2
1.341620667E0,1.491562580E-3,-1.696463674E-3,-2.478387207E-2,2.488660408E-2
1.351577667E0,8.431018796E-4,-4.968084395E-4,-2.563559078E-2,2.565426190E-2
1.361533667E0,2.545128111E-3,-9.697861969E-4,-2.464516088E-2,2.479520351E-2
1.371490667E0,1.504391199E-3,-1.003483310E-3,-2.279815823E-2,2.286976585E-2
1.381447667E0,1.390674151E-3,-5.808388814E-4,-2.075205185E-2,2.080670575E-2
1.391404667E0,2.065286739E-3,5.155485123E-4,-2.257804200E-2,2.267816527E-2
1.401361667E0,-7.488756673E-4,-3.972090781E-5,-2.195273340E-2,2.196553883E-2
1.411318667E0,-3.716635983E-4,-5.349246785E-4,-2.575476468E-2,2.576300025E-2
1.421275667E0,3.654992906E-4,-2.212049440E-4,-2.622188255E-2,2.622536265E-2
1.431232667E0,1.808833214E-3,-8.237771690E-4,-2.324345708E-2,2.332828291E-2
1.441189667E0,-2.088170499E-3,-5.231071264E-4,-2.549702302E-2,2.558773690E-2
1.451146667E0,7.505255053E-4,-1.652580686E-3,-2.360387333E-2,2.367355376E-2
1.461103667E0,-2.159777097E-3,-4.021729343E-3,-2.197321877E-2,2.244239932E-2
1.471060667E0,1.565099810E-3,-5.721710622E-4,-2.470983751E-2,2.476596429E-2
1.481017667E0,-8.306798991E-4,1.861425117E-3,-2.397160977E-2,2.405811729E-2
1.490974667E0,-2.057583071E-3,-2.038745210E-3,-2.399692684E-2,2.417111144E-2
1.500930667E0,2.388830530E-3,-1.021950506E-3,-2.202432230E-2,2.217705271E-2
1.510887667E0,2.470195293E-3,-2.014966682E-3,-2.472079918E-2,2.492548630E-2
1.520844958E0,-3.576511983E-3,-8.764648810E-4,-2.439935505E-2,2.467565917E-2
1.530801958E0,-1.583573991E-3,-4.939921200E-5,-2.280395292E-2,2.285892420E-2
1.540758958E0,2.329941140E-3,5.247788504E-4,-2.499600127E-2,2.510984066E-2
1.550715958E0,-4.844844807E-4,7.728878409E-4,-2.385300957E-2,2.387044504E-2
1.560672958E0,-1.976620406E-4,-1.657512970E-3,-2.207508311E-2,2.213810547E-2
1.570629958E0,-1.154135331E-3,-8.270833641E-4,-2.248485200E-2,2.252963969E-2
1.580586958E0,1.592382672E-3,-9.053796530E-4,-2.055246197E-2,2.063393050E-2
1.590543958E0,1.419391017E-3,-8.447999135E-4,-2.116042003E-2,2.122479054E-2
1.600500958E0,-8.333770093E-4,-7.001906633E-4,-2.203686722E-2,2.206373271E-2
1.610457958E0,8.180155419E-5,4.863301292E-4,-2.196248621E-2,2.196802242E-2
1.620414958E0,2.288080286E-4,-5.214102566E-4,-2.097072825E-2,2.097845717E-2
1.630370958E0,6.936596474E-4,6.462195888E-4,-2.212455496E-2,2.214485709E-2
1.640327958E0,6.564077921E-6,1.738914289E-3,-2.203134447E-2,2.209986437E-2
1.650284958E0,1.262911479E-3,-1.763986424E-3,-2.514216863E-2,2.523559464E-2
1.660241958E0,-5.535327364E-5,2.247799188E-3,-2.259352431E-2,2.270513171E-2
1.670198958E0,-2.954559401E-3,-1.182330772E-3,-2.184319124E-2,2.207379285E-2
1.680155958E0,-1.313785790E-3,-3.956817091E-5,-1.945939660E-2,1.950373592E-2
1.690112958E0,-2.538470319E-3,-3.931466490E-4,-1.980246231E-2,1.996837273E-2
1.700069958E0,1.040818286E-3,-2.323277295E-5,-1.758591272E-2,1.761670141E-2
1.710026958E0,8.688921225E-4,2.783685923E-4,-2.270768583E-2,2.272600841E-2
1.719983958E0,-2.786562778E-3,4.006074741E-4,-2.210607752E-2,2.228461536E-2
1.729940958E0,3.249823349E-4,-3.177355975E-4,-2.476759255E-2,2.477176235E-2
1.739897958E0,-1.935508801E-3,-1.462895423E-3,-2.293560281E-2,2.306356724E-2
1.749854958E0,6.860107533E-4,1.059091650E-3,-2.163012885E-2,2.166690471E-2
1.759810958E0,-1.419660402E-4,3.589466214E-4,-1.907482557E-2,1.907873076E-2
1.769767958E0,3.732432378E-4,-1.282698475E-3,-1.818115637E-2,1.823016930E-2
1.779724958E0,9.679271607E-4,-3.053182736E-4,-2.095697075E-2,2.098153296E-2
1.789681958E0,8.597528795E-4,-1.034631394E-3,-2.360529825E-2,2.364359834E-2
1.799638958E0,-3.597313538E-3,2.181194723E-4,-2.428440377E-2,2.455036675E-2
1.809595958E0,-7.296738913E-4,-1.398863271E-3,-2.458213642E-2,2.463271551E-2
1.819552958E0,-1.033540466E-3,5.809310824E-4,-1.927152835E-2,1.930796446E-2
1.829509958E0,1.674361993E-4,-9.132362902E-5,-1.843479089E-2,1.843577745E-2
1.839466958E0,-2.407574328E-3,1.600198448E-5,-1.743716933E-2,1.760260050E-2
1.849423958E0,3.075914923E-3,-4.830462858E-4,-1.945114508E-2,1.969877233E-2
1.859380958E0,2.127829706E-3,-6.151385605E-4,-2.423391677E-2,2.433492915E-2
1.869337958E0,9.894496761E-4,9.770998731E-4,-2.741291746E-2,2.744816531E-2
1.879294958E0,-2.609044313E-4,-1.089779660E-3,-2.632954344E-2,2.635337832E-2
1.889251958E0,-2.236606088E-3,8.688922971E-4,-2.268240228E-2,2.280896214E-2
1.899207958E0,1.620183932E-3,1.897867769E-4,-1.471875049E-2,1.480887001E-2
1.909164958E0,-7.413907442E-4,-1.859719865E-3,-1.616804302E-2,1.629152642E-2
1.919121958E0,-1.951764571E-4,1.078238711E-4,-1.766607165E-2,1.766747881E-2
1.929078958E0,-3.828560002E-4,-3.406517208E-4,-2.242963947E-2,2.243549307E-2
1.939035958E0,1.874880400E-5,7.424559444E-4,-2.631492540E-2,2.632540391E-2
1.948992958E0,8.687069057E-4,8.271439001E-4,-2.621730790E-2,2.624473380E-2
1.958949958E0,5.142401205E-4,-1.156153157E-4,-2.245985530E-2,2.246603904E-2
1.968906958E0,8.458421216E-4,-1.789283007E-3,-2.028978243E-2,2.038607990E-2
1.978863958E0,-5.371373845E-4,-1.289406791E-3,-1.862184517E-2,1.867415872E-2
1.988820958E0,-1.067441539E-3,-1.813380979E-3,-1.785037667E-2,1.797397366E-2
1.998777958E0,1.505704713E-3,-3.385636955E-5,-2.148772217E-2,2.154043865E-2
2.008734958E0,-1.140241977E-3,1.916971058E-3,-2.504191175E-2,2.514104759E-2
2.018690958E0,-1.190841896E-3,-9.293667972E-6,-2.484270744E-2,2.487123446E-2
2.028647958E0,-3.937507281E-4,-4.303501919E-4,-2.191292122E-2,2.192068332E-2
2.038604958E0,-1.174323377E-3,1.361690462E-3,-1.903218031E-2,1.911693290E-2
2.048561958E0,2.238564659E-3,1.798534766E-3,-1.962508634E-2,1.983405941E-2
2.058518958E0,-1.558304299E-3,-2.912478521E-4,-1.880802773E-2,1.887471972E-2
2.068475958E0,6.217081100E-4,1.336385496E-3,-2.377537824E-2,2.382102134E-2
2.078432958E0,7.772367098E-4,7.659364492E-4,-2.560709976E-2,2.563033971E-2
2.088389958E0,-1.253729686E-3,1.657081768E-3,-2.325996384E-2,2.335259463E-2
2.098346958E0,-1.566651044E-3,-2.677212469E-3,-2.115366980E-2,2.137988794E-2
2.108303958E0,7.186359144E-4,-3.845803440E-4,-1.904417202E-2,1.906160611E-2
2.118260958E0,1.550341141E-3,5.501890555E-4,-2.022741362E-2,2.029419936E-2
2.128217958E0,4.128720611E-4,7.074531168E-4,-1.883669756E-2,1.885449889E-2
2.138174958E0,1.856571762E-3,1.484556124E-4,-2.032700181E-2,2.041215080E-2
2.148131958E0,-5.529866321E-4,7.666926831E-5,-2.253569663E-2,2.254261065E-2
2.158087958E0,-2.927958267E-4,-3.422461450E-4,-2.469285764E-2,2.469696500E-2
2.168044958E0,-2.001166344E-3,1.817718148E-4,-2.190423384E-2,2.199620804E-2
2.178001958E0,-9.481523884E-4,-6.576571614E-4,-1.964294352E-2,1.967680706E-2
2.187958958E0,-3.777742386E-4,-2.821860835E-4,-1.665900089E-2,1.666567289E-2
2.197915958E0,-1.391639467E-3,-8.244058117E-4,-1.708750241E-2,1.716388778E-2
2.207872958E0,4.217767622E-3,1.918882132E-3,-2.036224306E-2,2.088283062E-2
2.217829958E0,-8.912405465E-4,7.470911369E-4,-2.384565771E-2,2.387399938E-2
2.227786958E0,-1.293631969E-3,-1.897688024E-3,-2.425846830E-2,2.436694457E-2
2.237743958E0,-3.447476774E-4,1.233124174E-3,-2.204351686E-2,2.208067213E-2
2.247700958E0,6.636350881E-4,-1.883003861E-4,-2.032461762E-2,2.033632096E-2
2.257657958E0,-3.185387468E-4,-2.325093374E-4,-2.175527066E-2,2.175884485E-2
2.267614958E0,-1.305399928E-4,1.439930871E-3,-1.944044232E-2,1.949413346E-2
2.277570958E0,1.238591038E-3,2.889120951E-4,-2.366954088E-2,2.370368629E-2
2.287527958E0,6.616837345E-4,1.742864959E-3,-2.205094323E-2,2.212960688E-2
2.297484958E0,-7.787614595E-5,8.485745639E-4,-2.268531173E-2,2.270131080E-2
2.307441958E0,-2.890237374E-4,-1.259727404E-3,-2.094199136E-2,2.098183619E-2
2.317398958E0,1.232706476E-3,6.835814565E-4,-2.086236142E-2,2.090992522E-2
2.327355958E0,9.924410842E-4,2.162501216E-3,-1.826762967E-2,1.842193379E-2
2.337312958E0,6.022879388E-4,-2.534781583E-3,-2.002877742E-2,2.019751949E-2
2.347269958E0,1.965491101E-3,-8.622659370E-4,-2.208371647E-2,2.218777120E-2
2.357226958E0,2.217159839E-3,-1.366402023E-3,-2.450692654E-2,2.464492444E-2
2.367183958E0,-3.363950411E-3,-2.146391198E-4,-2.315851673E-2,2.340254537E-2
2.377140958E0,1.312560518E-3,-1.008527353E-3,-1.966764592E-2,1.973717909E-2
2.387097958E0,2.180334413E-4,-7.619950920E-4,-1.981522143E-2,1.983106592E-2
2.397054958E0,-3.606714308E-4,6.446866319E-4,-1.977953315E-2,1.979332302E-2
2.407010958E0,-4.448877880E-4,7.185153663E-4,-2.199527808E-2,2.201150715E-2
2.416967958E0,2.783396048E-3,6.221085787E-4,-2.312392555E-2,2.329914689E-2
2.426924958E0,-3.743900917E-3,1.103103161E-3,-2.517102472E-2,2.547182986E-2
2.436881958E0,2.700154437E-4,1.900986768E-3,-2.157575823E-2,2.166102496E-2
2.446838958E0,5.833959440E-4,-1.101550646E-3,-2.015841380E-2,2.019691589E-2
2.456795958E0,-7.180907996E-4,1.038298942E-3,-1.927744225E-2,1.931873440E-2
2.466752958E0,1.078333007E-3,5.417596549E-5,-1.865164936E-2,1.868287346E-2
2.476709958E0,-2.865371061E-4,-2.107245848E-3,-2.108897455E-2,2.119592971E-2
2.486666958E0,-4.536369815E-4,5.266312510E-4,-2.346638590E-2,2.347667767E-2
2.496623958E0,5.658209557E-4,6.427448243E-4,-2.522780187E-2,2.524233075E-2
2.506580958E0,-2.974163508E-3,-2.167485654E-3,-2.211768180E-2,2.242176378E-2
2.516537458E0,-1.275599468E-3,-9.418996051E-4,-2.019700967E-2,2.025915912E-2
2.526493458E0,-4.390421091E-4,7.727118209E-4,-1.899596676E-2,1.901674511E-2
2.536450458E0,8.137087571E-4,8.808365092E-4,-1.912513003E-2,1.916268753E-2
2.546407458E0,1.473431475E-4,-2.197800204E-4,-2.116912976E-2,2.117078336E-2
2.556364458E0,1.469336334E-3,-1.889581792E-3,-2.206049114E-2,2.218996931E-2
2.566321458E0,1.144002541E-3,1.565806568E-3,-2.233078703E-2,2.241482861E-2
2.576278458E0,-1.792398980E-3,-1.244893298E-3,-2.256780863E-2,2.267307742E-2
2.586235458E0,-1.985947369E-3,-1.072646119E-3,-1.503961906E-2,1.520804715E-2
2.596192458E0,-1.016024267E-3,7.920991629E-4,-1.538716257E-2,1.544100056E-2
2.606149458E0,1.818337478E-3,3.119837493E-4,-1.337174326E-2,1.349841483E-2
2.616106458E0,-1.911952160E-3,-1.478726044E-3,-2.260305919E-2,2.273192637E-2
2.626063458E0,1.533494913E-3,-1.672693528E-3,-2.260334417E-2,2.271696895E-2
2.636020458E0,-1.626723679E-4,-3.043156117E-3,-2.216285840E-2,2.237140035E-2
2.645977458E0,-1.234330237E-3,1.911260188E-3,-2.098702639E-2,2.110999203E-2
2.655933458E0,-5.224673077E-4,3.959052265E-5,-1.615285687E-2,1.616135281E-2
2.665890458E0,3.983131610E-4,3.236858174E-4,-1.513363421E-2,1.514233503E-2
2.675847458E0,-7.135565393E-4,3.891997039E-4,-1.501059532E-2,1.503258498E-2
2.685804458E0,6.796116941E-5,-3.107078373E-5,-2.108544111E-2,2.108557353E-2
2.695761458E0,2.163070021E-3,-2.072916366E-3,-2.239065617E-2,2.259020447E-2
2.705718458E0,-3.632581327E-3,-4.056114703E-4,-2.419003844E-2,2.446463013E-2
2.715675458E0,-1.627487596E-3,1.280169003E-3,-2.302091010E-2,2.311384543E-2
2.725632458E0,-7.842483465E-4,1.598560251E-3,-1.805413514E-2,1.814172638E-2
2.735589458E0,1.756673562E-3,1.493099146E-3,-1.403888967E-2,1.422693467E-2
2.745546458E0,-6.465401966E-4,-1.435704529E-3,-1.548565738E-2,1.556550180E-2
2.755503458E0,-1.693017548E-4,-9.411554784E-4,-2.060398646E-2,2.062616529E-2
2.765460458E0,-3.005882725E-3,1.898894086E-3,-2.342206985E-2,2.369038804E-2
2.775416458E0,2.045867499E-3,-9.019523859E-4,-2.563542314E-2,2.573274201E-2
2.785373458E0,6.704431726E-4,1.311351545E-3,-2.042047121E-2,2.047351414E-2
2.795330458E0,3.692395985E-4,-2.862792462E-4,-1.962471940E-2,1.963028031E-2
2.805287458E0,1.836439245E-3,-1.604988240E-3,-1.477765758E-2,1.497757189E-2
2.815244458E0,-3.614677116E-4,-1.384212635E-3,-1.305965241E-2,1.313777853E-2
2.825201458E0,-2.218928188E-3,-1.663995907E-3,-1.912155375E-2,1.932165475E-2
2.835158458E0,-1.778974081E-3,3.746533766E-4,-2.265051007E-2,2.272335188E-2
2.845115458E0,-3.505597822E-3,1.178923063E-3,-2.546197176E-2,2.572918735E-2
2.855072458E0,-8.893081686E-4,2.875635400E-4,-2.106988616E-2,2.109060608E-2
2.865029458E0,8.245893405E-4,1.556917094E-3,-1.577549800E-2,1.587357161E-2
2.874986458E0,-6.635850295E-4,5.510412157E-4,-1.292192098E-2,1.295067694E-2
2.884943458E0,1.482568332E-3,1.724109054E-3,-1.461594459E-2,1.479176788E-2
2.894900458E0,1.554207294E-3,-1.117217354E-3,-1.619572937E-2,1.630844520E-2
2.904856458E0,-1.314134686E-3,1.027523540E-3,-2.014610916E-2,2.021505550E-2
2.914813458E0,4.595306236E-4,-9.115245193E-4,-2.001374960E-2,2.003976593E-2
2.924770458E0,-1.669479534E-4,2.780761570E-4,-2.220336348E-2,2.220573232E-2
2.934727458E0,4.200127441E-4,-8.801324293E-4,-1.986537501E-2,1.988929783E-2
2.944684458E0,-1.982744318E-3,1.655619591E-3,-1.729844883E-2,1.749024537E-2
2.954641458E0,-2.926302608E-3,5.858279765E-4,-1.623744518E-2,1.650942359E-2
2.964598458E0,-1.707107760E-3,-1.099131070E-3,-1.743262820E-2,1.755046529E-2
2.974555458E0,5.589760840E-4,2.513583750E-4,-1.774767973E-2,1.775825923E-2
2.984512458E0,1.174827106E-3,-2.386048436E-4,-2.124200761E-2,2.127580876E-2
2.994469458E0,4.927915288E-4,-4.055853933E-4,-2.057195455E-2,2.058185261E-2
3.004426458E0,-6.809437182E-4,2.484970726E-3,-2.160898969E-2,2.176205871E-2
3.014383458E0,-8.460597601E-4,-1.736405306E-3,-2.039032802E-2,2.048161120E-2
3.024339458E0,1.175382407E-3,5.936250091E-6,-1.815114170E-2,1.818915897E-2
3.034296458E0,-1.875534886E-3,5.769180134E-4,-1.686004177E-2,1.697384676E-2
3.044253458E0,-4.930155119E-4,8.291974664E-4,-1.783295907E-2,1.785903306E-2
3.054210458E0,-1.519930433E-3,5.724690855E-4,-1.854775101E-2,1.861872651E-2
3.064167458E0,1.635959256E-3,-2.566912211E-3,-2.434490621E-2,2.453446269E-2
3.074124458E0,1.677504508E-3,-1.187529415E-5,-2.396833524E-2,2.402696936E-2
3.084081458E0,-1.422151225E-3,1.962307841E-3,-2.054875530E-2,2.069116987E-2
3.094038458E0,3.892985638E-3,1.487200148E-3,-1.850770973E-2,1.897109435E-2
3.103995458E0,2.960215788E-3,-8.566342294E-4,-1.753539592E-2,1.780412339E-2
3.113952458E0,-8.656813297E-4,2.039819956E-3,-1.873222180E-2,1.886283126E-2
3.123909458E0,-1.540662488E-4,7.324283943E-4,-1.854187064E-2,1.855697051E-2
3.133866458E0,-3.235973418E-5,-1.745376736E-3,-2.230491675E-2,2.237312447E-2
3.143823458E0,-6.288650911E-4,4.418008029E-5,-2.163054049E-2,2.163972516E-2
3.153779458E0,-4.192742053E-4,-9.875288233E-4,-1.978443563E-2,1.981350290E-2
3.163736458E0,2.275434090E-4,3.176795319E-3,-1.717904583E-2,1.747178926E-2
3.173693458E0,-1.044914941E-3,-1.698920503E-3,-1.885976642E-2,1.896494049E-2
3.183650458E0,5.477762315E-4,-7.752487436E-4,-1.995246112E-2,1.997502877E-2
3.193607458E0,8.491892368E-5,1.861280762E-3,-2.097697929E-2,2.105956403E-2
3.203564458E0,2.249680925E-3,-7.158787921E-4,-1.937032305E-2,1.951366090E-2
3.213521458E0,1.194536453E-3,2.383319661E-4,-2.288622782E-2,2.291862001E-2
3.223478458E0,2.136948518E-3,-1.527396962E-4,-1.872344129E-2,1.884561307E-2
3.233435458E0,-3.910823725E-3,1.018587500E-4,-2.043318935E-2,2.080432994E-2
3.243392458E0,-1.251538051E-4,-1.465735026E-3,-1.841530576E-2,1.847396896E-2
3.253349458E0,1.009484986E-4,1.854428090E-3,-1.660302468E-2,1.670657124E-2
3.263306458E0,2.107399516E-3,4.882505164E-4,-1.992509514E-2,2.004217896E-2
3.273262458E0,1.626965124E-3,-3.157583997E-4,-2.014959976E-2,2.021764302E-2
3.283219458E0,-1.405865420E-3,4.421966150E-4,-2.310269699E-2,2.314965666E-2
3.293176458E0,7.821877953E-4,7.734932005E-4,-1.854576543E-2,1.857836174E-2
3.303133458E0,3.722915426E-4,4.924172536E-4,-1.951730624E-2,1.952706631E-2
3.313090458E0,1.701575238E-4,-1.794173382E-3,-1.832820475E-2,1.841659852E-2
3.323047458E0,2.564511262E-3,-1.518156379E-3,-1.724494062E-2,1.750055696E-2
3.333004458E0,2.177336719E-4,-1.263291575E-3,-1.918452047E-2,1.922730192E-2
3.342961458E0,-7.270687493E-4,-1.827767119E-3,-2.176173031E-2,2.185045235E-2
3.352918458E0,-2.130554523E-3,-7.385341451E-4,-2.038860507E-2,2.051292061E-2
3.362875458E0,-1.400575042E-3,-1.739291474E-3,-2.356105670E-2,2.366664611E-2
3.372832458E0,-5.286559463E-4,3.947000951E-4,-2.053570747E-2,2.054630251E-2
3.382789458E0,1.166260336E-5,2.833828330E-5,-1.827047393E-2,1.827049963E-2
3.392746458E0,1.096900785E-3,-1.277225092E-4,-1.789123937E-2,1.792528802E-2
3.402702458E0,9.420593269E-4,1.311236992E-4,-1.869811118E-2,1.872228701E-2
3.412659458E0,-1.069598366E-4,2.331427298E-3,-1.929172873E-2,1.943239026E-2
3.422616458E0,-1.123416703E-3,-1.246548258E-3,-2.099589258E-2,2.106284532E-2
3.432573458E0,9.735563654E-4,5.438951775E-4,-1.991678029E-2,1.994797662E-2
3.442530458E0,9.449056815E-4,-1.325486228E-3,-1.926187426E-2,1.933053441E-2
3.452487458E0,-1.140083186E-3,-8.770097047E-4,-1.678486913E-2,1.684638737E-2
3.462444458E0,8.214430418E-4,5.217101425E-4,-1.990482956E-2,1.992860231E-2
3.472401458E0,1.689685741E-4,-1.246389002E-4,-1.877325214E-2,1.877442626E-2
3.482358458E0,-1.359763206E-3,-1.600980759E-4,-2.007066086E-2,2.011730635E-2
3.492315458E0,2.165995771E-3,2.010910772E-3,-1.918569207E-2,1.941200866E-2
3.502272458E0,6.121570477E-4,2.502677962E-3,-1.638079062E-2,1.658217219E-2
3.512229458E0,-7.599035744E-4,1.154206693E-4,-1.897577569E-2,1.899133588E-2
3.522186167E0,5.521751009E-4,-1.080063172E-3,-1.672149077E-2,1.676543132E-2
3.532143167E0,-5.378567148E-4,4.158336669E-4,-1.853616536E-2,1.854862889E-2
3.542100167E0,-6.756128278E-4,2.621617168E-4,-1.974565908E-2,1.975895326E-2
3.552057167E0,-6.111643743E-4,1.255786978E-3,-1.661298238E-2,1.667158380E-2
3.562014167E0,-7.860731566E-4,6.866324693E-4,-1.853988506E-2,1.856924105E-2
3.571971167E0,-6.087064976E-4,-8.004764095E-4,-1.629270986E-2,1.632371528E-2
3.581928167E0,6.204972742E-4,-8.280156180E-4,-1.703747176E-2,1.706886260E-2
3.591885167E0,2.084170468E-3,5.322415382E-5,-1.566354558E-2,1.580168534E-2
3.601842167E0,6.854968960E-4,2.674376592E-4,-1.868337393E-2,1.869785790E-2
3.611799167E0,7.534075412E-4,3.947131336E-5,-1.933371648E-2,1.934843079E-2
3.621756167E0,1.782867708E-3,4.369467497E-4,-1.801967062E-2,1.811292547E-2
3.631713167E0,9.650109569E-4,9.456109256E-4,-1.599380374E-2,1.605076896E-2
3.641669167E0,1.944607124E-3,-1.948209479E-3,-1.717811823E-2,1.739726309E-2
3.651626167E0,1.133674523E-3,-2.696824260E-3,-1.632643864E-2,1.658646067E-2
3.661583167E0,4.692927469E-4,-1.367629506E-3,-1.592675224E-2,1.599225072E-2
3.671540167E0,4.948590649E-4,-4.195440561E-4,-1.736459322E-2,1.737670856E-2
3.681497167E0,2.758095507E-4,-4.599681124E-4,-1.814652979E-2,1.815445359E-2
3.691454167E0,1.929898863E-3,1.799990423E-3,-2.027120069E-2,2.044226143E-2
3.701411167E0,1.014752081E-3,1.045968384E-4,-1.821757853E-2,1.824611821E-2
3.711368167E0,-4.886023235E-4,2.428144217E-4,-1.672887057E-2,1.673776573E-2
3.721325167E0,1.658991678E-4,6.147967651E-4,-1.348656602E-2,1.350159104E-2
3.731282167E0,-5.587468622E-4,-1.870812848E-4,-1.459950022E-2,1.461138612E-2
3.741239167E0,-5.087823374E-4,-1.794356853E-3,-1.573662460E-2,1.584676401E-2
3.751196167E0,-2.871538512E-3,-2.228934318E-5,-1.437388361E-2,1.465792482E-2
3.761152167E0,-1.182671404E-3,2.231076360E-3,-1.806301624E-2,1.823866686E-2
3.771109167E0,-2.380481455E-4,2.010566182E-3,-1.780735329E-2,1.792207785E-2
3.781066167E0,7.765623159E-4,1.912726089E-3,-1.603260450E-2,1.616496140E-2
3.791023167E0,1.052998472E-3,1.997148618E-3,-1.522540115E-2,1.539188905E-2
3.800980167E0,2.371062757E-3,6.986809894E-4,-1.567871310E-2,1.587237027E-2
3.810937167E0,4.352109972E-4,1.997238025E-3,-1.673359238E-2,1.685797978E-2
3.820894167E0,2.120584482E-3,1.949260943E-3,-1.937038451E-2,1.958336776E-2
3.830851167E0,-1.515695709E-3,1.722092740E-3,-1.793387532E-2,1.808001164E-2
3.840808167E0,4.786479985E-4,-1.847230829E-3,-1.421846077E-2,1.434593992E-2
3.850765167E0,1.657895744E-3,8.271159604E-4,-1.455854625E-2,1.467596702E-2
3.860722167E0,5.274818977E-4,-5.470402539E-4,-1.670368016E-2,1.672095754E-2
3.870679167E0,5.530482158E-4,-1.661572605E-3,-1.466902345E-2,1.477318297E-2
3.880636167E0,2.979023615E-3,-1.056306064E-3,-1.749711856E-2,1.778031277E-2
3.890592167E0,2.928956412E-3,-1.429947093E-3,-1.818448119E-2,1.847427645E-2
3.900549167E0,7.949090214E-4,-3.413679078E-4,-1.762071252E-2,1.764193646E-2
3.910506167E0,-3.774145152E-4,3.128730692E-3,-1.533998176E-2,1.566034604E-2
3.920463167E0,2.023577923E-3,-1.719865017E-3,-1.264583692E-2,1.292168699E-2
3.930420167E0,9.583134670E-4,1.979798079E-3,-1.385437883E-2,1.402789286E-2
3.940377167E0,5.271733971E-4,-5.653584376E-4,-1.636853069E-2,1.638677329E-2
3.950334167E0,-1.478186809E-3,7.116273046E-4,-1.652592421E-2,1.660715570E-2
3.960291167E0,1.707370160E-3,1.348853111E-4,-1.760487445E-2,1.768798777E-2
3.970248167E0,-2.490037819E-3,2.064611763E-3,-1.637635939E-2,1.669275462E-2
3.980205167E0,1.505525666E-3,7.031513378E-4,-1.348338090E-2,1.358538147E-2
3.990162167E0,-7.624223363E-4,-4.529273137E-4,-1.330175251E-2,1.333128091E-2
4.000119167E0,8.233008557E-4,-3.287531435E-4,-1.550644264E-2,1.553176314E-2
4.010075167E0,-3.405004973E-4,-6.451364607E-4,-1.622203365E-2,1.623842718E-2
4.020032167E0,2.980815247E-3,5.765436217E-4,-1.437903568E-2,1.469606509E-2
4.029989167E0,1.137641491E-3,-4.232069477E-4,-1.700571179E-2,1.704897551E-2
4.039946167E0,9.318690281E-4,-3.493884578E-4,-1.417298801E-2,1.420788659E-2
4.049903167E0,-8.260837058E-4,9.968392551E-4,-1.489816606E-2,1.495431225E-2
4.059860167E0,-8.776176255E-4,-7.651187479E-5,-1.359941717E-2,1.362792039E-2
4.069817167E0,-1.273896080E-3,-1.522874460E-3,-1.249074470E-2,1.264755554E-2
4.079774167E0,3.369473852E-4,6.363978609E-4,-1.463747770E-2,1.465517960E-2
4.089731167E0,9.625239181E-4,-2.070704475E-3,-1.619303040E-2,1.635324136E-2
4.099688167E0,-9.061887395E-4,1.961158589E-3,-1.500051655E-2,1.515529009E-2
4.109645167E0,1.031260937E-3,-1.373118721E-3,-1.471582614E-2,1.481568402E-2
4.119602167E0,3.577600466E-3,1.004025340E-3,-1.414721180E-2,1.462706032E-2
4.129558167E0,7.903359947E-4,-2.489918843E-4,-1.554377284E-2,1.556584408E-2
4.139515167E0,6.218770868E-4,-1.006058417E-3,-1.200552285E-2,1.206364221E-2
4.149472167E0,2.454664558E-3,-1.013249159E-3,-1.450969279E-2,1.475070292E-2
4.159429167E0,-1.180224470E-3,1.067884266E-3,-1.604329050E-2,1.612204939E-2
4.169386167E0,8.562948206E-4,3.301892430E-4,-1.100432314E-2,1.104252659E-2
4.179343167E0,3.706233110E-5,2.560301684E-3,-1.161058899E-2,1.188958767E-2
4.189300167E0,-4.146096762E-4,-2.925276756E-3,-1.286893431E-2,1.320373491E-2
4.199257167E0,1.879198826E-3,1.029180363E-3,-1.504972950E-2,1.520147882E-2
4.209214167E0,1.103686285E-3,1.451558433E-3,-1.535625942E-2,1.546414720E-2
4.219171167E0,1.162439585E-4,-5.388697609E-4,-1.277780905E-2,1.278969497E-2
4.229128167E0,-5.058704410E-4,1.309160143E-4,-1.632567123E-2,1.633403149E-2
4.239085167E0,-6.058835424E-4,-2.815183252E-4,-1.433929708E-2,1.435485242E-2
4.249041167E0,-6.793867797E-4,-8.061612025E-4,-1.260877494E-2,1.265277312E-2
4.258998167E0,-1.923027681E-3,1.502955332E-3,-1.125545893E-2,1.151704241E-2
4.268955167E0,2.044016961E-3,-7.133278996E-4,-1.647898182E-2,1.662058013E-2
4.278912167E0,-5.818682257E-4,-4.694163799E-4,-1.575346291E-2,1.577119260E-2
4.288869167E0,-8.915939834E-4,5.971798673E-4,-1.515904348E-2,1.519697874E-2
4.298826167E0,-1.614307985E-3,7.938202471E-4,-1.432872005E-2,1.444120352E-2
4.308783167E0,-1.957589528E-3,-2.719759941E-4,-1.427359320E-2,1.440977413E-2
4.318740167E0,2.023175126E-3,-6.999531761E-4,-1.238753740E-2,1.257116760E-2
4.328697167E0,-7.331967354E-4,-4.504146054E-4,-1.198326889E-2,1.201412436E-2
4.338654167E0,1.538988436E-3,5.873339251E-4,-1.265447959E-2,1.276124211E-2
4.348611167E0,-1.939632697E-3,-1.668630168E-3,-1.013246551E-2,1.045051956E-2
4.358568167E0,1.549028093E-4,8.564367890E-4,-1.466986164E-2,1.469565648E-2
4.368524167E0,-5.998369306E-4,-3.201477230E-4,-1.572873443E-2,1.574342357E-2
4.378481167E0,-1.805139938E-3,9.167604148E-4,-1.462063380E-2,1.476014608E-2
4.388438167E0,2.019425621E-3,-5.529262125E-5,-1.323925331E-2,1.339249661E-2
4.398395167E0,2.282233909E-3,9.069712833E-4,-1.227877848E-2,1.252196428E-2
4.408352167E0,-4.592242185E-4,-2.061920241E-3,-1.215520874E-2,1.233740254E-2
4.418309167E0,8.764426457E-4,-1.120056026E-3,-1.520469319E-2,1.527106323E-2
4.428266167E0,7.201150875E-4,-1.140828244E-3,-1.312529761E-2,1.319444930E-2
4.438223167E0,-2.130887005E-4,-8.117640391E-4,-1.481951028E-2,1.484325613E-2
4.448180167E0,1.283607795E-3,-4.953797907E-4,-1.618464664E-2,1.624302425E-2
4.458137167E0,-2.672489034E-3,-1.212874427E-3,-1.134932972E-2,1.172265103E-2
4.468094167E0,2.165675862E-3,-2.457201481E-5,-1.138954237E-2,1.159363753E-2
4.478051167E0,-1.279887510E-4,1.746861264E-3,-9.689329192E-3,9.846370173E-3
4.488008167E0,1.493343734E-3,-1.892082393E-3,-1.219403185E-2,1.242998246E-2
4.497964167E0,-1.517249737E-3,4.917932674E-4,-1.452449895E-2,1.461180951E-2
4.507921167E0,6.093957927E-5,1.681161113E-3,-1.436391100E-2,1.446208683E-2
4.517878292E0,-6.635721074E-4,1.885593869E-3,-1.103367191E-2,1.121328266E-2
4.527835292E0,-4.276159452E-4,-8.555976674E-4,-8.445079438E-3,8.499074625E-3
4.537792292E0,6.501785829E-4,3.749812022E-4,-1.208947413E-2,1.211275063E-2
4.547749292E0,2.627043054E-3,5.787126720E-4,-1.080476493E-2,1.113459513E-2
4.557706292E0,-4.948477726E-4,2.045734785E-3,-1.003937796E-2,1.025763203E-2
4.567663292E0,1.885751961E-3,-1.937023364E-3,-1.216324791E-2,1.246004493E-2
4.577620292E0,1.060543349E-3,2.095410600E-4,-1.377170347E-2,1.381406805E-2
4.587577292E0,2.877351828E-3,-1.946021803E-3,-1.323880441E-2,1.368693160E-2
4.597534292E0,2.763242228E-4,4.847804084E-4,-1.400324795E-2,1.401436122E-2
4.607491292E0,2.781027230E-3,1.607569866E-3,-1.397821400E-2,1.434255417E-2
4.617447292E0,1.338110305E-4,-8.393190801E-4,-1.037721429E-2,1.041196131E-2
4.627404292E0,-2.353031887E-4,-9.327959269E-4,-1.142436918E-2,1.146480209E-2
4.637361292E0,5.740908673E-4,-9.294245392E-4,-9.509367868E-3,9.571911385E-3
4.647318292E0,-3.146345261E-3,3.054664470E-3,-1.247985661E-2,1.322789796E-2
4.657275292E0,-2.980144694E-3,-7.704887539E-4,-1.053294633E-2,1.097350781E-2
4.667232292E0,-2.571881749E-3,-2.078367397E-3,-1.210900489E-2,1.255237771E-2
4.677189292E0,7.924772217E-4,-1.680159941E-3,-1.155206375E-2,1.170047582E-2
4.687146292E0,1.757606864E-3,-1.084144227E-3,-1.192703657E-2,1.210449305E-2
4.697103292E0,1.314340741E-3,-2.132439986E-4,-1.199777238E-2,1.207143350E-2
4.707060292E0,-2.313417383E-3,-1.207135618E-3,-1.191388257E-2,1.219629756E-2
4.717017292E0,1.368518104E-3,9.461026639E-5,-1.046048291E-2,1.055004719E-2
4.726974292E0,-1.421409426E-3,-3.365557641E-4,-1.098299399E-2,1.107970358E-2
4.736930292E0,-2.100165933E-3,3.265701234E-4,-9.163122624E-3,9.406389383E-3
4.746887292E0,5.992385559E-5,-1.644168980E-3,-9.154332802E-3,9.301004868E-3
4.756844292E0,-2.326348331E-4,1.212378964E-3,-9.591852315E-3,9.670967508E-3
4.766801292E0,7.886874955E-4,-1.294188201E-3,-1.100359391E-2,1.110747632E-2
4.776758292E0,5.777289625E-4,-9.405463934E-4,-1.280416269E-2,1.285165283E-2
4.786715292E0,8.781335200E-4,3.082425334E-3,-1.128243376E-2,1.172884376E-2
4.796672292E0,1.449704636E-3,-1.594008878E-3,-9.691337124E-3,9.927966714E-3
4.806629292E0,-7.774969563E-4,1.002950594E-4,-8.747512475E-3,8.782569960E-3
4.816586292E0,-1.009185333E-3,-4.595676437E-4,-8.760630153E-3,8.830532155E-3
4.826543292E0,2.029215218E-3,-5.282768980E-4,-9.558779188E-3,9.786064093E-3
4.836500292E0,3.399067558E-3,-1.825739630E-3,-1.173103601E-2,1.234925873E-2
4.846457292E0,-2.189575927E-3,-6.286492571E-4,-1.223117672E-2,1.244150821E-2
4.856414292E0,-2.508447971E-3,4.172790796E-5,-8.065540344E-3,8.446714952E-3
4.866370292E0,-1.996322302E-3,-1.218213700E-3,-8.887391537E-3,9.189944270E-3
4.876327292E0,4.557701759E-4,-3.232443705E-4,-8.028265089E-3,8.047686233E-3
4.886284292E0,-8.494451176E-4,9.992811829E-4,-9.410180151E-3,9.501137320E-3
4.896241292E0,2.972494112E-4,1.324804500E-3,-1.010365784E-2,1.019447723E-2
4.906198292E0,-1.372818835E-3,1.082190312E-3,-1.206214540E-2,1.218815486E-2
4.916155292E0,8.775158785E-4,2.495676279E-3,-1.081166789E-2,1.113061529E-2
4.926112292E0,-5.470089382E-4,3.864523023E-4,-8.746387437E-3,8.771992781E-3
4.936069292E0,1.137150684E-4,9.125731885E-4,-6.639897823E-3,6.703280096E-3
4.946026292E0,7.427536766E-4,1.226825640E-3,-7.998377085E-3,8.125935033E-3
4.955983292E0,-5.758499028E-4,-1.668903045E-3,-9.744029492E-3,9.902673943E-3
4.965940292E0,1.654813765E-3,1.931424253E-3,-1.140983589E-2,1.168987439E-2
4.975896292E0,-1.308597159E-3,6.722444668E-4,-1.352208108E-2,1.360187545E-2
4.985853292E0,7.167367148E-4,4.741046578E-4,-1.156865247E-2,1.160052614E-2
4.995810292E0,-1.907211961E-3,1.028224826E-3,-1.000573300E-2,1.023764605E-2
5.005767292E0,1.847578911E-3,8.617769927E-4,-1.091813296E-2,1.110683730E-2
5.015724292E0,2.364482498E-3,1.828260720E-4,-7.307117805E-3,7.682328649E-3
5.025681292E0,-3.399575362E-4,2.211751416E-4,-8.820859715E-3,8.830178689E-3
5.035638292E0,-6.185726961E-4,6.281025708E-4,-8.215503767E-3,8.262665863E-3
5.045595292E0,1.638641115E-4,3.090195358E-3,-1.132581010E-2,1.174095964E-2
5.055552292E0,3.496201243E-4,-1.407991163E-3,-1.300220378E-2,1.308288869E-2
5.065509292E0,1.738514984E-4,-1.863924786E-3,-1.246797480E-2,1.260772920E-2
5.075466292E0,-3.600007854E-3,1.284293830E-4,-9.143610485E-3,9.827622467E-3
5.085423292E0,-2.161955927E-4,9.561395273E-4,-7.849580608E-3,7.910553650E-3
5.095380292E0,-3.407114651E-3,-1.775586978E-3,-8.986356668E-3,9.773215721E-3
5.105336292E0,1.883254852E-3,-7.518678904E-4,-9.537630714E-3,9.750812982E-3
5.115293292E0,-3.204192035E-5,-1.730048098E-3,-8.365301415E-3,8.542386135E-3
5.125250292E0,8.063211571E-4,-9.175175801E-4,-1.167534292E-2,1.173906404E-2
5.135207292E0,4.819834139E-4,9.181005880E-4,-1.364560798E-2,1.368494917E-2
5.145164292E0,-2.577455947E-3,6.653666496E-4,-9.788818657E-3,1.014430691E-2
5.155121292E0,-3.905338468E-3,1.501551829E-3,-8.907314390E-3,9.841065800E-3
5.165078292E0,-7.396391593E-4,6.125895306E-4,-5.473967642E-3,5.557576249E-3
5.175035292E0,1.803786494E-3,1.681880094E-3,-5.435992032E-3,5.969286033E-3
5.184992292E0,-4.063708475E-4,-1.611384563E-3,-5.235457793E-3,5.492878642E-3
5.194949292E0,-2.075407887E-3,6.733555347E-5,-7.790789939E-3,8.062769986E-3
5.204906292E0,-1.507888082E-3,7.384521887E-4,-9.759132750E-3,9.902510295E-3
5.214863292E0,8.169491775E-5,4.381127656E-5,-1.161963493E-2,1.162000470E-2
5.224819292E0,-4.067288246E-4,-1.011333428E-3,-1.083773002E-2,1.089241092E-2
5.234776292E0,1.632914995E-3,-1.846235245E-3,-1.073102280E-2,1.101044261E-2
5.244733292E0,2.465685364E-3,1.403620467E-3,-8.507816121E-3,8.968427391E-3
5.254690292E0,-4.572930047E-4,-6.722407416E-4,-6.618248299E-3,6.668000829E-3
5.264647292E0,-2.580885775E-4,9.195310995E-4,-8.425736800E-3,8.479692670E-3
5.274604292E0,-1.286837505E-3,1.644808799E-4,-1.198542397E-2,1.205543000E-2
5.284561292E0,1.350224717E-3,-1.248858869E-3,-8.798952214E-3,8.989122056E-3
5.294518292E0,-1.453334582E-3,1.993364654E-3,-1.012452506E-2,1.042073374E-2
5.304475292E0,2.528357320E-3,-1.335853711E-3,-7.320215926E-3,7.858922131E-3
5.314432292E0,1.530422247E-3,-9.004287422E-4,-6.306665950E-3,6.551869929E-3
5.324389292E0,-9.063701145E-4,8.934764192E-4,-6.276839413E-3,6.404570236E-3
5.334346292E0,1.969058998E-3,-1.013354398E-3,-9.257220663E-3,9.518414515E-3
5.344302292E0,1.232218929E-4,-5.243988708E-4,-1.013206970E-2,1.014637936E-2
5.354259292E0,6.253470783E-4,-1.066572033E-3,-1.010515913E-2,1.018051452E-2
5.364216292E0,-1.337935217E-3,5.595544353E-4,-1.007666253E-2,1.018048621E-2
5.374173292E0,-2.034423407E-3,1.772699878E-3,-1.209682878E-2,1.239413611E-2
5.384130292E0,2.050333191E-3,-6.888601929E-4,-8.393169381E-3,8.667392157E-3
5.394087292E0,-7.693532389E-4,9.154183790E-4,-9.464092553E-3,9.539336615E-3
5.404044292E0,-1.733377576E-4,4.408434033E-4,-9.252371266E-3,9.264489351E-3
5.414001292E0,-3.342131386E-4,3.151735291E-4,-8.885396644E-3,8.897263979E-3
5.423958292E0,2.942929277E-4,-8.105449378E-4,-1.143590547E-2,1.146837065E-2
5.433915292E0,-9.524112102E-4,3.049094230E-4,-1.057412010E-2,1.062130278E-2
5.443872292E0,-8.413572796E-4,-3.939047456E-4,-8.722689934E-3,8.772021586E-3
5.453829292E0,1.235137810E-3,-4.300316796E-4,-6.690811366E-3,6.817437157E-3
5.463786292E0,9.349994943E-4,5.465494469E-4,-7.380569354E-3,7.459607519E-3
5.473742292E0,-2.065523760E-3,3.819437698E-4,-8.144050837E-3,8.410578665E-3
5.483699292E0,1.425614115E-3,-6.763963029E-4,-1.112119853E-2,1.123258405E-2
5.493656292E0,1.721572597E-3,1.449193805E-4,-1.395749860E-2,1.406401724E-2
5.503613292E0,4.511268344E-5,-9.648203850E-4,-1.172017679E-2,1.175990890E-2
5.513570292E0,1.590759493E-3,1.317179762E-3,-8.180495352E-3,8.437178586E-3
5.523527167E0,1.028514234E-4,1.092675142E-3,-6.313884631E-3,6.408561189E-3
5.533484167E0,-8.703675121E-4,9.273216128E-4,-5.551624112E-3,5.695436354E-3
5.543441167E0,-9.571865667E-4,-4.764311016E-4,-9.592170827E-3,9.651576757E-3
5.553398167E0,-3.594433656E-4,4.373174161E-4,-1.337355468E-2,1.338552991E-2
5.563355167E0,2.761515090E-3,-2.007997595E-3,-1.369712781E-2,1.411627891E-2
5.573312167E0,3.094004933E-5,7.019378245E-5,-1.229546219E-2,1.229570148E-2
5.583269167E0,2.794768661E-3,-8.555203676E-4,-1.145390421E-2,1.182093772E-2
5.593226167E0,4.180037649E-4,4.045572132E-4,-2.857456915E-3,2.916068193E-3
5.603182167E0,1.592724118E-3,8.796649054E-4,-5.584799685E-3,5.873718412E-3
5.613139167E0,-7.028550608E-4,-9.565949440E-4,-7.387146354E-3,7.481912214E-3
5.623096167E0,2.460293472E-4,6.650034338E-4,-1.056989096E-2,1.059364691E-2
5.633053167E0,1.091812039E-3,1.787045971E-3,-1.116627455E-2,1.136095393E-2
5.643010167E0,-1.516178017E-4,1.089298166E-3,-1.214791648E-2,1.219759949E-2
5.652967167E0,-6.036006380E-5,-1.579446718E-3,-1.189936325E-2,1.200388025E-2
5.662924167E0,-1.045729616E-3,-3.922097385E-4,-8.617017418E-3,8.689094780E-3
5.672881167E0,-1.597386552E-3,-8.051330224E-4,-4.966363311E-3,5.278697521E-3
5.682838167E0,-1.299645053E-3,-6.128521636E-4,-6.493419409E-3,6.650500782E-3
5.692795167E0,-8.194034453E-4,1.958467066E-3,-8.877978660E-3,9.128281347E-3
5.702752167E0,5.635762354E-4,1.643148251E-3,-1.281279791E-2,1.293001720E-2
5.712708167E0,-1.427231589E-3,-1.588830724E-3,-1.114627253E-2,1.134904245E-2
5.722665167E0,1.574949827E-3,-5.661770701E-4,-1.079340372E-2,1.092238927E-2
5.732622167E0,-4.047918133E-3,-1.180609688E-4,-7.208492607E-3,8.268128281E-3
5.742579167E0,-5.354750901E-4,1.628440805E-3,-7.626343518E-3,7.816627693E-3
5.752536167E0,1.270851353E-3,5.558496341E-4,-1.061893813E-2,1.070914932E-2
5.762493167E0,-1.963824034E-3,7.770955563E-6,-1.169165783E-2,1.185544297E-2
5.772450167E0,8.350442513E-4,9.084111080E-4,-1.163527928E-2,1.170052279E-2
5.782407167E0,1.393509097E-3,-4.167780280E-4,-1.193595119E-2,1.202424643E-2
5.792364167E0,2.999986289E-3,1.548420638E-3,-1.019232068E-2,1.073689551E-2
5.802321167E0,2.158161253E-3,-9.395089000E-5,-7.426095195E-3,7.733910822E-3
5.812278167E0,-2.873683581E-3,-2.343626693E-4,-6.277215667E-3,6.907707269E-3
5.822235167E0,1.471529948E-3,8.554020897E-4,-8.487372659E-3,8.656362272E-3
5.832192167E0,8.329060511E-4,-5.192058161E-4,-1.003998145E-2,1.008784094E-2
5.842148167E0,-9.133287240E-4,1.810261048E-3,-1.368238591E-2,1.383180749E-2
5.852105167E0,-2.700338373E-3,-7.514115423E-4,-1.216841489E-2,1.248706401E-2
5.862062167E0,2.025072463E-4,-2.071008086E-3,-1.002190635E-2,1.023565779E-2
5.872019167E0,-6.646383554E-5,6.144000217E-4,-5.785955116E-3,5.818864274E-3
5.881976167E0,1.777508878E-3,-1.190157607E-3,-5.683157593E-3,6.072420701E-3
5.891933167E0,8.117583930E-4,7.566753775E-4,-6.343535148E-3,6.439871698E-3
5.901890167E0,-6.433927920E-4,-1.978124492E-3,-1.064986642E-2,1.085110988E-2
5.911847167E0,5.373189226E-3,-3.812881187E-4,-1.418883819E-2,1.517694542E-2
5.921804167E0,2.557162661E-3,2.084799111E-3,-1.377604809E-2,1.416562632E-2
5.931761167E0,7.283558371E-4,3.039166331E-4,-9.160915390E-3,9.194848466E-3
5.941718167E0,4.692302318E-4,2.281580120E-3,-6.818665192E-3,7.205552016E-3
5.951675167E0,5.682886112E-4,1.178995706E-3,-6.628738716E-3,6.756712203E-3
5.961631167E0,-9.196194587E-4,1.198968850E-3,-3.064896911E-3,3.417136130E-3
5.971588167E0,2.210424282E-4,-4.413081333E-4,-7.483634166E-3,7.499892863E-3
5.981545167E0,-1.994174905E-3,-1.526279375E-3,-1.387202460E-2,1.409749371E-2
5.991502167E0,2.117681317E-3,1.418595202E-3,-1.389675587E-2,1.412858133E-2
6.001459167E0,2.891548211E-4,-7.638651878E-4,-1.071427949E-2,1.074536577E-2
6.011416167E0,-1.906768419E-3,6.867107004E-4,-8.873695508E-3,9.102187064E-3
6.021373167E0,5.223009503E-4,2.686478198E-3,-5.177227780E-3,5.856078114E-3
6.031330167E0,-4.404443316E-4,-8.603464812E-5,-4.420644604E-3,4.443364928E-3
6.041287167E0,3.732682671E-5,1.724116504E-3,-1.046335790E-2,1.060451930E-2
6.051244167E0,2.392717870E-4,9.433478117E-4,-1.094171964E-2,1.098491623E-2
6.061201167E0,-1.142642461E-3,-1.481194049E-3,-1.103439741E-2,1.119184943E-2
6.071158167E0,1.615863643E-3,-1.018954441E-3,-1.311724819E-2,1.325562083E-2
6.081114167E0,-5.125347525E-4,5.786763504E-4,-8.486811072E-3,8.521943461E-3
6.091071167E0,2.912801690E-3,-7.785167545E-4,-5.395678803E-3,6.180926449E-3
6.101028167E0,6.033085519E-4,-1.796110533E-3,-3.809234127E-3,4.254439904E-3
6.110985167E0,1.427203300E-3,-3.730477765E-4,-6.240153685E-3,6.412144097E-3
6.120942167E0,1.865741797E-5,-1.324861310E-3,-7.860153913E-3,7.971049187E-3
6.130899167E0,-1.664186828E-3,1.256032847E-3,-1.197582483E-2,1.215596630E-2
6.140856167E0,-3.087020013E-5,-1.266513951E-3,-1.399343647E-2,1.405066813E-2
6.150813167E0,-4.109649453E-4,6.901100278E-6,-1.138960477E-2,1.139701876E-2
6.160770167E0,-8.748876862E-4,6.263526157E-4,-9.605820291E-3,9.665895174E-3
6.170727167E0,8.485210128E-5,-1.707761548E-3,-6.073624827E-3,6.309720115E-3
6.180684167E0,-2.072308213E-3,-5.511501804E-4,-6.405455060E-3,6.754856207E-3
6.190641167E0,-1.423101639E-4,1.824106090E-3,-7.742478512E-3,7.955726788E-3
6.200598167E0,3.290693276E-4,1.374831423E-3,-1.016116235E-2,1.025902863E-2
6.210554167E0,-2.081847750E-3,-8.015343919E-4,-9.552132338E-3,9.809168142E-3
6.220511167E0,-1.247479580E-3,7.380386814E-4,-6.847159937E-3,6.998893170E-3
6.230468167E0,-7.430987898E-5,-1.269582659E-3,-8.408756927E-3,8.504384466E-3
6.240425167E0,4.426096566E-4,6.526876241E-4,-7.091024891E-3,7.134741652E-3
6.250382167E0,-1.289866283E-3,-2.071788535E-3,-9.050623514E-3,9.373891868E-3
6.260339167E0,2.475577174E-3,5.474593490E-5,-9.645306505E-3,9.958083000E-3
6.270296167E0,-6.767126033E-4,-1.371286809E-3,-1.081122458E-2,1.091883439E-2
6.280253167E0,-1.309479703E-3,-1.307865605E-4,-9.461002424E-3,9.552089253E-3
6.290210167E0,2.772866748E-3,-1.699591987E-3,-1.063283533E-2,1.111910923E-2
6.300167167E0,1.026632031E-3,-2.235686406E-3,-9.659450501E-3,9.967810744E-3
6.310124167E0,-8.570146747E-5,3.704521805E-5,-9.441375732E-3,9.441837364E-3
6.320081167E0,8.685091161E-4,4.730038345E-4,-4.744092003E-3,4.846075695E-3
6.330037167E0,8.030491881E-5,-3.077369183E-3,-8.697466925E-3,9.226189944E-3
6.339994167E0,4.792464897E-4,-6.213784218E-5,-9.038085118E-3,9.050995576E-3
6.349951167E0,1.071435050E-3,8.036755025E-5,-1.213162765E-2,1.217911415E-2
6.359908167E0,7.864768268E-4,4.204539582E-4,-8.831173182E-3,8.876088502E-3
6.369865167E0,8.685961948E-4,2.870101482E-3,-8.113974705E-3,8.650348397E-3
6.379822167E0,-9.665880352E-4,1.547841355E-3,-5.050275475E-3,5.369859185E-3
6.389779167E0,-2.224344062E-4,-1.156982966E-3,-7.284710184E-3,7.379369154E-3
6.399736167E0,2.022344153E-3,-5.268789828E-4,-6.875382736E-3,7.185983935E-3
6.409693167E0,-2.812228631E-4,6.275996566E-4,-1.073456928E-2,1.075657684E-2
6.419650167E0,1.035976689E-3,2.403762192E-4,-1.146267727E-2,1.151190682E-2
6.429607167E0,-4.712123191E-4,-1.220620237E-3,-7.223680615E-3,7.341220365E-3
6.439564167E0,-1.534612500E-3,1.581291668E-3,-5.847359076E-3,6.248770041E-3
6.449521167E0,1.591843786E-3,-1.182287000E-3,-7.666291669E-3,7.918572923E-3
6.459477167E0,6.655963371E-4,1.488863491E-3,-5.213253200E-3,5.462393423E-3
6.469434167E0,-3.497409634E-4,3.105150536E-4,-8.629081771E-3,8.641746962E-3
6.479391167E0,-3.225767286E-4,-3.981525078E-4,-1.090901345E-2,1.092104187E-2
6.489348167E0,5.908031017E-4,6.221216172E-4,-1.375832967E-2,1.378505419E-2
6.499305167E0,1.012647757E-3,-1.374716870E-3,-1.135722362E-2,1.148485221E-2
6.509262167E0,-1.800889848E-3,-1.023534685E-3,-1.023963094E-2,1.044705074E-2
6.519219042E0,1.414078055E-3,1.570442691E-4,-9.187415242E-3,9.296928443E-3
6.529176042E0,-1.221348066E-4,4.384480417E-5,-7.697464898E-3,7.698558640E-3
6.539133042E0,-1.335470937E-3,9.913975373E-4,-9.906822816E-3,1.004547112E-2
6.549090042E0,3.497707658E-4,6.559742615E-4,-9.128682315E-3,9.158901825E-3
6.559047042E0,2.831917955E-4,-2.291079611E-3,-1.187307015E-2,1.209541393E-2
6.569004042E0,1.209797338E-4,-1.803655177E-4,-1.162995398E-2,1.163198166E-2
6.578960042E0,-1.752021490E-3,-1.230716705E-3,-1.077055186E-2,1.098130367E-2
6.588917042E0,8.775855531E-4,-1.070991158E-3,-8.110642433E-3,8.227982690E-3
6.598874042E0,-7.440131158E-4,-1.403086819E-3,-5.239222199E-3,5.474637649E-3
6.608831042E0,-2.929710085E-3,-3.660256043E-4,-5.122896284E-3,5.912803249E-3
6.618788042E0,-2.980310237E-3,4.859194160E-4,-8.997529745E-3,9.490727491E-3
6.628745042E0,4.512764281E-4,-1.833705232E-3,-9.998925962E-3,1.017568895E-2
6.638702042E0,-1.919203321E-3,1.430531032E-3,-9.538731538E-3,9.834488282E-3
6.648659042E0,-6.544769276E-4,2.849320881E-3,-7.557062432E-3,8.102849014E-3
6.658616042E0,1.146440627E-4,-1.230109483E-3,-6.971165538E-3,7.079792480E-3
6.668573042E0,1.105551259E-3,-1.502498053E-3,-5.768673494E-3,6.062783014E-3
6.678530042E0,1.671473030E-3,-8.854428306E-4,-7.168430835E-3,7.413786599E-3
6.688487042E0,3.063797951E-3,-1.136077568E-3,-1.152625866E-2,1.198049118E-2
6.698444042E0,-5.053703208E-4,5.566272885E-4,-1.265277714E-2,1.267509378E-2
6.708400042E0,1.240584534E-4,1.950617880E-4,-9.131773375E-3,9.134698932E-3
6.718357042E0,1.088122837E-3,-1.092843711E-3,-9.385040961E-3,9.510904927E-3
6.728314042E0,-4.471803550E-5,-8.177272975E-4,-6.777322851E-3,6.826623079E-3
6.738271042E0,1.098044333E-3,-1.415873878E-3,-3.436121158E-3,3.875219840E-3
6.748228042E0,6.637265324E-4,1.554748975E-3,-6.246927194E-3,6.471620868E-3
6.758185042E0,1.597164548E-3,-8.117351681E-4,-1.300949138E-2,1.313227758E-2
6.768142042E0,-3.969932441E-4,2.175522968E-4,-1.263777912E-2,1.264588445E-2
6.778099042E0,-1.148803625E-3,-1.150247641E-3,-1.318665594E-2,1.328648615E-2
6.788056042E0,1.008503139E-3,1.755472273E-3,-9.973552078E-3,1.017695940E-2
6.798013042E0,2.003460191E-3,6.441352889E-4,-3.724178299E-3,4.277647369E-3
6.807970042E0,1.192100346E-3,2.066112123E-3,-7.316530682E-3,7.695553506E-3
6.817927042E0,5.545396125E-4,-3.379024565E-5,-6.430230103E-3,6.454185862E-3
6.827883042E0,-9.033946553E-4,1.846817322E-3,-9.596483782E-3,9.814242564E-3
6.837840042E0,-7.731659571E-4,3.629047424E-4,-9.574113414E-3,9.612134680E-3
6.847797042E0,2.592270030E-4,1.892709173E-3,-9.696625173E-3,9.883020105E-3
6.857754042E0,-2.223638119E-3,7.097329944E-4,-7.234534249E-3,7.601761191E-3
6.867711042E0,-1.593455207E-3,7.451688871E-4,-5.976248533E-3,6.229761046E-3
6.877668042E0,3.325428115E-4,6.170701236E-4,-6.741108373E-3,6.777455448E-3
6.887625042E0,-9.655656759E-4,1.252012327E-3,-4.765222780E-3,5.020677254E-3
6.897582042E0,8.182196179E-4,-1.036974601E-3,-1.014880184E-2,1.023440172E-2
6.907539042E0,-1.388433157E-4,7.525132969E-4,-8.983351290E-3,9.015883436E-3
6.917496042E0,-6.850576028E-4,7.916623726E-4,-1.021852531E-2,1.027201502E-2
6.927453042E0,1.055003377E-3,5.934480578E-5,-1.038213074E-2,1.043576507E-2
6.937410042E0,2.105354099E-3,5.028955638E-5,-6.881672889E-3,7.196698317E-3
6.947367042E0,1.432714052E-4,-5.880324170E-4,-6.735246629E-3,6.762385375E-3
6.957323042E0,-1.693244325E-3,-1.108679920E-3,-1.000960357E-2,1.021216976E-2
6.967280042E0,-2.939810278E-3,-1.045913436E-3,-1.063307188E-2,1.108145465E-2
6.977237042E0,-1.295841066E-3,-1.431539655E-3,-1.025809906E-2,1.043825207E-2
6.987194042E0,1.084348420E-3,-3.374931403E-3,-1.085225679E-2,1.141654286E-2
6.997151042E0,5.732877180E-4,-8.758213371E-4,-9.816819802E-3,9.872470453E-3
7.007108042E0,-1.555908239E-3,-9.798370302E-4,-9.444732219E-3,9.622052678E-3
7.017065042E0,1.216097735E-5,-1.789437607E-3,-9.251652285E-3,9.423126066E-3
7.027022042E0,3.202079562E-3,-1.679616049E-3,-9.067095816E-3,9.761488111E-3
7.036979042E0,-4.238141701E-4,9.739575908E-4,-8.928611875E-3,8.991569487E-3
7.046936042E0,9.882122977E-4,8.104173467E-4,-7.250878029E-3,7.362647079E-3
7.056893042E0,-1.044827513E-4,-1.846884377E-3,-7.773124613E-3,7.990204302E-3
7.066850042E0,-1.550418790E-3,1.475505531E-3,-8.370283991E-3,8.639593109E-3
7.076806042E0,2.569491509E-3,1.513818279E-4,-8.638996631E-3,9.014292311E-3
7.086763042E0,1.246721833E-3,6.269076839E-4,-9.793497622E-3,9.892417513E-3
7.096720042E0,-9.657652117E-5,-1.544367522E-3,-5.423251539E-3,5.639685747E-3
7.106677042E0,-2.959361998E-3,2.899918705E-3,-7.274478674E-3,8.371701853E-3
7.116634042E0,1.091323793E-4,8.415896446E-5,-7.125342265E-3,7.126674891E-3
7.126591042E0,3.114282154E-4,-7.640980184E-4,-7.682052441E-3,7.726238608E-3
7.136548042E0,-1.611906802E-3,5.557648838E-4,-8.911632933E-3,9.073275025E-3
7.146505042E0,-1.839373959E-3,2.127490006E-3,-8.891630918E-3,9.325803486E-3
7.156462042E0,-4.441437777E-4,-1.254191622E-3,-7.465774193E-3,7.583405873E-3
7.166419042E0,-4.027384566E-4,1.580463722E-3,-8.697012439E-3,8.848620752E-3
7.176376042E0,4.116562195E-4,-8.952114731E-4,-7.625889033E-3,7.689281369E-3
7.186333042E0,-1.890320098E-3,-5.802419037E-4,-1.065681688E-2,1.083871472E-2
7.196289042E0,3.472679527E-4,-1.505690627E-3,-9.266113862E-3,9.394070758E-3
7.206246042E0,1.644338132E-3,-1.546069980E-3,-9.004035965E-3,9.282609758E-3
7.216203042E0,7.694897358E-4,9.692860767E-4,-4.064671695E-3,4.248904087E-3
7.226160042E0,-1.946717617E-3,3.947861493E-3,-5.550118163E-3,7.083722995E-3
7.236117042E0,-1.313684159E-3,-1.116671599E-3,-7.177043706E-3,7.381238236E-3
7.246074042E0,-5.065288860E-4,-1.220419072E-3,-8.135342970E-3,8.241953620E-3
7.256031042E0,1.718808431E-3,-1.607472077E-4,-8.904198185E-3,9.069999305E-3
7.265988042E0,-2.530639526E-3,-1.050867140E-3,-7.292510942E-3,7.790325666E-3
7.275945042E0,-3.046402708E-5,2.607395872E-4,-5.596343428E-3,5.602497028E-3
7.285902042E0,3.225224558E-3,-4.149507731E-4,-4.120204598E-3,5.248842113E-3
7.295859042E0,-7.816054858E-5,1.362442970E-3,-4.411820322E-3,4.618064364E-3
7.305816042E0,1.346253324E-3,1.338503323E-3,-8.202433586E-3,8.419258037E-3
7.315773042E0,-1.364578260E-3,3.818962723E-4,-9.250653908E-3,9.358553110E-3
7.325729042E0,1.683912822E-3,-1.212796196E-3,-1.138601266E-2,1.157357859E-2
7.335686042E0,2.654634882E-3,-2.271607518E-4,-8.806208149E-3,9.200434246E-3
7.345643042E0,9.216628387E-4,4.734992981E-4,-5.514746532E-3,5.611247035E-3
7.355600042E0,-1.989438431E-3,1.198314130E-4,-5.156286061E-3,5.528065736E-3
7.365557042E0,-3.186061513E-4,-1.546986401E-3,-4.681251943E-3,4.940525940E-3
7.375514042E0,3.876641858E-4,1.322569326E-3,-5.831206217E-3,5.991864409E-3
7.385471042E0,4.607921001E-4,1.203576103E-3,-1.187424734E-2,1.194398069E-2
7.395428042E0,-1.402089139E-3,1.415830106E-3,-1.085478812E-2,1.103616120E-2
7.405385042E0,3.651324660E-4,5.683870986E-4,-9.949022904E-3,9.971932729E-3
7.415342042E0,-7.262309082E-4,-1.737111248E-3,-6.837120280E-3,7.091627496E-3
7.425299042E0,-6.456064293E-4,-1.406982541E-3,-4.862224683E-3,5.102708732E-3
7.435256042E0,9.397733957E-4,-1.177950762E-3,-5.737073720E-3,5.931674038E-3
7.445212042E0,1.656912384E-3,-3.152731806E-4,-4.500579089E-3,4.806242603E-3
7.455169042E0,5.077583482E-4,2.441927791E-6,-9.757125750E-3,9.770328930E-3
7.465126042E0,-7.289396599E-4,-1.430066302E-3,-1.062701270E-2,1.074755049E-2
7.475083042E0,-3.102907212E-4,-9.901914746E-5,-9.464809671E-3,9.470412200E-3
7.485040042E0,1.041785115E-3,-2.769343555E-4,-7.271649316E-3,7.351115061E-3
7.494997042E0,2.094000112E-3,9.816754609E-4,-3.394886851E-3,4.107770674E-3
7.504954042E0,3.647996346E-3,6.071543321E-4,-7.110017352E-3,8.014291014E-3
7.514911042E0,-8.863015100E-4,-4.559792578E-4,-7.663155906E-3,7.727703791E-3
7.524867542E0,-7.862222847E-4,9.307991713E-4,-1.016728953E-2,1.024003461E-2
7.534824542E0,-6.850040518E-5,-7.413998246E-4,-1.298970729E-2,1.301102846E-2
7.544781542E0,-3.122752067E-3,7.909173146E-4,-1.151386462E-2,1.195601142E-2
7.554738542E0,1.046959311E-3,-7.699616253E-4,-4.719074816E-3,4.894755542E-3
7.564695542E0,-1.475731144E-3,-1.319693401E-4,-3.227632493E-3,3.551451791E-3
7.574651542E0,-7.340409793E-4,-1.403096132E-3,-2.700060606E-3,3.130147311E-3
7.584608542E0,-1.099524088E-4,-7.255971432E-4,-7.417108864E-3,7.453327085E-3
7.594565542E0,2.169447020E-3,-3.186358139E-3,-1.227072068E-2,1.286195803E-2
7.604522542E0,1.042722142E-3,5.243970081E-4,-1.091061439E-2,1.097286508E-2
7.614479542E0,-7.354704430E-4,-4.119705409E-4,-8.726556785E-3,8.767179126E-3
7.624436542E0,-1.912493608E-3,8.508907631E-4,-5.988106132E-3,6.343426671E-3
7.634393542E0,1.426311559E-3,8.735274896E-4,-3.401644528E-3,3.790593678E-3
7.644350542E0,6.108888192E-4,3.209933639E-4,-4.903774709E-3,4.952093323E-3
7.654307542E0,-2.803283511E-3,-1.451605931E-3,-6.347207353E-3,7.088906784E-3
7.664264542E0,-1.403478673E-4,-1.893200912E-3,-7.578171790E-3,7.812336071E-3
7.674221542E0,2.253035083E-3,-4.604207352E-4,-1.247252896E-2,1.268274943E-2
7.684178542E0,-6.862618029E-4,9.316001087E-4,-7.758056745E-3,7.843868847E-3
7.694135542E0,1.513775438E-3,-4.961201921E-4,-6.971625611E-3,7.151308620E-3
7.704091542E0,-1.922599971E-3,-1.925245859E-3,-3.710463643E-3,4.601141458E-3
7.714048542E0,-1.478384715E-3,2.984025516E-3,-3.767454997E-3,5.028294621E-3
7.724005542E0,-3.010865767E-4,-1.287609339E-3,-5.472483113E-3,5.629978895E-3
7.733962542E0,1.615856774E-3,1.213631593E-3,-8.861089125E-3,9.088607993E-3
7.743919542E0,-1.432969584E-3,1.666165888E-3,-1.109700650E-2,1.131251802E-2
7.753876542E0,-1.453742268E-3,4.347199574E-4,-1.174894907E-2,1.184652490E-2
7.763833542E0,-1.686099451E-3,-1.480709761E-4,-7.987800986E-3,8.165158967E-3
7.773790542E0,3.615455236E-3,1.688977703E-3,-5.846885964E-3,7.078858505E-3
7.783747542E0,1.115601277E-3,5.485583097E-5,-4.610588774E-3,4.743954491E-3
7.793704542E0,-2.253003186E-4,-2.096712589E-3,-6.757896394E-3,7.079274510E-3
7.803661542E0,-6.577221211E-5,3.037448041E-3,-9.716741741E-3,1.018064274E-2
7.813618542E0,-1.309734769E-3,2.093889751E-3,-9.949235246E-3,1.025119805E-2
7.823575542E0,3.365671728E-4,-1.087716781E-3,-1.384091936E-2,1.388767274E-2
7.833531542E0,-1.675184583E-3,1.227369532E-3,-9.489847347E-3,9.714416196E-3
7.843488542E0,2.554486971E-3,1.978548244E-3,-7.396840490E-3,8.071759788E-3
7.853445542E0,2.075384138E-3,-3.162950277E-3,-7.445576601E-3,8.351531877E-3
7.863402542E0,3.175364109E-4,-6.046239287E-5,-7.817827165E-3,7.824506800E-3
7.873359542E0,1.033127774E-3,7.352903485E-4,-7.475078106E-3,7.581872960E-3
7.883316542E0,-1.727249939E-3,1.487742178E-3,-7.718347013E-3,8.047959353E-3
7.893273542E0,-2.981977304E-4,6.584338844E-4,-1.100602001E-2,1.102972953E-2
7.903230542E0,2.165540587E-3,-1.698060893E-3,-1.175619662E-2,1.207398591E-2
7.913187542E0,2.930721967E-4,2.274047583E-4,-8.555876091E-3,8.563913820E-3
7.923144542E0,8.054499049E-4,1.582861878E-3,-6.580933928E-3,6.816369462E-3
7.933101542E0,1.511112787E-4,-9.655170143E-4,-5.692768842E-3,5.776043180E-3
7.943058542E0,2.110976726E-3,2.882778645E-4,-6.766447797E-3,7.093951132E-3
7.953014542E0,2.125890460E-3,1.898425631E-3,-9.606443346E-3,1.002033851E-2
7.962971542E0,-1.767615671E-3,-8.929995820E-4,-9.114686400E-3,9.327348046E-3
7.972928542E0,-1.430725795E-3,5.086222664E-4,-6.736749783E-3,6.905756335E-3
7.982885542E0,-3.071944928E-3,7.783062756E-4,-6.928618997E-3,7.618947927E-3
7.992842542E0,2.124681370E-3,-5.018757656E-4,-8.582176641E-3,8.855501460E-3
8.002799542E0,-3.691664897E-3,2.278783359E-3,-7.001107559E-3,8.236306839E-3
8.012756542E0,-1.885775477E-3,1.557599753E-3,-7.646923885E-3,8.028555975E-3
8.022713542E0,-1.079172362E-3,1.929689199E-3,-9.469643235E-3,9.724322927E-3
8.032670542E0,-1.289565116E-4,7.459139451E-4,-8.577482775E-3,8.610820411E-3
8.042627542E0,1.876498340E-3,-8.987542242E-5,-7.558967918E-3,7.788922878E-3
8.052584542E0,-1.869237632E-3,7.642004639E-4,-7.236458361E-3,7.512947577E-3
8.062541542E0,-1.112044672E-3,6.187325343E-4,-7.909275591E-3,8.010999543E-3
8.072498542E0,-1.701935078E-3,-6.783008575E-5,-6.932694465E-3,7.138868011E-3
8.082455542E0,4.163419362E-5,-1.156366430E-3,-8.100993931E-3,8.183215713E-3
8.092411542E0,-3.799435217E-5,-2.721239813E-3,-7.777951658E-3,8.240335047E-3
8.102368542E0,2.216923051E-3,6.198277697E-4,-8.896946907E-3,9.189918310E-3
8.112325542E0,-2.691016532E-3,-1.964237541E-3,-8.672442287E-3,9.290374283E-3
8.122282542E0,3.067264799E-3,3.332300112E-4,-4.654094577E-3,5.583883229E-3
8.132239542E0,3.529709065E-4,4.594633356E-4,-9.148977697E-3,9.167305379E-3
8.142196542E0,-6.921220338E-4,-2.853120677E-3,-7.670151070E-3,8.212828255E-3
8.152153542E0,-1.713444362E-3,9.922180325E-4,-8.377753198E-3,8.608550218E-3
8.162110542E0,1.895867172E-3,1.771189272E-3,-7.376829162E-3,7.819784668E-3
8.172067542E0,-6.165590603E-4,2.606436610E-4,-7.708925754E-3,7.737933605E-3
8.182024542E0,-1.961543923E-3,-2.055577934E-4,-7.553418167E-3,7.806666034E-3
8.191981542E0,-1.663749572E-5,6.016464904E-4,-8.946518414E-3,8.966741160E-3
8.201938542E0,2.610502299E-3,-6.415275857E-4,-1.386006456E-2,1.411834514E-2
8.211894542E0,-9.892922826E-4,2.844538540E-4,-9.659993462E-3,9.714684087E-3
8.221851542E0,-1.992880600E-3,1.925628632E-3,-8.489232510E-3,8.930100074E-3
8.231808542E0,-1.677562250E-3,-1.438743435E-3,-6.836207584E-3,7.184562053E-3
8.241765542E0,1.566628227E-3,1.190602779E-5,-4.820283502E-3,5.068490781E-3
8.251722542E0,3.650098806E-4,2.103112638E-4,-4.708696157E-3,4.727502780E-3
8.261679542E0,2.982182894E-3,1.608814113E-3,-1.045520697E-2,1.099058917E-2
8.271636542E0,-7.565866690E-5,-2.175820991E-4,-9.328423999E-3,9.331267894E-3
8.281593542E0,-5.766488612E-4,1.037855633E-3,-1.040965971E-2,1.047715054E-2
8.291550542E0,3.301575780E-4,1.935074106E-3,-6.776041351E-3,7.054661736E-3
8.301507542E0,3.484555054E-5,5.607865751E-5,-6.229331717E-3,6.229681586E-3
8.311464542E0,-4.075055476E-4,-6.848126650E-4,-4.862599075E-3,4.927463741E-3
8.321421542E0,1.063797390E-4,-9.672734886E-4,-4.433516413E-3,4.539053033E-3
8.331378542E0,-3.567439271E-4,-1.178195700E-3,-7.822655141E-3,7.918923209E-3
8.341334542E0,3.019603202E-3,-2.714753151E-3,-9.468471631E-3,1.030241929E-2
8.351291542E0,-5.524947774E-4,1.603562385E-3,-9.508952498E-3,9.659028958E-3
8.361248542E0,6.558697205E-4,-1.680300571E-3,-7.410544902E-3,7.626909652E-3
8.371205542E0,9.834385710E-4,1.306487247E-4,-5.390271544E-3,5.480807225E-3
8.381162542E0,5.013594637E-4,-1.539878547E-3,-5.173048005E-3,5.420610013E-3
8.391119542E0,3.295548027E-3,-1.018963754E-3,-6.516879424E-3,7.373509434E-3
8.401076542E0,2.394669456E-3,1.894524321E-4,-7.693028077E-3,8.059343337E-3
8.411033542E0,-2.966007683E-3,-2.233376727E-4,-6.150258705E-3,6.831746734E-3
8.420990542E0,-2.917109756E-3,-6.871372461E-4,-5.943801254E-3,6.656610269E-3
8.430947542E0,1.405467046E-3,-3.313394263E-4,-6.233818829E-3,6.398876513E-3
8.440904542E0,-1.259010751E-4,1.607735641E-3,-7.191849872E-3,7.370438899E-3
8.450861542E0,2.887998242E-3,4.732292145E-4,-5.825381726E-3,6.519168044E-3
8.460818542E0,9.507943760E-4,1.720253378E-3,-4.123637453E-3,4.568114214E-3
8.470774542E0,-2.494923538E-4,1.029695384E-3,-2.482065931E-3,2.698734945E-3
8.480731542E0,-1.900337520E-3,9.820954874E-4,-4.721485078E-3,5.183455950E-3
8.490688542E0,-9.328111773E-4,-6.789173931E-4,-8.616624400E-3,8.693519516E-3
8.500645542E0,1.481427345E-3,1.436785795E-3,-8.875863627E-3,9.112625062E-3
8.510602542E0,-4.013473168E-3,1.451965421E-3,-7.811132818E-3,8.901121635E-3
8.520559542E0,1.617330825E-3,7.703974843E-4,-5.854770541E-3,6.122712583E-3
8.530516292E0,1.641565585E-3,-1.231767237E-3,-2.990540117E-3,3.627026094E-3
8.540473292E0,2.407341963E-4,1.377147622E-3,-1.396618783E-3,1.976115521E-3
8.550430292E0,1.601343160E-3,-2.876186743E-3,-4.214774817E-3,5.347997462E-3
8.560387292E0,1.426180475E-3,-3.971187398E-3,-6.894277409E-3,8.083030439E-3
8.570344292E0,-1.461218810E-3,7.868157700E-4,-9.819226339E-3,9.958486098E-3
8.580301292E0,-1.528522233E-3,-1.528349705E-3,-8.644154295E-3,8.910310686E-3
8.590258292E0,3.163168672E-3,6.895307451E-4,-6.983406842E-3,7.697341087E-3
8.600214292E0,5.550109781E-4,-1.070668921E-3,-4.457103088E-3,4.617373395E-3
8.610171292E0,1.307353959E-3,-3.416649997E-5,-1.679958776E-3,2.128991126E-3
8.620128292E0,-8.752767462E-4,-6.744898856E-4,-3.461627290E-3,3.633718410E-3
8.630085292E0,1.332623651E-4,1.048308797E-3,-5.472313613E-3,5.573412462E-3
8.640042292E0,7.967093261E-4,6.007989869E-4,-6.498429924E-3,6.574594790E-3
8.649999292E0,-1.112777041E-3,5.621826276E-4,-7.085390389E-3,7.194239294E-3
8.659956292E0,-2.886711620E-3,3.841016442E-4,-3.922060132E-3,4.884996799E-3
8.669913292E0,-9.905411862E-4,-1.145618036E-3,-3.120981157E-3,3.469025210E-3
8.679870292E0,-2.989021596E-4,2.065164968E-3,-2.788975835E-4,2.105239347E-3
8.689827292E0,-1.950388541E-4,1.264618710E-3,-3.391334787E-3,3.624700301E-3
8.699784292E0,-1.059727045E-3,-1.885322854E-3,-8.804101497E-3,9.065851689E-3
8.709741292E0,-7.864867803E-4,-3.766426817E-4,-1.045126654E-2,1.048758282E-2
8.719697292E0,1.156260259E-3,2.752039582E-4,-8.688492700E-3,8.769411634E-3
8.729654292E0,2.601065207E-4,1.773498021E-3,-6.056755781E-3,6.316426302E-3
8.739611292E0,4.957726924E-4,2.007226460E-3,-3.134038299E-3,3.754589816E-3
8.749568292E0,-1.437149476E-3,8.748499677E-4,-2.550005913E-3,3.055043574E-3
8.759525292E0,1.975745661E-3,-1.892773435E-4,-4.078969359E-3,4.536230579E-3
8.769482292E0,1.778938109E-3,-4.393476993E-4,-6.604446098E-3,6.853929928E-3
8.779439292E0,-1.137241488E-3,-1.308209263E-3,-7.128180936E-3,7.335918016E-3
8.789396292E0,1.071584411E-3,-4.743738100E-4,-8.911967278E-3,8.988686468E-3
8.799353292E0,9.693336906E-4,5.620364100E-4,-6.513601169E-3,6.609273252E-3
8.809310292E0,-2.913289005E-3,2.801754512E-3,-6.339697167E-3,7.518566442E-3
8.819267292E0,-9.104448836E-4,-5.810726434E-4,-3.684533760E-3,3.839576061E-3
8.829224292E0,-1.865986967E-3,9.907251224E-4,-5.087487400E-3,5.508717788E-3
8.839181292E0,1.549188746E-4,1.546133310E-3,-5.419049412E-3,5.637430674E-3
8.849137292E0,-8.064823924E-4,-1.842739061E-3,-6.888316944E-3,7.176002468E-3
8.859094292E0,1.489301096E-3,-1.206371002E-3,-7.678404450E-3,7.913990375E-3
8.869051292E0,-4.084676038E-4,-1.937408000E-3,-8.015029132E-3,8.255972840E-3
8.879008292E0,-2.578634070E-3,-6.474452093E-4,-5.860280246E-3,6.435170823E-3
8.888965292E0,3.235579235E-3,8.662948385E-4,-4.152661189E-3,5.335169603E-3
8.898922292E0,-2.943181898E-4,1.107388176E-3,-4.193127155E-3,4.346866355E-3
8.908879292E0,5.243375199E-4,-9.027663618E-4,-4.385139793E-3,4.507700960E-3
8.918836292E0,-1.361518865E-3,1.119525172E-3,-4.424562678E-3,4.762753943E-3
8.928793292E0,-9.026562329E-4,5.962140858E-4,-7.432602346E-3,7.510914534E-3
8.938750292E0,4.079987993E-4,8.452944458E-4,-5.452491343E-3,5.532689000E-3
8.948707292E0,-4.543327959E-4,5.635321140E-4,-2.574412152E-3,2.674244690E-3
8.958664292E0,7.772080135E-4,7.763290778E-4,-5.140416324E-3,5.256483532E-3
8.968621292E0,-7.333368994E-4,2.033874393E-3,-6.077315658E-3,6.450441354E-3
8.978578292E0,5.285117077E-4,1.002464443E-3,-9.059164673E-3,9.129771309E-3
8.988534292E0,-3.072348190E-3,2.519400790E-3,-9.122813120E-3,9.950498630E-3
8.998491292E0,3.015890252E-5,-7.294109091E-4,-8.057972416E-3,8.090974558E-3
9.008448292E0,1.697086263E-4,9.529078379E-4,-4.119157791E-3,4.231346745E-3
9.018405292E0,7.828638190E-4,-2.057278529E-3,-5.747264251E-3,6.154373817E-3
9.028362292E0,1.985662384E-4,2.591386437E-4,-5.699327216E-3,5.708669906E-3
9.038319292E0,1.219651545E-3,-1.238521188E-3,-5.722820759E-3,5.980983369E-3
9.048276292E0,9.466775227E-4,-1.807138324E-4,-9.523684159E-3,9.572325516E-3
9.058233292E0,2.059165156E-3,7.761297747E-4,-9.149517864E-3,9.410431218E-3
9.068190292E0,1.302028541E-3,4.828721285E-5,-7.364401594E-3,7.478771344E-3
9.078147292E0,-2.830945887E-4,4.948461428E-4,-6.313789636E-3,6.339475910E-3
9.088104292E0,-1.248224173E-3,2.689024433E-3,-5.459181964E-3,6.212212465E-3
9.098061292E0,6.088118535E-4,4.350394011E-5,-3.068484366E-3,3.128600449E-3
9.108017292E0,-2.255564323E-4,1.826756634E-3,-5.250146613E-3,5.563448118E-3
9.117974292E0,-5.760629429E-4,-9.119082242E-4,-8.305540308E-3,8.375286559E-3
9.127931292E0,-1.161425724E-3,1.083491370E-4,-8.714068681E-3,8.791794028E-3
9.137888292E0,4.588605370E-4,-1.585164107E-3,-1.046648622E-2,1.059578369E-2
9.147845292E0,2.338234335E-4,-5.204314366E-4,-8.993491530E-3,9.011571017E-3
9.157802292E0,-1.850947039E-3,-1.583320089E-3,-7.164152339E-3,7.566900699E-3
9.167759292E0,9.123489726E-4,-8.144648746E-4,-7.040314376E-3,7.145751199E-3
9.177716292E0,-9.274885524E-4,8.991789073E-4,-3.647124395E-3,3.869143842E-3
9.187673292E0,-1.325098332E-3,-1.986355521E-3,-5.439696833E-3,5.940689816E-3
9.197630292E0,-6.458570715E-4,2.099435776E-3,-4.697998986E-3,5.186131160E-3
9.207587292E0,5.109212361E-5,1.071988605E-3,-7.638130337E-3,7.713157915E-3
9.217544292E0,1.514299540E-3,-2.208205871E-3,-8.832018822E-3,9.228967047E-3
9.227501292E0,7.816639845E-4,1.987071708E-3,-9.016044438E-3,9.265447095E-3
9.237457292E0,1.164220739E-3,-2.050297335E-4,-7.227059454E-3,7.323102858E-3
9.247414292E0,1.855310984E-3,1.863180660E-3,-6.125308573E-3,6.665810238E-3
9.257371292E0,-2.295174636E-4,-5.426248536E-4,-8.389970288E-3,8.410631452E-3
9.267328292E0,-2.049787901E-3,-1.261145808E-3,-6.263701245E-3,6.710146979E-3
9.277285292E0,4.821537295E-4,6.549768150E-4,-9.460911155E-3,9.495804691E-3
9.287242292E0,-1.277130563E-3,2.061658539E-3,-7.417466491E-3,7.803864912E-3
9.297199292E0,-6.258641370E-4,7.040817291E-4,-7.154284045E-3,7.216038886E-3
9.307156292E0,7.651048945E-4,-8.253715932E-4,-6.846422330E-3,6.938308330E-3
9.317113292E0,-8.286165539E-4,-6.837435067E-4,-5.370266736E-3,5.476666448E-3
9.327070292E0,-7.961259689E-4,-1.766774803E-4,-5.700232461E-3,5.758270713E-3
9.337027292E0,1.128443866E-3,-1.784622669E-3,-9.129347280E-3,9.370338595E-3
9.346984292E0,1.132438541E-3,-7.358705625E-4,-6.536759436E-3,6.674814339E-3
9.356941292E0,-2.189328196E-3,1.594166271E-3,-7.568586618E-3,8.038533911E-3
9.366898292E0,-1.374134561E-3,-4.149219021E-4,-4.571463913E-3,4.791522543E-3
9.376854292E0,1.141077722E-3,-2.422770485E-4,-5.307424814E-3,5.434106614E-3
9.386811292E0,1.076895511E-3,-4.952773452E-4,-5.302364007E-3,5.433237308E-3
9.396768292E0,1.598382369E-4,1.747882925E-3,-5.927337334E-3,6.181744968E-3
9.406725292E0,1.402202877E-3,1.372377388E-3,-5.753966048E-3,6.079285969E-3
9.416682292E0,-1.141601242E-3,1.105534844E-3,-8.828852326E-3,8.970735426E-3
9.426639292E0,1.887478167E-3,-7.791845128E-4,-1.190586761E-2,1.207970967E-2
9.436596292E0,-6.353077479E-4,5.060806870E-4,-7.582323626E-3,7.625704240E-3
9.446553292E0,-2.006569412E-3,-1.364257187E-3,-6.645156071E-3,7.074292733E-3
9.456510292E0,-1.127231866E-3,8.568251505E-4,-5.841966718E-3,6.011104404E-3
9.466467292E0,-7.852818817E-4,-6.534541026E-4,-3.672821447E-3,3.812254881E-3
9.476424292E0,1.653464744E-3,-1.179288141E-3,-3.744509071E-3,4.259813888E-3
9.486381292E0,-1.249941997E-4,5.403151736E-4,-5.135744810E-3,5.165601494E-3
9.496338292E0,2.540018177E-4,1.859953627E-3,-5.716251209E-3,6.016599730E-3
9.506294292E0,-2.623851178E-4,2.700462937E-4,-6.398553029E-3,6.409621815E-3
9.516251292E0,-8.626880590E-4,1.535926946E-3,-8.184012026E-3,8.371460751E-3
9.526208208E0,-8.280670736E-4,5.566822365E-4,-9.066583589E-3,9.121322720E-3
9.536165208E0,-5.045939470E-4,-4.738271236E-4,-4.141828045E-3,4.199269788E-3
9.546122208E0,1.108482596E-3,2.393675968E-4,-7.905140519E-3,7.986067689E-3
9.556079208E0,-3.001864534E-4,4.581054673E-4,-4.462201148E-3,4.495688113E-3
9.566036208E0,-1.846417785E-3,1.451464370E-3,-6.226811558E-3,6.655012369E-3
9.575993208E0,-3.921838943E-3,1.142016612E-3,-7.844567299E-3,8.844334839E-3
9.585950208E0,-9.780609980E-5,-2.582734451E-4,-7.129242644E-3,7.134589819E-3
9.595907208E0,-8.065651637E-4,-1.227910630E-3,-6.100511178E-3,6.274914224E-3
9.605864208E0,3.881289158E-4,-9.312350303E-4,-5.358289927E-3,5.452441075E-3
9.615821208E0,1.663022093E-3,-7.522692904E-4,-3.517758101E-3,3.963101516E-3
9.625777208E0,-1.132231904E-3,-5.109868944E-4,-4.563847557E-3,4.729879619E-3
9.635734208E0,1.465015928E-3,-2.372176386E-3,-6.788190454E-3,7.338461836E-3
9.645691208E0,-1.310796943E-3,-7.633613423E-4,-7.643863559E-3,7.792917250E-3
9.655648208E0,-4.707206972E-4,1.489507966E-3,-8.931722492E-3,9.067297206E-3
9.665605208E0,1.105337986E-3,-4.703113809E-4,-6.208639592E-3,6.323778178E-3
9.675562208E0,-6.976890145E-4,-1.508096233E-3,-7.041655481E-3,7.235056055E-3
9.685519208E0,7.923495141E-4,1.079963520E-3,-2.453828231E-3,2.795605827E-3
9.695476208E0,4.899088526E-4,-7.222564891E-4,-3.462748602E-3,3.571035284E-3
9.705433208E0,1.479539438E-3,8.346270770E-4,-5.512051284E-3,5.767872109E-3
9.715390208E0,1.041034004E-3,4.499843344E-4,-4.172395915E-3,4.323785999E-3
9.725347208E0,-6.269038422E-4,1.357588917E-3,-6.944481283E-3,7.103652328E-3
9.735304208E0,-1.703126356E-3,8.231140673E-4,-7.891712710E-3,8.115250190E-3
9.745261208E0,1.275305403E-4,-4.107281566E-4,-6.109526381E-3,6.124644827E-3
9.755218208E0,-1.398308901E-3,-4.105642438E-5,-4.748281091E-3,4.950063306E-3
9.765174208E0,1.037418144E-3,-1.701271161E-3,-2.792987972E-3,3.430938907E-3
9.775131208E0,1.207057852E-3,-8.452329785E-4,-4.835812375E-3,5.055342597E-3
9.785088208E0,-7.527624257E-4,2.240259200E-4,-6.251815706E-3,6.300955365E-3
9.795045208E0,-2.179358155E-3,1.696133986E-4,-6.983349100E-3,7.317481487E-3
9.805002208E0,2.478244249E-3,2.915859222E-4,-6.803587079E-3,7.246758865E-3
9.814959208E0,-1.246344764E-4,-6.248122081E-4,-9.176850319E-3,9.198940473E-3
9.824916208E0,2.842126880E-3,2.043675631E-3,-5.352817476E-3,6.395854143E-3
9.834873208E0,-3.229125869E-4,-1.048422419E-3,-3.730103374E-3,3.888075782E-3
9.844830208E0,7.277044933E-4,1.157740131E-3,-2.772165462E-3,3.091086765E-3
9.854787208E0,7.900588680E-4,7.186550647E-4,-4.318719730E-3,4.448819868E-3
9.864744208E0,-8.879988454E-4,-1.783651300E-3,-3.952004015E-3,4.425865977E-3
9.874701208E0,7.838871097E-4,-7.941368967E-4,-7.557433099E-3,7.639366954E-3
9.884658208E0,-2.318162704E-3,9.084222838E-4,-9.155064821E-3,9.487587747E-3
9.894614208E0,-4.359753802E-6,-8.893348277E-4,-9.878061712E-3,9.918015861E-3
9.904571208E0,-1.881089294E-3,4.267999902E-4,-5.261205137E-3,5.603653688E-3
9.914528208E0,-3.902679309E-4,-1.407897100E-3,-4.512086511E-3,4.742721580E-3
9.924485208E0,-9.756307118E-4,1.159636304E-4,-2.861458808E-3,3.025433747E-3
9.934442208E0,1.857967116E-3,-1.292919740E-3,-3.545589745E-3,4.206529436E-3
9.944399208E0,7.551338058E-5,-1.186126843E-3,-5.358669907E-3,5.488892632E-3
9.954356208E0,-1.148385229E-3,5.574040115E-4,-8.291168138E-3,8.388859098E-3
9.964313208E0,4.851978738E-4,-1.816803589E-3,-8.632319048E-3,8.834767932E-3
9.974270208E0,-1.946699689E-3,-1.969730482E-3,-6.235171109E-3,6.822524211E-3
9.984227208E0,-2.516616136E-3,3.058318049E-3,-4.680151120E-3,6.131107613E-3
9.994184208E0,3.351945197E-4,-1.970056444E-3,-5.206799135E-3,5.577117086E-3
1.000414121E1,1.710983575E-3,1.192181371E-3,-5.626779050E-3,6.000783590E-3
1.001409821E1,-3.092683386E-3,-1.884595491E-3,-7.516298443E-3,8.343328651E-3
1.002405421E1,-1.568146981E-4,4.046577960E-4,-4.993753508E-3,5.012575473E-3
1.003401121E1,-3.522112966E-4,2.830196172E-3,-5.622707307E-3,6.304672920E-3
1.004396821E1,-9.239921346E-4,-1.269473694E-3,-8.989475667E-3,9.125568350E-3
1.005392521E1,-1.893463312E-3,-3.647897393E-4,-2.214541659E-3,2.936404200E-3
1.006388221E1,1.915389672E-3,-1.170928590E-3,-1.893365756E-3,2.936771228E-3
1.007383921E1,9.596972959E-4,-1.440979540E-3,-5.566671491E-3,5.829688879E-3
1.008379621E1,3.263975959E-4,5.649402738E-6,-5.089165643E-3,5.099624912E-3
1.009375321E1,-4.493223038E-3,9.058695287E-4,-8.042234927E-3,9.256737843E-3
1.010371021E1,7.593296468E-4,2.970704809E-4,-7.905080914E-3,7.947020615E-3
1.011366721E1,3.190618008E-5,-7.333466783E-4,-8.485347033E-3,8.517037608E-3
1.012362421E1,1.740057720E-3,-1.603668556E-3,-3.661030903E-3,4.359208756E-3
1.013358121E1,-7.713725790E-4,1.023337245E-5,-1.268554479E-4,7.818009224E-4
1.014353821E1,-6.552587729E-4,-1.710168086E-3,-1.907711849E-3,2.644504384E-3
1.015349521E1,1.526350388E-4,9.510796517E-4,-4.406640306E-3,4.510690496E-3
1.016345121E1,-6.950491806E-4,-3.594625741E-4,-1.038916595E-2,1.041859280E-2
1.017340821E1,-8.560724091E-4,-2.373773605E-4,-8.037690073E-3,8.086635252E-3
1.018336521E1,-6.270406302E-4,-2.001188695E-3,-5.926867947E-3,6.286946779E-3
1.019332221E1,-3.046984784E-4,2.725834027E-3,-3.096722066E-3,4.136749915E-3
1.020327921E1,-1.208309084E-3,-1.109670848E-5,-2.343844622E-3,2.636994803E-3
1.021323621E1,-4.448182881E-5,2.674007788E-3,-5.054986104E-3,5.718844359E-3
1.022319321E1,-1.574734226E-3,-7.550781593E-4,-1.061726362E-2,1.075993576E-2
1.023315021E1,2.150714863E-4,-2.946554683E-3,-1.113164611E-2,1.151703023E-2
1.024310721E1,-2.792169806E-3,-4.921853542E-4,-5.480684340E-3,6.170604466E-3
1.025306421E1,-2.529124031E-3,1.536631957E-3,-1.685148105E-3,3.405500003E-3
1.026302121E1,-7.768440992E-5,6.844205782E-4,-3.384776413E-3,3.454153697E-3
1.027297821E1,-3.003655234E-3,2.465929836E-3,-3.689153120E-3,5.358414454E-3
1.028293521E1,-5.333069712E-4,1.143936999E-3,-4.341362044E-3,4.521109663E-3
1.029289121E1,2.142041922E-6,6.771981716E-4,-8.495518938E-3,8.522467012E-3
1.030284821E1,4.436941817E-4,-8.136387914E-4,-1.149477065E-2,1.153206941E-2
1.031280521E1,-3.055691486E-4,1.154359430E-3,-7.999883965E-3,8.088514180E-3
1.032276221E1,5.439792294E-4,3.583170474E-5,-4.077313468E-3,4.113597261E-3
1.033271921E1,1.760173123E-3,7.638484240E-4,9.602736682E-4,2.145646606E-3
1.034267621E1,-1.171700889E-3,1.665062271E-3,9.014178067E-4,2.226627361E-3
1.035263321E1,1.436785795E-3,3.272751346E-4,-5.465885624E-3,5.661039489E-3
1.036259021E1,-1.514263102E-3,9.062457830E-4,-6.770035252E-3,6.996259820E-3
1.037254721E1,-7.309636567E-5,-3.986209631E-4,-9.373100474E-3,9.381857719E-3
1.038250421E1,-1.512002433E-3,5.715684965E-4,-8.329408243E-3,8.484803096E-3
1.039246121E1,-1.865908387E-3,-4.649404436E-4,-3.860292956E-3,4.312730624E-3
1.040241821E1,-1.659779693E-3,-1.354170032E-3,-2.171050757E-3,3.049935490E-3
1.041237521E1,8.646665374E-4,2.053432167E-3,-2.617256716E-3,3.437188473E-3
1.042233221E1,-1.691725338E-4,1.086439006E-3,-1.935221255E-3,2.225769612E-3
1.043228821E1,5.491392221E-5,-1.174097881E-3,-7.386339828E-3,7.479273857E-3
1.044224521E1,-4.976863042E-3,1.276276074E-3,-8.856404573E-3,1.023884507E-2
1.045220221E1,-1.700317953E-3,-1.791758463E-3,-9.281452745E-3,9.604522091E-3
1.046215921E1,-8.864558768E-4,-1.184949651E-4,-4.376707599E-3,4.467148361E-3
1.047211621E1,9.655855829E-4,1.580001786E-3,-4.860289395E-3,5.201074328E-3
1.048207321E1,-6.871721707E-4,-1.283455640E-5,-3.144681454E-3,3.218911581E-3
1.049203021E1,1.494859345E-3,1.902598888E-3,-4.442973062E-3,5.059100377E-3
1.050198721E1,-1.063106814E-3,8.682273328E-4,-5.258966237E-3,5.435139436E-3
1.051194421E1,-1.359613379E-4,1.306105405E-4,-8.640408516E-3,8.642465153E-3
1.052190121E1,2.496644156E-4,-4.249438643E-5,-8.920572698E-3,8.924166928E-3
1.053185854E1,-3.073786618E-3,2.317307517E-4,-7.372252643E-3,7.990742916E-3
1.054181554E1,-3.043959150E-3,-1.572560519E-3,-3.141820431E-3,4.648620173E-3
1.055177254E1,1.551587600E-3,5.788970739E-4,8.502490819E-4,1.861577128E-3
1.056172854E1,9.909921791E-4,-4.307068884E-4,-3.009203821E-3,3.197324125E-3
1.057168554E1,-1.342289383E-3,-1.821471378E-4,-4.955384880E-3,5.137193561E-3
1.058164254E1,5.134276580E-5,-1.282565296E-3,-7.218006998E-3,7.331250565E-3
1.059159954E1,-2.343688859E-3,1.727836207E-3,-7.039582357E-3,7.618005985E-3
1.060155654E1,1.969300443E-3,-1.357702538E-3,-6.687778980E-3,7.102667675E-3
1.061151354E1,3.932091640E-4,-7.508182898E-4,-8.270481601E-3,8.313796213E-3
1.062147054E1,2.190384548E-4,-9.670667350E-4,-3.684783354E-3,3.815864815E-3
1.063142754E1,-3.724107519E-4,-6.476975977E-5,-6.792973727E-3,6.803482707E-3
1.064138454E1,6.339977845E-4,-3.416357562E-3,-4.832088947E-3,5.951683441E-3
1.065134154E1,3.326660488E-3,9.312964976E-4,-6.677687168E-3,7.518343507E-3
1.066129854E1,2.025061985E-4,6.763357669E-5,-8.614603430E-3,8.617248709E-3
1.067125554E1,-2.629973227E-3,-1.922225580E-3,-6.776968017E-3,7.519242373E-3
1.068121254E1,2.891175682E-4,7.214946672E-4,-7.207334042E-3,7.249124603E-3
1.069116854E1,-6.787544116E-4,8.109463379E-4,-8.495533839E-3,8.561100205E-3
1.070112554E1,7.819894236E-4,-6.356826052E-4,-4.929294810E-3,5.031257015E-3
1.071108254E1,1.117719337E-3,3.525456414E-4,-4.020405933E-3,4.187749851E-3
1.072103954E1,-3.134017345E-3,6.146170199E-5,-5.106709898E-3,5.992022049E-3
1.073099654E1,1.762094907E-4,1.621516421E-4,-2.379739657E-3,2.391757466E-3
1.074095354E1,2.665466163E-3,-5.039051175E-4,-3.508919850E-3,4.435216877E-3
1.075091054E1,-1.268391497E-4,8.843904361E-4,-7.125174627E-3,7.180971249E-3
1.076086754E1,-3.177878680E-4,5.024932325E-4,-4.589579999E-3,4.627929683E-3
1.077082454E1,-1.338009024E-3,7.672067732E-4,-5.531333387E-3,5.742344767E-3
1.078078154E1,9.975832654E-4,1.051366329E-3,-6.002979353E-3,6.175459873E-3
1.079073854E1,-1.116098370E-3,1.759985462E-4,-5.337303504E-3,5.455589772E-3
1.080069554E1,-4.391230177E-4,-2.283431590E-3,-4.568982869E-3,5.126645425E-3
1.081065254E1,2.243230119E-3,-8.854940534E-4,-5.035940558E-3,5.583625918E-3
1.082060954E1,2.128361957E-4,8.123274893E-5,-5.770707503E-3,5.775202429E-3
1.083056554E1,1.528306166E-4,-8.112061769E-4,-3.981908783E-3,4.066572293E-3
1.084052254E1,-8.552230429E-5,-5.898978561E-4,-3.786966205E-3,3.833589256E-3
1.085047954E1,3.192140488E-3,-1.516169868E-3,-7.314926013E-3,8.123833734E-3
1.086043654E1,-1.109929988E-3,-1.622696407E-3,-7.717596367E-3,7.964068175E-3
1.087039354E1,-1.886442886E-3,1.034233719E-4,-7.533062249E-3,7.766362727E-3
1.088035054E1,-4.968052963E-4,4.376843572E-5,-4.651255906E-3,4.677917558E-3
1.089030754E1,1.060696552E-3,-3.817081451E-4,-6.639696658E-3,6.734712317E-3
1.090026454E1,8.495079819E-4,-1.666950062E-3,-7.280454040E-3,7.517007207E-3
1.091022154E1,-3.859845456E-4,-9.975004941E-4,-4.960451275E-3,5.074452498E-3
1.092017854E1,1.775969635E-3,-1.869153231E-3,-5.179364234E-3,5.785638756E-3
1.093013554E1,-1.304373145E-4,-1.008164138E-3,-4.341039807E-3,4.458479048E-3
1.094009254E1,-1.294771209E-3,1.572351903E-4,-8.362678811E-3,8.463778842E-3
1.095004954E1,4.574435297E-4,-1.101427712E-3,-5.908420309E-3,6.027588916E-3
1.096000554E1,-3.072576365E-3,-8.375085890E-4,-4.745418206E-3,5.714992572E-3
1.096996254E1,-3.233583411E-4,-1.924271695E-3,-3.001037985E-3,3.579610476E-3
1.097991954E1,6.795880618E-4,-1.298962161E-3,-1.735771075E-3,2.272013172E-3
1.098987654E1,-1.049911371E-4,-1.861015335E-4,-4.820547998E-3,4.825281331E-3
1.099983354E1,-3.534641583E-4,1.958807930E-3,-5.418160930E-3,5.772203503E-3
1.100979054E1,8.998676785E-4,7.898267359E-4,-5.462504923E-3,5.592186348E-3
1.101974754E1,-9.555565193E-4,-7.875636220E-4,-6.159454584E-3,6.282692535E-3
1.102970454E1,-2.810997656E-3,-3.675539047E-4,-2.530002967E-3,3.799699818E-3
1.103966154E1,-3.891310189E-5,-5.651600659E-4,-2.406964079E-3,2.472730516E-3
1.104961854E1,-9.259535000E-5,-1.941525377E-3,-3.110952675E-3,3.668258611E-3
1.105957554E1,1.426738105E-3,6.191041321E-4,-5.846286193E-3,6.049622616E-3
1.106953254E1,-8.291458944E-4,2.906940877E-3,-7.196787745E-3,7.805865873E-3
1.107948954E1,2.983968239E-3,-9.679580107E-4,-7.678287104E-3,8.294401848E-3
1.108944654E1,1.020936645E-3,3.565642983E-4,-7.165541872E-3,7.246684763E-3
1.109940254E1,4.792496329E-4,-7.952535525E-4,-4.691198468E-3,4.782201532E-3
1.110935954E1,-9.574899450E-4,1.987154596E-3,-1.987969503E-3,2.969443235E-3
1.111931654E1,-1.938864822E-3,-2.325301990E-3,-2.659086138E-3,4.029511786E-3
1.112927354E1,-7.209635805E-4,-1.816106960E-3,-2.954352647E-3,3.542066140E-3
1.113923054E1,2.737272298E-4,-1.767104492E-3,-5.546407774E-3,5.827540139E-3
1.114918754E1,1.732438104E-4,1.875977032E-3,-7.111391053E-3,7.356710266E-3
1.115914454E1,-8.976133540E-4,-4.521580413E-4,-6.266104057E-3,6.346197025E-3
1.116910154E1,2.533498919E-4,2.591420896E-3,-3.178087994E-3,4.108514541E-3
1.117905854E1,-3.794173244E-4,6.976472214E-4,-2.181001008E-3,2.321084778E-3
1.118901554E1,-7.577486103E-4,-1.473026350E-3,-3.563990816E-3,3.930142507E-3
1.119897254E1,8.729049005E-4,6.271423772E-4,-3.174372017E-3,3.351403919E-3
1.120892954E1,-7.863813080E-4,-8.422322571E-5,-5.547061563E-3,5.603158136E-3
1.121888654E1,-9.387140162E-4,6.468147039E-4,-8.042177185E-3,8.122571461E-3
1.122884354E1,8.327615215E-4,-1.817308366E-4,-8.671361953E-3,8.713153044E-3
1.123879954E1,5.960065173E-4,-1.662980765E-3,-5.295272917E-3,5.582171984E-3
1.124875654E1,-1.700775116E-3,1.437962055E-4,-3.817424178E-3,4.181631344E-3
1.125871354E1,-1.654702588E-3,-1.797115430E-3,-2.290634438E-3,3.348831237E-3
1.126867054E1,2.293901518E-3,1.011290587E-3,-2.706315368E-3,3.689015546E-3
1.127862754E1,-2.764240373E-3,-2.140300348E-4,-4.979057238E-3,5.698933643E-3
1.128858454E1,2.081567654E-4,1.400746405E-4,-5.425916985E-3,5.431714763E-3
1.129854154E1,-4.963728134E-5,2.663079649E-4,-7.747927681E-3,7.752661939E-3
1.130849854E1,9.566289955E-4,8.134096861E-4,-4.831388593E-3,4.991902452E-3
1.131845554E1,-1.232755603E-3,1.268809661E-3,-2.775162458E-3,3.291062291E-3
1.132841254E1,1.772241085E-3,-1.421788707E-3,-4.047712311E-3,4.641798848E-3
1.133836954E1,3.296067007E-4,-8.840970695E-4,-6.818730384E-3,6.883701930E-3
1.134832654E1,1.817891025E-3,-1.222699881E-3,-7.786141708E-3,8.088493400E-3
1.135828354E1,7.302560844E-4,3.877133131E-4,-7.321154699E-3,7.367693105E-3
1.136823954E1,8.672045078E-5,-7.318500429E-4,-6.988491863E-3,7.027242947E-3
1.137819654E1,1.047588885E-3,-1.472858712E-4,-4.098163918E-3,4.232503171E-3
1.138815354E1,2.642191015E-3,-1.228873618E-3,-5.306171253E-3,6.053656507E-3
1.139811054E1,6.035411498E-4,-8.451286703E-5,-4.744775593E-3,4.783753733E-3
1.140806754E1,1.812969451E-3,-5.137613043E-4,-4.368519410E-3,4.757601365E-3
1.141802454E1,9.663505480E-4,-3.048824146E-3,-6.265487522E-3,7.034592806E-3
1.142798154E1,5.543297157E-4,-4.489291459E-4,-7.792271674E-3,7.824852500E-3
1.143793854E1,1.268923515E-4,5.103414878E-4,-4.305394366E-3,4.337392160E-3
1.144789554E1,-2.000107197E-3,-8.507687598E-4,-3.894392401E-3,4.459879870E-3
1.145785254E1,-3.981765360E-3,5.143675953E-4,-1.451209188E-3,4.269079234E-3
1.146780954E1,9.236440528E-4,7.808618248E-4,-1.898253337E-3,2.250828571E-3
1.147776654E1,-8.734569419E-4,-1.897744834E-3,-5.586998537E-3,5.964806379E-3
1.148772354E1,-1.448127441E-4,-3.078011796E-4,-6.257068366E-3,6.266308070E-3
1.149768054E1,-1.944843447E-3,-1.875869930E-3,-5.385149270E-3,6.025042464E-3
1.150763654E1,-1.878847601E-3,9.277034551E-4,-3.729701042E-3,4.278010270E-3
1.151759354E1,1.492630690E-5,1.171915792E-3,-3.787225112E-3,3.964427256E-3
1.152755096E1,-1.986566465E-3,3.183679655E-4,-3.804095089E-3,4.303364257E-3
1.153750796E1,-8.760283235E-4,2.694440074E-3,-1.606721431E-3,3.257143947E-3
1.154746496E1,-2.629556926E-3,-6.803981960E-4,-2.573361620E-3,3.741617479E-3
1.155742196E1,1.656268141E-3,-7.059639320E-4,-5.299905315E-3,5.597374883E-3
1.156737896E1,2.206947887E-3,-1.908857375E-4,-6.417902187E-3,6.789442158E-3
1.157733596E1,2.102530561E-5,9.369626641E-4,-4.052482545E-3,4.159441775E-3
1.158729296E1,-2.811714541E-3,1.561673358E-3,-3.439988941E-3,4.709361555E-3
1.159724996E1,9.219616186E-5,2.051961608E-3,-2.415310591E-4,2.068183702E-3
1.160720696E1,1.530909562E-3,-6.646784022E-4,-4.281260073E-3,4.595070106E-3
1.161716396E1,-2.062704880E-4,-1.250840724E-3,-8.419547230E-3,8.514453922E-3
1.162712096E1,-8.602768648E-4,-1.804392785E-3,-5.510352552E-3,5.861731387E-3
1.163707796E1,9.206950199E-5,4.747407511E-4,-7.396936417E-3,7.412727158E-3
1.164703396E1,9.244359680E-4,-7.238257676E-4,-5.536487326E-3,5.659611074E-3
1.165699096E1,7.747663185E-4,-1.079357229E-3,-4.599319771E-3,4.787381041E-3
1.166694796E1,7.211184129E-5,-8.553937078E-4,-1.287696883E-3,1.547598713E-3
1.167690496E1,-5.324258236E-4,7.851133123E-4,-3.425948322E-3,3.554856126E-3
1.168686196E1,-1.714043319E-3,-6.458349526E-4,-5.814567208E-3,6.096247953E-3
1.169681896E1,-8.192211390E-4,4.164995626E-4,-5.498982966E-3,5.575249664E-3
1.170677596E1,-1.503320877E-3,-1.598645002E-3,-7.664572448E-3,7.972534748E-3
1.171673296E1,3.518722951E-5,-1.055627130E-3,-4.954539239E-3,5.065870691E-3
1.172668996E1,3.337493399E-4,-6.093764678E-4,-4.219364375E-3,4.276185687E-3
1.173664696E1,-3.509494709E-4,4.447028041E-4,-3.821486607E-3,3.863248116E-3
1.174660396E1,-1.717553707E-3,-1.301165670E-3,-4.395155236E-3,4.894937424E-3
1.175656096E1,-4.099416547E-4,-8.449666202E-4,-4.930717871E-3,5.019362456E-3
1.176651796E1,7.337746792E-4,-2.028245479E-3,-2.098614350E-3,3.009383191E-3
1.177647396E1,-1.164792804E-3,6.659701467E-5,-5.569245666E-3,5.690138375E-3
1.178643096E1,-1.429538708E-3,2.126707695E-3,-3.690989688E-3,4.493314080E-3
1.179638796E1,-4.549382720E-5,-8.544353768E-4,-3.668086603E-3,3.766561938E-3
1.180634496E1,-4.548213910E-4,4.111817107E-4,-5.879869685E-3,5.911751044E-3
1.181630196E1,-2.953398973E-3,1.211994328E-3,-2.462767065E-3,4.031961974E-3
1.182625896E1,-9.905365296E-4,1.174420118E-3,-3.792263567E-3,4.091660811E-3
1.183621596E1,5.048285238E-4,-1.036270522E-3,-7.125740871E-3,7.218371796E-3
1.184617296E1,1.828329056E-3,-2.680128440E-3,-4.349600524E-3,5.426315537E-3
1.185612996E1,8.586720796E-4,1.265769824E-4,-5.046017468E-3,5.120120288E-3
1.186608696E1,1.570859458E-4,-2.948721871E-3,-3.363613039E-3,4.475883080E-3
1.187604396E1,-1.245334744E-3,6.864927709E-4,-4.798257723E-3,5.004538753E-3
1.188600096E1,6.532059633E-4,-8.784616366E-4,-3.501571715E-3,3.668702407E-3
1.189595796E1,1.528320718E-3,3.053136170E-4,-5.414519459E-3,5.634359022E-3
1.190591496E1,-1.262556063E-3,-1.001100987E-3,-4.792394117E-3,5.056015463E-3
1.191587196E1,1.007161336E-4,-9.627519175E-4,-2.010455355E-3,2.231359614E-3
1.192582796E1,-3.354569199E-4,-1.890973188E-3,-1.710159704E-3,2.571567062E-3
1.193578496E1,-7.328005740E-4,-1.931453124E-3,-3.737891093E-3,4.270753759E-3
1.194574196E1,-4.050985444E-4,-3.003330901E-3,-4.891823977E-3,5.754480268E-3
1.195569896E1,9.432599763E-4,1.044407487E-3,-5.579985678E-3,5.754716896E-3
1.196565596E1,-1.800206723E-3,1.439400949E-3,-2.854416147E-3,3.668829633E-3
1.197561296E1,-1.976774307E-3,8.923867717E-4,-1.495670527E-3,2.634581776E-3
1.198556996E1,2.641134430E-3,-3.030318767E-4,-1.709356904E-3,3.160588619E-3
1.199552696E1,-1.218952239E-4,3.865174949E-5,-1.038240269E-3,1.046085684E-3
1.200548396E1,3.714280901E-4,1.080879010E-3,-4.211949185E-3,4.364261014E-3
1.201544096E1,1.078763744E-3,2.007126808E-3,-6.906801835E-3,7.272977439E-3
1.202539796E1,4.957829369E-4,-4.260707647E-4,-6.846601143E-3,6.877738308E-3
1.203535496E1,1.136192586E-4,-5.714790896E-4,-4.986649379E-3,5.020574640E-3
1.204531196E1,2.752803965E-3,9.694118053E-4,-5.678407848E-3,6.384512871E-3
1.205526796E1,9.948513471E-4,-9.094486013E-4,8.886810392E-4,1.614490616E-3
1.206522496E1,2.734511625E-3,1.382445917E-4,-1.277210191E-3,3.021246641E-3
1.207518196E1,-1.986740623E-3,-2.830646932E-3,-2.143269405E-3,4.068575193E-3
1.208513896E1,-2.285101684E-3,-8.815247566E-5,-3.682577983E-3,4.334840385E-3
1.209509596E1,9.272031020E-4,-7.153265178E-4,-5.089793354E-3,5.222776466E-3
1.210505296E1,-9.158377070E-4,-1.458751969E-3,-4.864374176E-3,5.160315120E-3
1.211500996E1,7.555622142E-4,1.631047577E-3,-1.893885434E-3,2.611128586E-3
1.212496696E1,-1.687250100E-3,1.063845120E-3,-2.368392423E-3,3.096427297E-3
1.213492396E1,-5.410255399E-4,-6.027612835E-4,4.308577627E-4,9.174247715E-4
1.214488096E1,9.549684473E-4,-4.178062081E-4,-1.779099926E-3,2.061970735E-3
1.215483796E1,4.226025194E-4,-2.818647772E-5,-6.037760526E-3,6.052597751E-3
1.216479496E1,-9.526491631E-4,-6.740037352E-4,-5.713388324E-3,5.831348695E-3
1.217475196E1,-1.843210310E-3,-7.505901158E-5,-3.914423287E-3,4.327328017E-3
1.218470896E1,-6.858722772E-4,1.408443786E-3,-2.336449921E-3,2.813029135E-3
1.219466496E1,-6.541807670E-4,-1.102118753E-3,-8.884891868E-4,1.559497117E-3
1.220462196E1,-9.433660889E-4,4.952661693E-4,-1.302698627E-3,1.682929550E-3
1.221457896E1,2.268139739E-3,-3.861398436E-3,-4.330713302E-3,6.229761910E-3
1.222453596E1,-2.638258738E-4,2.153301612E-4,-4.538621753E-3,4.551379856E-3
1.223449296E1,7.516374462E-4,2.135469578E-3,-5.055274814E-3,5.539042572E-3
1.224444996E1,1.136334613E-4,1.640859991E-3,-4.545716569E-3,4.834136241E-3
1.225440696E1,1.495547709E-3,-1.863860525E-3,-1.582417637E-3,2.866127106E-3
1.226436396E1,-5.578349810E-4,6.759213284E-4,-1.054530963E-3,1.371161938E-3
1.227432096E1,-1.585548744E-3,2.257306129E-3,-2.837251872E-3,3.957195214E-3
1.228427796E1,1.917964546E-3,4.345579073E-4,-2.882130444E-3,3.489140936E-3
1.229423496E1,-7.294839015E-4,5.900859833E-4,-4.324499518E-3,4.425115175E-3
1.230419196E1,-1.068777638E-3,-3.478871658E-4,-6.669847295E-3,6.763887496E-3
1.231414896E1,-3.369409824E-4,5.970029160E-4,-1.609308645E-3,1.749232981E-3
1.232410596E1,1.967086224E-3,5.285814404E-5,-2.111878246E-3,2.886564034E-3
1.233406196E1,-2.209815662E-3,1.837175339E-3,1.778734848E-3,3.379703559E-3
1.234401896E1,2.164690755E-3,-8.871974424E-4,-1.522012055E-3,2.790972243E-3
1.235397596E1,-1.903820434E-3,1.632684842E-3,-4.559081048E-3,5.203403889E-3
1.236393296E1,5.984851159E-4,3.205342218E-4,-7.563417777E-3,7.593827434E-3
1.237388996E1,-4.092551535E-4,-2.242491581E-3,-5.802001804E-3,6.233737499E-3
1.238384696E1,8.982932195E-5,-3.114529885E-3,-4.077544436E-3,5.131737945E-3
1.239380396E1,-1.282763900E-3,2.134218812E-5,2.910589799E-3,3.180797336E-3
1.240376096E1,-2.931648865E-3,4.099197686E-4,8.478462696E-4,3.079195119E-3
1.241371796E1,-1.681910362E-5,2.061882988E-4,-1.841299236E-4,2.769482362E-4
1.242367496E1,2.041776665E-3,-2.015909180E-3,-6.495492533E-3,7.100997466E-3
1.243363196E1,2.622079337E-3,-1.367824152E-4,-5.921848118E-3,6.477831012E-3
1.244358896E1,-1.198988175E-4,9.596459568E-4,-5.582571030E-3,5.665721083E-3
1.245354596E1,-2.625401132E-3,-7.421141490E-4,-1.654941589E-3,3.190971039E-3
1.246350296E1,1.513076597E-3,1.264607534E-3,6.418433040E-4,2.073787798E-3
1.247345896E1,-1.420927932E-3,-7.549487054E-5,-1.270119101E-4,1.428589406E-3
1.248341596E1,-5.357628688E-4,-1.090751961E-3,-7.270984352E-4,1.416140468E-3
1.249337296E1,2.030725591E-3,1.498106867E-3,-2.708757296E-3,3.702098959E-3
1.250332996E1,-1.077274093E-3,2.973340452E-5,-4.758786410E-3,4.879288026E-3
1.251328696E1,1.085212687E-3,8.752867579E-4,-7.355369627E-3,7.486339282E-3
1.252324396E1,-1.780687599E-4,-1.542998478E-3,-3.830444068E-3,4.133382942E-3
1.253320104E1,-8.507831953E-4,-1.754658297E-4,-4.580922425E-3,4.662560516E-3