"Time (s)","Gyroscope x (rad/s)","Gyroscope y (rad/s)","Gyroscope z (rad/s)","Absolute (rad/s)"
-1.068916667E-3,-2.074112184E-3,2.422140911E-3,1.329495162E-1,1.329877534E-1
8.886083335E-3,-3.005965613E-3,1.977871172E-3,1.324299425E-1,1.324788190E-1
1.884208333E-2,-6.136478623E-4,2.419156954E-3,1.390612125E-1,1.390836069E-1
2.879808333E-2,-1.840687939E-3,1.284524798E-3,1.436134279E-1,1.436309674E-1
3.875408334E-2,-2.932850271E-3,2.078088000E-4,1.484563798E-1,1.484854925E-1
4.871008333E-2,-1.438006759E-3,2.342686057E-4,1.492278129E-1,1.492349251E-1
5.866608334E-2,4.126238637E-4,1.901140437E-3,1.520718038E-1,1.520842467E-1
6.862208333E-2,-1.444621244E-3,4.208370112E-3,1.541568935E-1,1.542210917E-1
7.857708334E-2,-3.347183345E-3,1.691949554E-3,1.530397087E-1,1.530856583E-1
8.853308333E-2,-2.806802280E-3,4.291384481E-3,1.568060517E-1,1.568898721E-1
9.848908334E-2,-2.156724455E-3,2.383495681E-3,1.604276896E-1,1.604598893E-1
1.084450833E-1,-3.629109822E-3,1.189971343E-3,1.647568941E-1,1.648011548E-1
1.184010833E-1,-1.450643991E-3,1.045894809E-3,1.695814729E-1,1.695909025E-1
1.283570833E-1,-3.951509483E-3,1.407344826E-3,1.696087867E-1,1.696606483E-1
1.383130833E-1,-1.279560383E-3,2.228929661E-3,1.720088273E-1,1.720280270E-1
1.482680833E-1,-1.673832536E-3,2.479561605E-3,1.752981544E-1,1.753236803E-1
1.582240833E-1,-8.383989334E-4,1.992735080E-3,1.759162545E-1,1.759295385E-1
1.681800833E-1,-1.462996122E-3,1.601157710E-4,1.764982045E-1,1.765043404E-1
1.781360833E-1,-3.985275980E-3,-1.326994039E-3,1.828556955E-1,1.829039330E-1
1.880920833E-1,1.463796245E-3,7.226737216E-4,1.884541363E-1,1.884612067E-1
1.980480833E-1,-2.390290610E-4,2.576500177E-3,1.909077018E-1,1.909252370E-1
2.080040833E-1,-8.763796650E-4,1.520042308E-3,1.881577820E-1,1.881659626E-1
2.179590833E-1,-4.044675734E-4,3.368542530E-3,1.900054812E-1,1.900357692E-1
2.279150833E-1,-1.742987544E-3,2.412386239E-3,1.930188090E-1,1.930417525E-1
2.378710833E-1,-2.227949444E-3,-1.447806135E-4,1.946249604E-1,1.946377660E-1
2.478270833E-1,-5.108230747E-3,2.757181413E-3,2.025894970E-1,2.026726433E-1
2.577830833E-1,-3.126838943E-3,1.294307411E-3,2.040595561E-1,2.040876155E-1
2.677390833E-1,-3.653620370E-3,2.237373963E-3,2.075894028E-1,2.076336074E-1
2.776940833E-1,-3.321790602E-3,3.413691651E-3,2.151072323E-1,2.151599614E-1
2.876500833E-1,-1.768857474E-4,3.745409194E-3,2.116392851E-1,2.116724979E-1
2.976060833E-1,-2.764679492E-3,4.867931362E-3,2.128233314E-1,2.128969483E-1
3.075620833E-1,-2.613204764E-3,3.626902122E-3,2.166240066E-1,2.166701260E-1
3.175180833E-1,-1.303195953E-3,3.686822951E-3,2.167169452E-1,2.167522210E-1
3.274740833E-1,-2.643804066E-3,4.384364467E-3,2.175651193E-1,2.176253512E-1
3.374300833E-1,-2.388140652E-3,2.659435384E-3,2.235005051E-1,2.235290844E-1
3.473850833E-1,-3.379794303E-3,3.523926251E-3,2.236027569E-1,2.236560617E-1
3.573410833E-1,-2.512668958E-3,2.934302203E-3,2.280872613E-1,2.281199737E-1
3.672970833E-1,-1.313472167E-3,1.949058846E-3,2.303063571E-1,2.303183496E-1
3.772530833E-1,-3.556919051E-3,-3.417925909E-4,2.362718284E-1,2.362988476E-1
3.872090833E-1,-2.864710987E-3,2.906692214E-3,2.360419333E-1,2.360772113E-1
3.971650833E-1,-2.552055754E-3,1.256598160E-3,2.379314452E-1,2.379484496E-1
4.071210833E-1,8.306055097E-4,2.156270668E-3,2.403490394E-1,2.403601468E-1
4.170760833E-1,-3.718339838E-3,1.414580271E-3,2.445709556E-1,2.446033103E-1
4.270320833E-1,-1.215520315E-4,3.208561335E-3,2.477816343E-1,2.478024373E-1
4.369880833E-1,-3.320008516E-3,2.401623875E-3,2.498075068E-1,2.498411109E-1
4.469440833E-1,-1.784791239E-4,1.579102129E-3,2.539253533E-1,2.539303260E-1
4.569000833E-1,-3.087077057E-4,6.975959986E-4,2.584015727E-1,2.584026987E-1
4.668560833E-1,-1.701203641E-3,1.132056117E-3,2.611182928E-1,2.611262884E-1
4.768120833E-1,-5.286138039E-4,2.230876125E-3,2.619135082E-1,2.619235423E-1
4.867670833E-1,-2.460400574E-3,3.897224087E-3,2.644340098E-1,2.644741716E-1
4.967230833E-1,-2.603678964E-3,5.389659666E-3,2.672894597E-1,2.673564715E-1
5.066790833E-1,-1.877054921E-3,3.124021925E-3,2.682088315E-1,2.682335925E-1
5.166350833E-1,-3.354576416E-3,2.122406848E-3,2.715689242E-1,2.715979352E-1
5.265910833E-1,-2.084411215E-3,1.950502396E-3,2.711946070E-1,2.712096313E-1
5.365470833E-1,-8.865213022E-4,2.692991868E-3,2.759720683E-1,2.759866312E-1
5.465020833E-1,-2.775549423E-3,2.586735412E-3,2.779318094E-1,2.779577046E-1
5.564580833E-1,-4.681840073E-3,2.403243445E-3,2.815483809E-1,2.815975603E-1
5.664140833E-1,-4.641392734E-3,4.252414219E-3,2.820853591E-1,2.821555872E-1
5.763700833E-1,-3.151886631E-3,2.386869863E-3,2.846760750E-1,2.847035286E-1
5.863260833E-1,-2.762397751E-3,3.276887350E-3,2.859875560E-1,2.860196689E-1
5.962820833E-1,-3.348825965E-3,7.450198755E-4,2.919700742E-1,2.919902291E-1
6.062380833E-1,-3.872014582E-3,5.334822927E-3,2.962031066E-1,2.962764473E-1
6.161930833E-1,-1.987028867E-3,3.864491824E-3,2.995254099E-1,2.995569291E-1
6.261490833E-1,-4.007461015E-3,3.831175622E-3,3.018169999E-1,3.018679166E-1
6.361050833E-1,-1.362941810E-3,4.166467581E-3,3.039089143E-1,3.039405292E-1
6.460610833E-1,-3.152263118E-3,4.476913251E-3,3.061316311E-1,3.061805923E-1
6.560170833E-1,-5.313417874E-3,2.563431859E-3,3.081492484E-1,3.082057152E-1
6.659730833E-1,-2.452857792E-3,5.426707678E-3,3.042615950E-1,3.043198710E-1
6.759290833E-1,-3.493887372E-3,5.403271876E-3,3.052112758E-1,3.052790944E-1
6.858840833E-1,-2.960674465E-3,4.181790166E-3,3.045665622E-1,3.046096580E-1
6.958400833E-1,-3.506622277E-3,3.084035590E-3,3.079096377E-1,3.079450481E-1
7.057960833E-1,-1.030680025E-3,3.104737028E-3,3.085792065E-1,3.085965462E-1
7.157520833E-1,-3.858690849E-3,4.405957181E-3,3.088668287E-1,3.089223524E-1
7.257080833E-1,-5.190897733E-3,2.367718145E-3,3.079201877E-1,3.079730402E-1
7.356640833E-1,-3.567434847E-3,2.054264769E-3,3.063760996E-1,3.064037549E-1
7.456200833E-1,-3.205418587E-3,2.369191498E-3,3.060643971E-1,3.060903510E-1
7.555750833E-1,-4.427809268E-3,3.107686527E-3,3.035234511E-1,3.035716531E-1
7.655310833E-1,-4.410561640E-3,7.119681686E-4,3.031584918E-1,3.031914101E-1
7.754870833E-1,-5.334145855E-3,1.110376790E-3,3.051153719E-1,3.051640153E-1
7.854430833E-1,-3.020998091E-3,1.989883371E-3,3.075056374E-1,3.075269144E-1
7.953990833E-1,9.969435632E-5,3.078583628E-3,3.083243072E-1,3.083396926E-1
8.053550833E-1,-5.797964986E-3,3.028281033E-3,3.092874885E-1,3.093566508E-1
8.153110833E-1,-3.009368666E-3,1.601892523E-3,3.087881505E-1,3.088069693E-1
8.252660833E-1,-1.782125328E-3,2.160895150E-3,3.087212741E-1,3.087339802E-1
8.352220833E-1,-6.510808598E-4,2.158232033E-3,3.025763035E-1,3.025847010E-1
8.451780833E-1,-2.855823841E-3,1.063287258E-3,3.020594120E-1,3.020747833E-1
8.551340833E-1,-3.311224282E-3,2.338941209E-3,3.060072660E-1,3.060341186E-1
8.650900833E-1,-2.935183002E-3,4.632875323E-3,3.075129688E-1,3.075618715E-1
8.750460833E-1,-1.490950584E-3,6.498517469E-4,3.072535694E-1,3.072578740E-1
8.850020417E-1,-3.111312166E-3,1.937464811E-3,3.098866940E-1,3.099083689E-1
8.949570417E-1,-2.611170523E-3,1.219476573E-3,3.113687336E-1,3.113820702E-1
9.049130417E-1,-4.384423606E-3,8.881296962E-4,3.077074289E-1,3.077399450E-1
9.148690417E-1,-5.577253178E-3,2.702008467E-3,3.057548106E-1,3.058176103E-1
9.248250417E-1,-1.616810332E-3,3.544286825E-3,3.065540791E-1,3.065788307E-1
9.347810417E-1,-2.867164556E-3,6.438381970E-4,3.058422208E-1,3.058563375E-1
9.447370417E-1,-3.705388866E-3,-1.836800948E-4,3.030894995E-1,3.031122042E-1
9.546920417E-1,-2.365019871E-3,1.491981559E-3,3.024487495E-1,3.024616760E-1
9.646480417E-1,-3.131459700E-3,3.511867020E-3,3.043832183E-1,3.044195835E-1
9.746040417E-1,-3.350904444E-3,2.606126014E-3,3.048351407E-1,3.048646970E-1
9.845600417E-1,-2.434169874E-3,1.986978576E-3,3.035940230E-1,3.036102832E-1
9.945160417E-1,-5.421437789E-3,8.929520845E-4,3.058233559E-1,3.058727094E-1
1.004472042E0,-2.570935991E-3,2.017799765E-3,3.069235682E-1,3.069409682E-1
1.014428042E0,-1.781308558E-3,2.217536792E-3,3.060239553E-1,3.060371738E-1
1.024383042E0,-3.274918068E-3,9.977780282E-4,3.079659939E-1,3.079850224E-1
1.034339042E0,-3.762542736E-3,2.463049721E-3,3.101556599E-1,3.101882601E-1
1.044295042E0,-2.262854483E-3,3.187514842E-3,3.113594949E-1,3.113840327E-1
1.054251042E0,-2.681237180E-3,2.022914123E-3,3.125185072E-1,3.125365556E-1
1.064207042E0,-2.775616013E-4,-1.394255087E-4,3.112318516E-1,3.112320066E-1
1.074163042E0,-4.321837798E-3,2.749304753E-3,3.061662316E-1,3.062090762E-1
1.084119042E0,-3.182610264E-3,-3.880811855E-4,3.013992906E-1,3.014163432E-1
1.094074042E0,-4.095807672E-3,1.268405467E-3,2.961515188E-1,2.961825562E-1
1.104030042E0,-3.153434955E-3,1.949490048E-3,2.976998687E-1,2.977229525E-1
1.113986042E0,-2.987786662E-3,-5.437619984E-4,3.014812768E-1,3.014965718E-1
1.123942042E0,-2.941983286E-3,2.261202317E-3,3.038683534E-1,3.038910076E-1
1.133898042E0,-1.406404306E-3,-3.007585183E-4,3.049200177E-1,3.049234095E-1
1.143854042E0,-1.774942037E-3,1.439369749E-3,3.085315228E-1,3.085399856E-1
1.153810042E0,-3.262583632E-3,2.537391149E-3,3.096878827E-1,3.097154621E-1
1.163765042E0,-1.872022054E-3,1.247115433E-3,3.089538515E-1,3.089620399E-1
1.173721042E0,-4.329054616E-3,1.681210939E-3,3.071234524E-1,3.071585620E-1
1.183677042E0,-2.907206770E-3,-6.082961336E-4,3.042083085E-1,3.042228078E-1
1.193633042E0,-3.294163849E-3,2.917995676E-3,3.031494319E-1,3.031813720E-1
1.203589042E0,-2.878362546E-3,4.649758339E-4,3.019815087E-1,3.019955841E-1
1.213545042E0,-2.162238350E-3,1.439160202E-3,3.057078123E-1,3.057188463E-1
1.223500042E0,-2.348751994E-3,2.284334041E-3,3.041736782E-1,3.041913235E-1
1.233456042E0,-4.277412780E-3,2.145583276E-3,3.085511327E-1,3.085882390E-1
1.243412042E0,-3.168240190E-3,3.747349139E-3,3.099711835E-1,3.100100240E-1
1.253368042E0,-3.936029505E-3,5.187988281E-4,3.095392287E-1,3.095646872E-1
1.263324042E0,-4.128913395E-3,7.326183841E-4,3.116503060E-1,3.116785169E-1
1.273280042E0,-5.475940648E-3,1.805073116E-3,3.125064969E-1,3.125596820E-1
1.283236042E0,6.724844570E-4,-9.413696826E-4,3.112052083E-1,3.112073587E-1
1.293191042E0,-2.847415395E-3,1.416326500E-3,3.040045500E-1,3.040211837E-1
1.303147042E0,-3.590977052E-3,1.026880927E-3,3.005882204E-1,3.006114233E-1
1.313103042E0,-3.094563959E-3,1.923566684E-3,3.046061099E-1,3.046279019E-1
1.323059042E0,-1.203294029E-3,1.893514767E-3,3.063313663E-1,3.063395817E-1
1.333015042E0,-2.161765937E-3,3.749802709E-4,3.121501207E-1,3.121578314E-1
1.342971042E0,-2.807143610E-4,2.675021067E-3,3.105098605E-1,3.105215097E-1
1.352927042E0,-4.325145856E-4,1.172997989E-3,3.078323007E-1,3.078348394E-1
1.362882042E0,-3.332691267E-3,1.663489267E-3,3.067182004E-1,3.067408165E-1
1.372838042E0,-3.912994172E-3,1.949246507E-3,2.989873290E-1,2.990192870E-1
1.382794042E0,-8.574367967E-4,3.747821786E-3,3.006850779E-1,3.007096564E-1
1.392750042E0,-2.994090784E-3,-8.530551568E-4,3.041191995E-1,3.041351341E-1
1.402706042E0,-4.851771053E-3,3.915877081E-3,3.052978218E-1,3.053614805E-1
1.412662042E0,-4.748973064E-3,7.690861821E-4,3.118246794E-1,3.118617881E-1
1.422618042E0,-6.803598953E-4,2.645631786E-3,3.143500090E-1,3.143618781E-1
1.432573042E0,-1.719525200E-3,1.284489874E-3,3.149473667E-1,3.149546800E-1
1.442529042E0,-1.755471574E-3,2.175942063E-5,3.119420707E-1,3.119470109E-1
1.452485042E0,-1.740025124E-3,2.342437394E-3,3.036961257E-1,3.037101439E-1
1.462441042E0,-2.953523770E-3,2.862077672E-3,3.013018966E-1,3.013299648E-1
1.472397042E0,-4.321323242E-3,1.276191324E-5,2.992323637E-1,2.992635652E-1
1.482353042E0,-2.750758780E-3,1.954411622E-3,3.057991564E-1,3.058177733E-1
1.492308042E0,-2.297488740E-3,1.419648994E-3,3.070556223E-1,3.070674992E-1
1.502264042E0,5.250124959E-4,6.195986643E-4,3.088960052E-1,3.088970727E-1
1.512220042E0,-2.138414886E-3,1.404166222E-3,3.107208014E-1,3.107313323E-1
1.522176042E0,-1.564812381E-3,4.396094009E-4,3.069408536E-1,3.069451572E-1
1.532132042E0,-1.343503594E-3,1.162924338E-3,3.056737185E-1,3.056788831E-1
1.542088042E0,-5.922033451E-4,2.834405750E-4,3.058992326E-1,3.058999372E-1
1.552044042E0,-2.555485815E-3,1.018207055E-3,3.057807088E-1,3.057930822E-1
1.561999042E0,-3.494847566E-3,4.568872973E-4,3.038345277E-1,3.038549703E-1
1.571955042E0,-2.568067517E-3,1.402376220E-4,3.061107099E-1,3.061215140E-1
1.581911042E0,-3.362846328E-4,1.814669929E-3,3.111325204E-1,3.111379941E-1
1.591867042E0,-9.434855310E-4,2.405092586E-3,3.123525083E-1,3.123631926E-1
1.601823042E0,-6.303495029E-4,9.729154408E-4,3.120824695E-1,3.120846226E-1
1.611779042E0,-3.691386897E-3,2.184417099E-4,3.134071231E-1,3.134289375E-1
1.621735042E0,-2.011356177E-3,2.580019180E-3,3.079957068E-1,3.080130800E-1
1.631690042E0,-2.740529831E-3,2.855923027E-3,3.044078946E-1,3.044336268E-1
1.641646042E0,-4.619239829E-3,1.601943281E-3,3.014920354E-1,3.015316750E-1
1.651602042E0,-4.194465466E-3,1.835769042E-3,2.996989191E-1,2.997338914E-1
1.661558042E0,-5.295352079E-3,1.151469070E-3,3.009254932E-1,3.009742831E-1
1.671514042E0,-3.795193508E-3,3.472413868E-3,3.040235341E-1,3.040670492E-1
1.681470042E0,-3.285355633E-4,1.758550759E-3,3.082073033E-1,3.082124953E-1
1.691426042E0,-1.912317355E-3,2.296509687E-3,3.116217554E-1,3.116360848E-1
1.701381042E0,-1.861980068E-3,8.017374203E-4,3.145148456E-1,3.145213790E-1
1.711337042E0,-3.534178715E-3,3.482010216E-4,3.163428605E-1,3.163627934E-1
1.721293042E0,-3.235721961E-3,-1.378780231E-3,3.121795356E-1,3.121993488E-1
1.731249042E0,-2.543034032E-3,1.818877179E-3,3.091083765E-1,3.091241882E-1
1.741205042E0,-2.548019402E-3,-2.183886245E-4,3.030188978E-1,3.030296891E-1
1.751161042E0,-1.266239793E-3,1.102006529E-3,2.978457212E-1,2.978504515E-1
1.761116042E0,-4.000965506E-3,3.788461909E-3,2.999985218E-1,3.000491181E-1
1.771072042E0,-1.661378425E-3,-1.383684576E-4,3.046220541E-1,3.046266160E-1
1.781028042E0,-1.829174114E-3,8.491696790E-4,3.073179424E-1,3.073245592E-1
1.790984042E0,-1.407300588E-4,-8.443342522E-4,3.095214367E-1,3.095226203E-1
1.800940042E0,-2.726885723E-4,3.526689019E-3,3.125611544E-1,3.125811688E-1
1.810896042E0,-4.162235186E-3,-8.571399376E-4,3.121204078E-1,3.121493358E-1
1.820852042E0,-3.436933272E-3,2.246627118E-3,3.084582984E-1,3.084856264E-1
1.830807042E0,-2.813220955E-3,2.737713978E-3,3.086412549E-1,3.086662170E-1
1.840763042E0,7.260066923E-4,2.041920554E-3,3.104882240E-1,3.104957871E-1
1.850719042E0,-2.162457677E-3,5.023470148E-4,3.067187965E-1,3.067268307E-1
1.860675042E0,8.823791286E-4,8.135316893E-4,3.008752167E-1,3.008776104E-1
1.870631042E0,-2.377063967E-3,-1.187301241E-3,3.032933772E-1,3.033050160E-1
1.880587042E0,3.139178734E-4,7.618572563E-4,3.046508133E-1,3.046519277E-1
1.890542292E0,-1.702893875E-3,1.490498427E-3,3.041458726E-1,3.041542918E-1
1.900497292E0,-1.935954904E-3,2.161452547E-3,3.091035783E-1,3.091171977E-1
1.910453292E0,-1.060840208E-3,6.453152746E-4,3.118293285E-1,3.118318007E-1
1.920409292E0,-1.239885925E-3,-4.302877933E-4,3.122205734E-1,3.122233318E-1
1.930365292E0,-3.701179754E-3,-2.736942843E-4,3.109537065E-1,3.109758531E-1
1.940321292E0,-2.942938125E-3,5.749845877E-4,3.084465861E-1,3.084611612E-1
1.950277292E0,-5.022600293E-3,2.245319076E-3,3.065163195E-1,3.065656897E-1
1.960232292E0,-2.252073959E-3,1.940750051E-3,3.079236746E-1,3.079380258E-1
1.970188292E0,-2.824919764E-3,2.270449419E-3,3.083910644E-1,3.084123599E-1
1.980144292E0,-5.977943540E-3,1.707520802E-3,3.081553280E-1,3.082180359E-1
1.990100292E0,-1.760827610E-3,2.702130005E-4,3.081941903E-1,3.081993388E-1
2.000056292E0,-3.483610693E-3,-1.506581903E-4,3.051731586E-1,3.051930782E-1
2.010012292E0,-2.324070316E-3,-3.842171282E-4,3.056615889E-1,3.056706657E-1
2.019968292E0,-4.427463748E-3,-3.941105679E-4,2.997863293E-1,2.998192805E-1
2.029923292E0,-2.499180846E-5,1.331085339E-3,2.993189394E-1,2.993219002E-1
2.039879292E0,-4.275748041E-3,-3.989050165E-4,3.033480942E-1,3.033784887E-1
2.049835292E0,-2.082102466E-3,-2.252673730E-4,3.080629706E-1,3.080700891E-1
2.059791292E0,-1.680982532E-4,9.998958558E-5,3.117045462E-1,3.117046076E-1
2.069747292E0,-3.276805859E-3,1.337560825E-3,3.111812472E-1,3.112013740E-1
2.079703292E0,-8.747564862E-4,1.126891468E-3,3.106029630E-1,3.106062390E-1
2.089659292E0,-1.257985248E-3,1.726811752E-4,3.120770156E-1,3.120795989E-1
2.099614292E0,-5.057073198E-3,6.872517988E-4,3.112752736E-1,3.113171088E-1
2.109570292E0,-3.122020280E-3,1.002904028E-4,3.102624714E-1,3.102781949E-1
2.119526292E0,-1.253873459E-3,7.393253036E-4,3.077713251E-1,3.077747673E-1
2.129482292E0,7.139362860E-4,1.233607996E-3,3.048892617E-1,3.048925932E-1
2.139438292E0,-3.223043866E-3,1.902897377E-3,3.010268807E-1,3.010501486E-1
2.149394292E0,-3.374577500E-3,5.561364815E-4,3.017685711E-1,3.017879514E-1
2.159349292E0,-4.510281608E-3,2.419932745E-3,3.050232232E-1,3.050661656E-1
2.169305292E0,-2.803195268E-3,-3.284495324E-4,3.063170016E-1,3.063300038E-1
2.179261292E0,-4.418508150E-3,-1.110872254E-4,3.091376424E-1,3.091692376E-1
2.189217292E0,-1.770793460E-3,2.217846923E-3,3.061189353E-1,3.061320910E-1
2.199173292E0,-2.088514855E-3,1.198272221E-3,3.065302074E-1,3.065396643E-1
2.209129292E0,-3.719700966E-3,-1.446513459E-3,3.045959473E-1,3.046220932E-1
2.219085292E0,-8.833641186E-4,2.094702795E-4,3.069397509E-1,3.069410935E-1
2.229040292E0,-1.019927440E-4,-7.865522057E-4,3.081451058E-1,3.081461266E-1
2.238996292E0,-1.607809681E-3,1.256094780E-3,3.100837767E-1,3.100904891E-1
2.248952292E0,4.814402200E-5,-1.710932702E-4,3.107828498E-1,3.107829006E-1
2.258908292E0,-3.723448608E-4,2.087132540E-3,3.096632063E-1,3.096704638E-1
2.268864292E0,-2.361992607E-3,1.108421013E-3,3.059041500E-1,3.059152768E-1
2.278820292E0,-4.064749926E-3,2.587679774E-4,3.037671447E-1,3.037944492E-1
2.288776292E0,-3.067396116E-3,2.361866646E-3,3.012408614E-1,3.012657364E-1
2.298731292E0,-1.474157907E-3,1.455822494E-3,3.043172061E-1,3.043242588E-1
2.308687292E0,-2.189216670E-3,2.555707935E-3,3.040836453E-1,3.041022652E-1
2.318643292E0,-3.594640410E-3,1.879851334E-3,3.055777550E-1,3.056046787E-1
2.328599292E0,-1.540810568E-3,1.352013089E-3,3.075391650E-1,3.075459967E-1
2.338555292E0,-5.219660699E-3,-1.671341248E-3,3.069183230E-1,3.069672544E-1
2.348511292E0,-1.895769499E-3,2.099961042E-3,3.098297119E-1,3.098426281E-1
2.358466292E0,-1.542441780E-3,1.252313145E-3,3.068091571E-1,3.068155901E-1
2.368422292E0,-2.000771696E-3,-3.706170246E-4,3.068826497E-1,3.068893956E-1
2.378378292E0,-6.270842860E-4,8.665118366E-5,3.010002375E-1,3.010009031E-1
2.388334292E0,-3.179723863E-3,1.310905907E-3,3.038364947E-1,3.038559603E-1
2.398290292E0,-1.901982236E-3,6.708190776E-4,3.068856299E-1,3.068922569E-1
2.408246292E0,-4.889088450E-4,-6.911214441E-4,3.098603785E-1,3.098615350E-1
2.418202292E0,-3.190140938E-3,2.253128681E-3,3.114072978E-1,3.114317883E-1
2.428157292E0,-3.668977180E-3,3.476366401E-4,3.106158078E-1,3.106376704E-1
2.438113292E0,-5.082240328E-3,1.574270427E-3,3.043715656E-1,3.044180636E-1
2.448069292E0,-9.840109851E-5,-3.360155970E-4,3.015824258E-1,3.015826291E-1
2.458025292E0,-1.099547371E-3,5.597560667E-4,3.031730652E-1,3.031755758E-1
2.467981292E0,-3.526752116E-3,2.805599943E-3,3.087918162E-1,3.088246997E-1
2.477937292E0,-2.420565346E-3,1.165318768E-3,3.090786338E-1,3.090903088E-1
2.487893292E0,-3.871455556E-3,1.377838664E-3,3.145181537E-1,3.145449977E-1
2.497848292E0,-6.428951398E-3,3.701169044E-4,3.154653013E-1,3.155310202E-1
2.507804292E0,-2.477619331E-3,1.551228575E-3,3.167148530E-1,3.167283427E-1
2.517760292E0,-3.197394311E-3,-2.927084453E-3,3.137975335E-1,3.138274736E-1
2.527716292E0,-6.186555838E-4,-7.209219038E-4,3.057238758E-1,3.057253517E-1
2.537672292E0,3.560525365E-4,-1.031225547E-3,2.958009839E-1,2.958029957E-1
2.547628292E0,-4.453083500E-3,5.321390927E-5,2.927700281E-1,2.928038971E-1
2.557583292E0,-2.175600035E-3,1.657771412E-3,2.983699739E-1,2.983825108E-1
2.567539292E0,-1.224851701E-3,1.534467097E-3,3.008334041E-1,3.008398109E-1
2.577495292E0,-1.567440806E-3,5.443016998E-4,3.046171367E-1,3.046216557E-1
2.587451292E0,-2.013520338E-3,-1.916725188E-3,3.091844320E-1,3.091969293E-1
2.597407292E0,-1.782393083E-3,8.299411274E-4,3.135961592E-1,3.136023227E-1
2.607363292E0,-2.312362194E-3,-1.904060133E-3,3.155788779E-1,3.155930935E-1
2.617319292E0,-5.214400589E-3,-6.376719102E-4,3.183512390E-1,3.183945790E-1
2.627274292E0,-7.839662721E-4,1.279538032E-3,3.160441220E-1,3.160476845E-1
2.637230292E0,-1.881275792E-3,2.300189808E-4,3.121238053E-1,3.121295595E-1
2.647186292E0,-2.095127478E-3,-6.259204820E-4,3.031995595E-1,3.032074441E-1
2.657142292E0,-2.598268446E-3,2.504573204E-3,2.922841012E-1,2.923063799E-1
2.667098292E0,-2.061108593E-3,1.478990074E-3,2.906686068E-1,2.906796769E-1
2.677054292E0,3.825289896E-4,3.394447267E-3,2.960346639E-1,2.960543714E-1
2.687010292E0,-9.044841863E-5,1.821850892E-3,2.972027361E-1,2.972083338E-1
2.696965292E0,-2.129863715E-4,6.264196709E-4,3.013170660E-1,3.013177924E-1
2.706921292E0,-1.569866785E-3,-7.698759437E-4,3.052670658E-1,3.052720731E-1
2.716877292E0,-1.263099257E-3,-2.449830063E-3,3.108905852E-1,3.109028032E-1
2.726833292E0,-1.069487538E-3,-2.668369561E-4,3.109531701E-1,3.109551237E-1
2.736789292E0,-1.562721562E-3,-3.100857139E-4,3.098853827E-1,3.098894781E-1
2.746745292E0,-3.416281426E-3,-3.609517589E-4,3.133322895E-1,3.133511208E-1
2.756700292E0,-1.442558132E-4,1.362255774E-3,3.119369447E-1,3.119399526E-1
2.766656292E0,-4.824229050E-3,1.374678686E-4,3.135105968E-1,3.135477418E-1
2.776612292E0,-3.365768353E-4,1.080841292E-3,3.133926094E-1,3.133946539E-1
2.786568292E0,-3.717305372E-4,8.938875981E-4,3.137739599E-1,3.137754533E-1
2.796524292E0,-1.824457548E-3,2.037649974E-3,3.157125711E-1,3.157244182E-1
2.806480292E0,-1.091154991E-4,-2.076135017E-3,3.122493923E-1,3.122563133E-1
2.816436292E0,-1.756687765E-3,-1.054815948E-5,3.052372336E-1,3.052422888E-1
2.826391292E0,-2.815028187E-3,1.981202513E-5,3.023397028E-1,3.023528083E-1
2.836347292E0,-5.151281366E-4,1.362967771E-3,2.992793322E-1,2.992828791E-1
2.846303292E0,-2.609704155E-3,1.904388424E-3,3.018293083E-1,3.018465978E-1
2.856259292E0,-1.639816677E-3,3.365385346E-4,3.023542762E-1,3.023589102E-1
2.866215292E0,-1.009446336E-3,1.515253913E-3,3.080545068E-1,3.080598872E-1
2.876171292E0,-1.344074262E-3,-2.546282485E-3,3.078698814E-1,3.078833447E-1
2.886127667E0,-2.601677552E-4,1.405803487E-4,3.108209372E-1,3.108210778E-1
2.896082667E0,1.393031562E-4,1.335914247E-3,3.102851212E-1,3.102880283E-1
2.906038667E0,-5.219597369E-4,1.116590574E-4,3.103809953E-1,3.103814542E-1
2.915994667E0,-2.540696645E-3,1.166659407E-3,3.097264469E-1,3.097390646E-1
2.925950667E0,-1.027488615E-3,1.562138554E-3,3.056528866E-1,3.056586055E-1
2.935906667E0,-2.651319373E-3,2.492298372E-4,3.014100492E-1,3.014218130E-1
2.945862667E0,-6.347736344E-4,-1.744795591E-4,2.994337380E-1,2.994344617E-1
2.955818667E0,-4.372225143E-3,1.976796426E-3,3.004770577E-1,3.005153678E-1
2.965773667E0,-4.930689931E-3,1.195425168E-3,3.050888777E-1,3.051310604E-1
2.975729667E0,-2.884274349E-3,1.007981133E-3,3.054787219E-1,3.054940009E-1
2.985685667E0,-4.617725965E-3,-2.785159275E-3,3.085999489E-1,3.086470621E-1
2.995641667E0,-1.390345977E-3,1.874707639E-3,3.087201715E-1,3.087289942E-1
3.005597667E0,-1.329626073E-3,-8.952459320E-4,3.094264567E-1,3.094306085E-1
3.015553667E0,-2.919157501E-3,3.678454086E-4,3.048348129E-1,3.048490117E-1
3.025508667E0,-1.946038217E-3,5.753058940E-4,2.998214066E-1,2.998282740E-1
3.035464667E0,-4.052428994E-3,2.227784134E-4,3.006257713E-1,3.006531659E-1
3.045420667E0,-4.182924051E-3,2.515227068E-3,2.992957830E-1,2.993355792E-1
3.055376667E0,-3.591950517E-3,1.651176717E-3,3.046615720E-1,3.046872198E-1
3.065332667E0,-3.199666739E-3,-8.508628234E-4,3.064877093E-1,3.065055918E-1
3.075288667E0,-4.694360308E-3,1.490139402E-3,3.121468723E-1,3.121857258E-1
3.085244667E0,-2.747323364E-3,-1.332278363E-3,3.130688369E-1,3.130837259E-1
3.095199667E0,-1.212034607E-3,-6.584124640E-4,3.093902767E-1,3.093933513E-1
3.105155667E0,-3.903158708E-3,-2.511218190E-5,3.131341636E-1,3.131584898E-1
3.115111667E0,-2.384820953E-3,3.185864072E-3,3.086915612E-1,3.087172121E-1
3.125067667E0,-4.115875345E-3,4.428084940E-4,3.041982651E-1,3.042264304E-1
3.135023667E0,-1.138094580E-3,-1.015882008E-3,3.041493297E-1,3.041531555E-1
3.144979667E0,-2.766084857E-3,2.265664749E-3,3.057690561E-1,3.057899608E-1
3.154934667E0,-1.420035027E-3,3.463765606E-4,3.069633543E-1,3.069668343E-1
3.164890667E0,-3.402225906E-3,1.600725576E-3,3.035781980E-1,3.036014818E-1
3.174846667E0,-1.501258695E-3,1.629451290E-3,3.035327196E-1,3.035408058E-1
3.184802667E0,-1.712979982E-3,-8.904319257E-4,3.051066399E-1,3.051127478E-1
3.194758667E0,-1.075666398E-3,1.354205888E-3,3.091280460E-1,3.091328837E-1
3.204714667E0,-3.039747477E-3,-6.117401645E-4,3.091120720E-1,3.091276231E-1
3.214670667E0,-1.727363095E-3,-4.788059741E-4,3.112671077E-1,3.112722689E-1
3.224625667E0,-2.619255800E-3,-3.507081419E-4,3.085786402E-1,3.085899556E-1
3.234581667E0,-2.605772112E-3,-4.282156006E-4,3.093039095E-1,3.093151821E-1
3.244537667E0,-3.787949216E-3,-1.443233341E-4,3.098109663E-1,3.098341560E-1
3.254493667E0,-1.784373075E-3,-1.084915362E-3,3.101525307E-1,3.101595610E-1
3.264449667E0,-3.433136037E-3,1.443223096E-3,3.046227396E-1,3.046455034E-1
3.274405667E0,-8.307322860E-4,9.017130360E-4,2.957303822E-1,2.957329237E-1
3.284361667E0,-4.614018835E-3,1.500657760E-3,2.974156439E-1,2.974552175E-1
3.294316667E0,-1.578902127E-3,-1.814641990E-3,2.996752858E-1,2.996849392E-1
3.304272667E0,-2.111534355E-3,-1.600523479E-3,3.039027750E-1,3.039143250E-1
3.314228667E0,-2.147050109E-3,4.034708254E-4,3.073614836E-1,3.073692473E-1
3.324184667E0,-2.612570301E-3,-1.004542224E-3,3.107109368E-1,3.107235441E-1
3.334140667E0,-2.498737071E-3,-7.214173675E-4,3.128561974E-1,3.128670075E-1
3.344096667E0,-4.295572173E-3,5.143228918E-5,3.133313060E-1,3.133607536E-1
3.354052667E0,-2.394683426E-3,2.252301201E-3,3.126291633E-1,3.126464474E-1
3.364007667E0,-2.141949488E-3,6.589321420E-4,3.131769598E-1,3.131849777E-1
3.373963667E0,-3.722275607E-3,2.580201253E-4,3.098753393E-1,3.098978022E-1
3.383919667E0,-2.559273038E-3,-3.675566986E-4,3.067003191E-1,3.067112171E-1
3.393875667E0,-3.790691495E-3,1.462263055E-3,3.020833135E-1,3.021106351E-1
3.403831667E0,-1.986133866E-3,-1.079457812E-3,3.069630265E-1,3.069713498E-1
3.413787667E0,-2.670877380E-3,-1.874119975E-3,3.100320399E-1,3.100492085E-1
3.423742667E0,-4.943353124E-3,1.012213994E-3,3.135202527E-1,3.135608556E-1
3.433698667E0,-3.813176183E-3,-1.740681008E-3,3.129657805E-1,3.129938499E-1
3.443654667E0,-3.977493383E-3,1.310502645E-3,3.123058379E-1,3.123339146E-1
3.453610667E0,-1.170113683E-5,-1.250627451E-3,3.037299514E-1,3.037325264E-1
3.463566667E0,-6.817523390E-4,1.023711637E-3,2.989620864E-1,2.989646165E-1
3.473522667E0,-3.518003505E-4,-5.745962262E-4,2.993354797E-1,2.993362380E-1
3.483478667E0,-1.345691970E-3,-8.427761495E-4,3.016867936E-1,3.016909720E-1
3.493433667E0,-3.495698562E-3,2.594619524E-3,3.039518297E-1,3.039830040E-1
3.503389667E0,-1.614707988E-3,9.285458364E-4,3.067782521E-1,3.067839068E-1
3.513345667E0,-3.137519350E-3,5.915388465E-4,3.103247583E-1,3.103411825E-1
3.523301667E0,-2.638443140E-3,1.765460242E-3,3.112142384E-1,3.112304298E-1
3.533257667E0,-5.039938260E-3,2.485810779E-3,3.106367886E-1,3.106876159E-1
3.543213667E0,-1.696872059E-3,-2.324776724E-4,3.085834980E-1,3.085882510E-1
3.553169667E0,-1.408517826E-3,-1.107431948E-3,3.077361584E-1,3.077413744E-1
3.563124667E0,-6.256270222E-3,7.213610224E-4,3.094389737E-1,3.095030528E-1
3.573080667E0,-1.064241864E-3,3.006270155E-3,3.075312078E-1,3.075477427E-1
3.583036667E0,-3.654283937E-4,8.959812112E-4,3.062342703E-1,3.062357991E-1
3.592992667E0,-2.763949567E-3,9.839404374E-4,3.064979315E-1,3.065119729E-1
3.602948667E0,-2.418271499E-3,3.242753446E-4,3.095523119E-1,3.095619276E-1
3.612904667E0,-2.847223543E-3,8.800765499E-4,3.088499308E-1,3.088643083E-1
3.622860667E0,-3.635252826E-3,1.715243794E-3,3.082914650E-1,3.083176682E-1
3.632815667E0,-8.792288136E-4,-1.218049787E-3,3.060209155E-1,3.060246026E-1
3.642771667E0,-3.563162405E-3,7.798532024E-4,3.069000244E-1,3.069216989E-1
3.652727667E0,-2.919216640E-3,-1.631138846E-3,3.110662401E-1,3.110842139E-1
3.662683667E0,1.631326508E-3,-2.222094685E-3,3.091343641E-1,3.091466545E-1
3.672639667E0,-2.275543753E-3,-2.465536818E-4,3.112733960E-1,3.112818112E-1
3.682595667E0,-2.833476290E-3,-2.124615014E-3,3.089042604E-1,3.089245615E-1
3.692551667E0,-3.386479570E-3,-1.353049185E-3,3.083235621E-1,3.083451280E-1
3.702506667E0,-2.846957650E-4,6.477842107E-4,3.054641187E-1,3.054649383E-1
3.712462667E0,-3.904080950E-5,-1.598150004E-3,3.064532876E-1,3.064574572E-1
3.722418667E0,-1.232669689E-3,-3.173409496E-3,3.070418537E-1,3.070607267E-1
3.732374667E0,1.670042984E-4,2.983142622E-4,2.997707129E-1,2.997709078E-1
3.742330667E0,-1.457790378E-3,2.963339444E-3,3.010069430E-1,3.010250592E-1
3.752286667E0,3.852138761E-4,1.302902121E-3,3.008563221E-1,3.008593899E-1
3.762242667E0,-1.494977856E-3,2.743938472E-3,3.069160879E-1,3.069319943E-1
3.772197667E0,-4.631068092E-3,-4.303171299E-4,3.068466485E-1,3.068818953E-1
3.782153667E0,-2.657931764E-3,-2.314237412E-3,3.077880740E-1,3.078082501E-1
3.792109667E0,-2.075785305E-3,-4.674973898E-4,3.074565530E-1,3.074639156E-1
3.802065667E0,-8.219687734E-4,3.176240250E-3,3.090264797E-1,3.090438954E-1
3.812021667E0,-1.312001841E-3,1.284670550E-3,3.112824559E-1,3.112878717E-1
3.821977667E0,-1.255809097E-3,-2.961819991E-4,3.105207980E-1,3.105234786E-1
3.831932667E0,-2.499500290E-3,-4.302058369E-5,3.133223653E-1,3.133323378E-1
3.841888667E0,-7.158967201E-3,3.220150713E-3,3.072711527E-1,3.073714064E-1
3.851844667E0,-3.351856256E-3,-3.147181123E-4,3.024942279E-1,3.025129615E-1
3.861800667E0,-4.105530679E-3,3.534690477E-4,2.978097200E-1,2.978382274E-1
3.871756667E0,-9.560117032E-4,3.843926825E-4,2.983387113E-1,2.983404906E-1
3.881712667E0,-2.160293050E-3,-1.884531230E-4,3.025132120E-1,3.025209841E-1
3.891668958E0,-8.442273829E-4,-1.083072275E-3,3.034200668E-1,3.034231743E-1
3.901623958E0,2.391465241E-4,-5.475105718E-4,3.087402582E-1,3.087408363E-1
3.911579958E0,-6.739264354E-4,9.026625194E-4,3.093387485E-1,3.093407996E-1
3.921535958E0,-2.085934393E-3,5.729631521E-4,3.087416887E-1,3.087492668E-1
3.931491958E0,-1.190338982E-3,7.839761674E-4,3.088284433E-1,3.088317324E-1
3.941447958E0,-3.179187654E-3,-7.396177389E-4,3.098604083E-1,3.098775999E-1
3.951403958E0,-2.016840270E-3,3.457930870E-4,3.065800667E-1,3.065868955E-1
3.961359958E0,-1.932950923E-3,4.525855184E-4,3.058767021E-1,3.058831444E-1
3.971314958E0,-2.187996404E-3,-2.962900326E-4,3.045578003E-1,3.045658038E-1
3.981270958E0,-2.776288660E-3,3.154529259E-5,3.070204258E-1,3.070329797E-1
3.991226958E0,-2.069438808E-3,-6.833905354E-4,3.030729890E-1,3.030808246E-1
4.001182958E0,-4.376268946E-3,-2.995546907E-3,3.039624989E-1,3.040087594E-1
4.011138958E0,1.357468776E-3,5.079866387E-4,3.001109660E-1,3.001144659E-1
4.021094958E0,6.900806911E-4,5.708369426E-4,3.022902310E-1,3.022915576E-1
4.031050958E0,-1.209798269E-3,-8.795224130E-5,3.001441360E-1,3.001465870E-1
4.041005958E0,-1.456406899E-3,1.428451855E-3,3.026001155E-1,3.026069919E-1
4.050961958E0,-5.267063156E-3,-3.872625530E-4,3.032431304E-1,3.032891163E-1
4.060917958E0,-3.903258592E-3,1.692400314E-3,3.027576506E-1,3.027875404E-1
4.070873958E0,-1.805571374E-3,-1.986621413E-3,3.021874726E-1,3.021993967E-1
4.080829958E0,-1.315283589E-3,2.706740052E-4,3.069174886E-1,3.069204262E-1
4.090785958E0,-3.753197379E-3,2.110264264E-3,3.070601523E-1,3.070903399E-1
4.100741958E0,-1.099890331E-3,1.853269525E-3,3.056867719E-1,3.056943684E-1
4.110696958E0,-8.829017170E-4,-8.486597799E-4,3.064393103E-1,3.064417573E-1
4.120652958E0,-3.890409600E-3,-7.578455843E-4,3.090111315E-1,3.090365497E-1
4.130608958E0,-1.953055151E-3,5.352688022E-4,3.073255718E-1,3.073322437E-1
4.140564958E0,-2.061179373E-3,1.568333246E-4,3.065678775E-1,3.065748466E-1
4.150520958E0,-4.156970419E-3,1.522060949E-3,3.078688979E-1,3.079007232E-1
4.160476958E0,-1.598738367E-3,1.628321130E-3,3.051106632E-1,3.051191967E-1
4.170432958E0,-5.893365014E-3,9.893239476E-4,3.009523749E-1,3.010116983E-1
4.180387958E0,-2.091436181E-3,6.654835306E-4,3.022471964E-1,3.022551649E-1
4.190343958E0,-2.762084594E-3,3.574742004E-4,3.015644848E-1,3.015773457E-1
4.200299958E0,-1.540758880E-3,4.024817608E-4,3.048817217E-1,3.048858806E-1
4.210255958E0,-2.250219928E-3,-5.158130080E-4,3.041980565E-1,3.042068163E-1
4.220211958E0,-2.781254007E-3,-2.067371272E-3,3.033407927E-1,3.033605872E-1
4.230167958E0,-2.358603757E-3,-7.834676653E-4,3.068754375E-1,3.068855014E-1
4.240122958E0,-1.223473810E-4,1.681554131E-3,3.050836623E-1,3.050883209E-1
4.250078958E0,-2.424988663E-3,-4.247147590E-4,3.087846637E-1,3.087944777E-1
4.260034958E0,2.167099854E-3,1.567595638E-3,3.065068722E-1,3.065185416E-1
4.269990958E0,-3.722361755E-3,-2.368196379E-3,3.088431954E-1,3.088747055E-1
4.279946958E0,1.828977838E-4,-1.899746712E-3,3.086836934E-1,3.086895934E-1
4.289902958E0,-1.203962369E-3,9.375032969E-4,3.068845868E-1,3.068883805E-1
4.299858958E0,-1.291580498E-3,-1.927423291E-4,3.090859652E-1,3.090887238E-1
4.309813958E0,-2.375608543E-3,5.439873785E-4,3.112253547E-1,3.112348965E-1
4.319769958E0,-4.113853909E-3,1.428955700E-3,3.096599281E-1,3.096905500E-1
4.329725958E0,-2.774592955E-3,-5.886889994E-4,3.086391389E-1,3.086521716E-1
4.339681958E0,-1.883232966E-3,-1.096820459E-3,3.079283535E-1,3.079360656E-1
4.349637958E0,-3.320002230E-3,1.340686809E-3,3.053168058E-1,3.053377995E-1
4.359593958E0,-8.336752653E-4,-7.829181850E-4,3.024933040E-1,3.024954660E-1
4.369549958E0,-8.664168417E-4,-3.410154022E-4,2.994713783E-1,2.994728258E-1
4.379504958E0,-3.721341491E-4,1.262473874E-3,3.015795350E-1,3.015824071E-1
4.389460958E0,-1.369682606E-3,1.023942605E-5,3.049131930E-1,3.049162695E-1
4.399416958E0,-2.472497290E-3,-2.295792103E-3,3.010407090E-1,3.010596160E-1
4.409372958E0,-3.565546358E-3,2.917470410E-4,3.041829169E-1,3.042039532E-1
4.419328958E0,8.632905083E-4,2.850890160E-4,3.044337630E-1,3.044351205E-1
4.429284958E0,-1.557672163E-3,-3.324248828E-4,3.052660823E-1,3.052702374E-1
4.439240958E0,-1.600282732E-3,-1.940441784E-3,3.078293800E-1,3.078396554E-1
4.449195958E0,-3.667378332E-3,4.042158835E-4,3.067437708E-1,3.067659597E-1
4.459151958E0,-2.513696905E-3,6.055510603E-4,3.044579923E-1,3.044689712E-1
4.469107958E0,-3.873206675E-3,3.270683810E-4,3.052595556E-1,3.052843019E-1
4.479063958E0,-3.104085568E-3,1.213368028E-3,3.034374118E-1,3.034557142E-1
4.489019958E0,-3.678645473E-3,-2.990765497E-4,3.025622964E-1,3.025848064E-1
4.498975958E0,-7.779304869E-4,-1.281250268E-3,3.025204837E-1,3.025241971E-1
4.508931958E0,9.439466521E-5,1.466677058E-3,3.033920228E-1,3.033955827E-1
4.518886958E0,-5.175997503E-4,6.878376007E-5,3.034841418E-1,3.034845910E-1
4.528842958E0,-1.579857431E-3,-1.818472520E-4,3.067864776E-1,3.067905993E-1
4.538798958E0,-1.817943994E-3,-2.281861380E-4,3.078440130E-1,3.078494653E-1
4.548754958E0,-1.829500776E-3,1.265879255E-3,3.081433177E-1,3.081513488E-1
4.558710958E0,-2.532042563E-3,1.120470930E-3,3.047989309E-1,3.048115073E-1
4.568666958E0,-3.503498621E-3,-2.287058160E-4,3.038887978E-1,3.039090789E-1
4.578622958E0,-5.378024653E-4,1.851492561E-4,3.008578718E-1,3.008584094E-1
4.588577958E0,2.646782203E-3,-1.537184697E-3,2.998430133E-1,2.998586350E-1
4.598533958E0,-2.591389231E-3,1.949355938E-4,2.989354134E-1,2.989467087E-1
4.608489958E0,-8.037323132E-4,1.320023555E-3,3.013318479E-1,3.013358110E-1
4.618445958E0,-3.412298625E-3,5.554300733E-4,3.002548516E-1,3.002747545E-1
4.628401958E0,-3.466184484E-3,6.907624193E-4,3.012891114E-1,3.013098409E-1
4.638357958E0,1.365398057E-4,-7.345615886E-4,2.997705936E-1,2.997715247E-1
4.648313958E0,-2.949173562E-3,1.072920859E-3,3.038734496E-1,3.038896545E-1
4.658268958E0,-1.598151866E-3,-1.316270791E-4,2.999234498E-1,2.999277365E-1
4.668224958E0,-1.833710587E-3,3.759740386E-3,2.992525101E-1,2.992817451E-1
4.678180958E0,-1.375646796E-3,-7.817484438E-4,3.016373813E-1,3.016415312E-1
4.688136958E0,1.123348367E-3,3.987913951E-4,2.986698151E-1,2.986721938E-1
4.698092958E0,-2.211728133E-3,-2.921903506E-3,3.026392460E-1,3.026614321E-1
4.708048958E0,-2.030848060E-3,-2.124575898E-3,3.003152609E-1,3.003296424E-1
4.718004958E0,-2.896375023E-3,5.353894085E-4,3.020138144E-1,3.020281771E-1
4.727959958E0,-2.955348231E-3,-1.133951824E-3,2.993217409E-1,2.993384781E-1
4.737915958E0,-5.933907814E-4,-3.480463754E-3,2.990588844E-1,2.990797253E-1
4.747871958E0,-2.362306928E-3,-8.428497240E-4,2.981694937E-1,2.981800427E-1
4.757827958E0,-1.921820221E-3,-1.362964511E-3,2.974853218E-1,2.974946516E-1
4.767783958E0,-8.495687507E-4,6.103795022E-5,2.941848338E-1,2.941860668E-1
4.777739958E0,-3.090885002E-3,-1.681202091E-3,2.940146625E-1,2.940357151E-1
4.787695958E0,-4.049502313E-4,1.137362327E-3,2.962697148E-1,2.962721747E-1
4.797650958E0,-1.380200032E-3,-8.637364954E-4,2.943370640E-1,2.943415673E-1
4.807606958E0,-3.071838059E-3,2.980460878E-3,2.956106961E-1,2.956416800E-1
4.817562958E0,-2.849464305E-3,1.051267143E-3,2.956354618E-1,2.956510627E-1
4.827518958E0,-1.441255212E-3,1.526008826E-3,2.921599746E-1,2.921675147E-1
4.837474958E0,5.348101258E-4,-5.541862920E-4,2.922278941E-1,2.922289089E-1
4.847430958E0,-8.231606334E-4,3.128638491E-5,2.915216684E-1,2.915228323E-1
4.857386958E0,-2.801889088E-3,7.229903713E-5,2.909243405E-1,2.909378416E-1
4.867341958E0,-7.216595113E-4,1.462203916E-3,2.929953039E-1,2.929998412E-1
4.877297958E0,-1.421804307E-3,-8.619371802E-4,2.922953963E-1,2.923001252E-1
4.887253958E0,3.423795570E-4,1.181073952E-3,2.918692529E-1,2.918718434E-1
4.897209417E0,8.318686159E-4,3.597625997E-3,2.902492583E-1,2.902727456E-1
4.907165417E0,-1.437824685E-3,-1.669899095E-3,2.924942076E-1,2.925025084E-1
4.917121417E0,-1.596549060E-3,3.338633105E-4,2.951088846E-1,2.951133921E-1
4.927077417E0,-2.045254922E-3,2.652105875E-3,2.947742045E-1,2.947932299E-1
4.937032417E0,7.896799361E-4,-4.619285464E-4,2.958088517E-1,2.958102664E-1
4.946988417E0,4.809743259E-4,-1.260428689E-4,2.975629270E-1,2.975633424E-1
4.956944417E0,-6.650341675E-6,-6.725238636E-4,2.996958494E-1,2.996966041E-1
4.966900417E0,-2.498515649E-3,4.431405105E-4,2.990595102E-1,2.990702754E-1
4.976856417E0,-2.672420116E-3,6.950753741E-4,2.981875837E-1,2.982003689E-1
4.986812417E0,-2.088770736E-3,6.985575892E-4,2.969619334E-1,2.969701009E-1
4.996768417E0,-2.570536453E-3,-2.311347052E-3,2.959437966E-1,2.959639856E-1
5.006723417E0,-1.833250280E-3,-5.037700757E-4,3.027326167E-1,3.027385865E-1
5.016679417E0,-4.262053408E-3,-6.648916751E-4,3.057803214E-1,3.058107456E-1
5.026635417E0,-1.756094396E-3,-2.008818556E-3,3.073502481E-1,3.073618295E-1
5.036591417E0,-2.879149280E-3,-1.967539545E-3,3.062298596E-1,3.062497145E-1
5.046547417E0,-2.763841767E-4,5.314033478E-4,3.095501363E-1,3.095507158E-1
5.056503417E0,-3.142744303E-3,6.395275705E-4,3.035194278E-1,3.035363716E-1
5.066459417E0,-9.143042844E-4,1.348939259E-3,3.026135266E-1,3.026179143E-1
5.076414417E0,-7.238883991E-4,-4.076818004E-4,3.001106977E-1,3.001118477E-1
5.086370417E0,-4.579847213E-3,2.916134894E-3,3.056397140E-1,3.056879350E-1
5.096326417E0,-8.210618980E-4,1.323031727E-3,3.081367016E-1,3.081406358E-1
5.106282417E0,-1.864209771E-3,-1.288866624E-4,3.167018294E-1,3.167073423E-1
5.116238417E0,-2.422408666E-3,-8.627632633E-5,3.211423755E-1,3.211515232E-1
5.126194417E0,-4.300931934E-3,-6.819246337E-4,3.199783862E-1,3.200080165E-1
5.136150417E0,-4.003456794E-3,1.129647717E-5,3.176140189E-1,3.176392495E-1
5.146105417E0,3.109809477E-4,2.732666675E-3,3.124488294E-1,3.124609338E-1
5.156061417E0,-2.745795064E-3,-1.627216116E-4,3.105103076E-1,3.105224903E-1
5.166017417E0,-2.106559463E-3,-2.748426050E-4,3.067795336E-1,3.067868892E-1
5.175973417E0,-2.944923006E-3,6.040004082E-4,3.028806746E-1,3.028955933E-1
5.185929417E0,-1.688292716E-3,-2.296930179E-3,2.996147573E-1,2.996283181E-1
5.195885417E0,-1.878974959E-3,2.774260938E-3,2.968213558E-1,2.968402674E-1
5.205841417E0,-4.436628893E-3,-1.445207745E-4,2.969062626E-1,2.969394439E-1
5.215797417E0,-1.369732898E-3,3.761271946E-4,2.968151867E-1,2.968185855E-1
5.225752417E0,2.928562462E-4,1.140753273E-3,2.992056608E-1,2.992079788E-1
5.235708417E0,-3.772192635E-3,-7.218616083E-4,3.071344197E-1,3.071584319E-1
5.245664417E0,-3.630968276E-3,-2.318558283E-3,3.105736673E-1,3.106035455E-1
5.255620417E0,-5.902644247E-3,-8.263895288E-4,3.095952272E-1,3.096525938E-1
5.265576417E0,-3.164654598E-3,-6.876252592E-4,3.084583580E-1,3.084753580E-1
5.275532417E0,-3.353206441E-3,-1.006672159E-3,3.027693033E-1,3.027895448E-1
5.285488417E0,-2.689988818E-3,1.755438279E-3,3.012709320E-1,3.012880549E-1
5.295443417E0,-5.059302785E-4,3.050807863E-4,3.000048697E-1,3.000054514E-1
5.305399417E0,1.710335491E-3,1.144081820E-3,2.973055542E-1,2.973126750E-1
5.315355417E0,-2.991209039E-3,-1.045037061E-3,3.038153946E-1,3.038319165E-1
5.325311417E0,1.262633596E-3,-4.942351952E-4,3.078377545E-1,3.078407406E-1
5.335267417E0,-5.680231843E-4,1.724443864E-3,3.126700521E-1,3.126753233E-1
5.345223417E0,-2.048781142E-3,-7.912120782E-4,3.172403276E-1,3.172479298E-1
5.355179417E0,-1.098831650E-3,-1.312810928E-4,3.127371669E-1,3.127391249E-1
5.365134417E0,-2.477508970E-3,5.092509091E-4,3.082719445E-1,3.082823206E-1
5.375090417E0,-2.034358680E-3,-2.359012142E-4,3.020657301E-1,3.020726727E-1
5.385046417E0,-6.102246698E-4,2.402351238E-4,2.978929877E-1,2.978937096E-1
5.395002417E0,-1.994802151E-3,4.120091908E-4,2.988264263E-1,2.988333683E-1
5.404958417E0,-1.746790949E-3,-1.133040059E-3,2.973411083E-1,2.973483979E-1
5.414914417E0,-2.131617628E-3,1.444900408E-3,3.026043177E-1,3.026152749E-1
5.424870417E0,-1.534889918E-3,-1.474199817E-3,3.065457344E-1,3.065531217E-1
5.434825417E0,-1.072831452E-3,8.588004857E-5,3.156297505E-1,3.156315855E-1
5.444781417E0,-3.437195439E-3,3.299135715E-4,3.175781369E-1,3.175969084E-1
5.454737417E0,-7.031941786E-4,-4.546535201E-4,3.164838254E-1,3.164849332E-1
5.464693417E0,-3.209069371E-3,-6.447853521E-4,3.113737106E-1,3.113909144E-1
5.474649417E0,1.292030793E-4,1.128879376E-3,3.055464327E-1,3.055485454E-1
5.484605417E0,-1.896931557E-3,-1.765298657E-4,3.015142679E-1,3.015202867E-1
5.494561417E0,-4.148900509E-3,7.188250311E-4,2.982609570E-1,2.982906780E-1
5.504516417E0,-2.110857517E-3,8.440595120E-4,2.946575582E-1,2.946663278E-1
5.514472417E0,3.594909795E-4,-7.373252884E-4,2.955768704E-1,2.955780087E-1
5.524428417E0,-3.803218715E-5,9.279013611E-4,2.955737114E-1,2.955751703E-1
5.534384417E0,-2.138999756E-3,-1.070534810E-3,3.023847342E-1,3.023941944E-1
5.544340417E0,-1.686629839E-3,-1.210195944E-3,3.111601770E-1,3.111671015E-1
5.554296417E0,-8.274943102E-4,2.084700391E-4,3.153807521E-1,3.153819066E-1
5.564252417E0,-3.038271563E-3,-1.180292573E-3,3.181309998E-1,3.181476972E-1
5.574207417E0,1.298247371E-4,7.196068764E-4,3.183957338E-1,3.183965735E-1
5.584163417E0,-1.500050770E-3,1.438166015E-3,3.124053180E-1,3.124122296E-1
5.594119417E0,-9.895227849E-4,-6.942274049E-4,3.053460717E-1,3.053484643E-1
5.604075417E0,-1.876110677E-3,-8.833073080E-4,3.038871586E-1,3.038942336E-1
5.614031417E0,-1.048422419E-4,-2.180000767E-3,3.000889719E-1,3.000969084E-1
5.623987417E0,5.420220550E-4,-2.101065591E-3,2.989555001E-1,2.989633745E-1
5.633943417E0,-9.267113637E-4,-1.829423010E-3,2.973016798E-1,2.973087527E-1
5.643899417E0,-4.121990874E-3,2.593291458E-3,3.025347888E-1,3.025739817E-1
5.653854417E0,-4.806423560E-3,1.727445051E-4,3.107338548E-1,3.107710734E-1
5.663810417E0,6.398835685E-4,2.286261413E-3,3.166004121E-1,3.166093135E-1
5.673766417E0,-3.057649126E-3,-1.162000000E-3,3.194401562E-1,3.194569030E-1
5.683722417E0,-3.936716821E-4,-6.415117532E-4,3.136500418E-1,3.136509449E-1
5.693678417E0,-2.650966868E-3,-2.318237908E-3,3.092496991E-1,3.092697500E-1
5.703634417E0,-6.537039299E-4,7.767141797E-4,3.030756712E-1,3.030773714E-1
5.713590417E0,-1.396459760E-3,2.550379839E-3,2.978537381E-1,2.978679302E-1
5.723545417E0,-5.863953847E-4,-6.288043223E-4,2.989594340E-1,2.989606704E-1
5.733501417E0,-1.551791094E-3,1.434612554E-3,2.992920578E-1,2.992995189E-1
5.743457417E0,-2.524030395E-3,2.756916452E-3,3.034352958E-1,3.034583169E-1
5.753413417E0,-5.474323407E-4,1.430241391E-4,3.089344501E-1,3.089349683E-1
5.763369417E0,-3.188055009E-3,2.596156672E-3,3.175702095E-1,3.175968225E-1
5.773325417E0,-1.462326851E-3,-4.797945730E-4,3.150345981E-1,3.150383574E-1
5.783281417E0,1.939489739E-3,1.662635710E-3,3.134827018E-1,3.134931104E-1
5.793236417E0,-1.810241025E-3,2.221320756E-4,3.115439117E-1,3.115492501E-1
5.803192417E0,-2.699082252E-3,-5.625169724E-4,3.065431118E-1,3.065555102E-1
5.813148417E0,-4.310028628E-3,-9.851604700E-4,3.034567833E-1,3.034889886E-1
5.823104417E0,-1.930972096E-3,-8.338745683E-4,2.989374399E-1,2.989448394E-1
5.833060417E0,-2.012464684E-3,2.287263051E-4,3.036432564E-1,3.036500115E-1
5.843016417E0,-1.304574311E-3,5.620690063E-4,3.073549569E-1,3.073582394E-1
5.852972417E0,-3.815225791E-4,-2.068068832E-3,3.101100028E-1,3.101171332E-1
5.862927417E0,4.457298201E-4,4.732226953E-4,3.112893403E-1,3.112900191E-1
5.872883417E0,-3.160988912E-3,1.734229270E-3,3.067912459E-1,3.068124313E-1
5.882839417E0,-1.374135492E-3,1.054308377E-3,3.044358492E-1,3.044407760E-1
5.892795167E0,-1.680931775E-3,1.720365137E-3,3.059410751E-1,3.059505297E-1
5.902751167E0,-2.125000814E-3,1.536936965E-3,3.053651452E-1,3.053764066E-1
5.912707167E0,-2.913829172E-3,-5.608350039E-4,3.082030118E-1,3.082172957E-1
5.922663167E0,-5.657430738E-4,-1.208937261E-3,3.094355166E-1,3.094383954E-1
5.932619167E0,-3.171379678E-3,-1.234328374E-4,3.094661534E-1,3.094824276E-1
5.942574167E0,-1.959653571E-3,5.209865049E-5,3.074798882E-1,3.074861373E-1
5.952530167E0,-2.488557249E-3,-1.061901450E-3,3.063943982E-1,3.064063443E-1
5.962486167E0,-2.101003192E-4,1.994628459E-3,3.032250702E-1,3.032317033E-1
5.972442167E0,-1.614651643E-3,2.734720707E-3,3.029017746E-1,3.029184228E-1
5.982398167E0,-1.719428925E-3,5.934294313E-5,3.048313856E-1,3.048362406E-1
5.992354167E0,-3.000675933E-3,2.445535269E-3,3.067752123E-1,3.067996342E-1
6.002310167E0,1.027696417E-3,1.723687164E-3,3.094999790E-1,3.095064850E-1
6.012265167E0,5.254242569E-4,-1.945349853E-3,3.113245070E-1,3.113310282E-1
6.022221167E0,-2.460542601E-4,1.108686440E-3,3.165933490E-1,3.165953859E-1
6.032177167E0,-4.831751343E-3,1.960215159E-4,3.152205050E-1,3.152575947E-1
6.042133167E0,-1.495584380E-3,8.694371209E-4,3.114312291E-1,3.114360338E-1
6.052089167E0,-2.369743306E-4,4.465272650E-4,3.044252396E-1,3.044256593E-1
6.062045167E0,-1.311625820E-3,-2.896282822E-4,2.982573807E-1,2.982604054E-1
6.072001167E0,-4.695341922E-4,2.456090879E-3,2.975479066E-1,2.975584137E-1
6.081956167E0,-8.698727470E-4,2.103711478E-3,3.006209135E-1,3.006295327E-1
6.091912167E0,-2.786510158E-4,1.491717063E-3,3.049450815E-1,3.049488573E-1
6.101868167E0,1.899052411E-3,-2.933141775E-3,3.066564500E-1,3.066763572E-1
6.111824167E0,6.120488979E-5,-6.997724995E-5,3.088665903E-1,3.088666043E-1
6.121780167E0,-2.282764763E-4,-5.149533972E-4,3.104930520E-1,3.104935629E-1
6.131736167E0,-2.810211154E-3,6.641447544E-5,3.118528724E-1,3.118655411E-1
6.141692167E0,-1.096635591E-3,-4.419125617E-4,3.105015159E-1,3.105037669E-1
6.151648167E0,-3.519845661E-3,1.940018963E-3,3.076098561E-1,3.076361106E-1
6.161603167E0,-1.168899937E-3,2.239332534E-4,3.046642542E-1,3.046665788E-1
6.171559167E0,1.978157321E-3,-3.321347758E-4,3.039672971E-1,3.039739152E-1
6.181515167E0,-2.083796309E-3,7.221675478E-4,3.036726415E-1,3.036806496E-1
6.191471167E0,3.186413087E-4,-2.161769196E-3,3.030071259E-1,3.030150047E-1
6.201427167E0,-2.039064420E-3,-3.212564625E-3,3.093279898E-1,3.093513918E-1
6.211383167E0,2.983922604E-4,-5.438104272E-4,3.101767302E-1,3.101773504E-1
6.221339167E0,-2.109423280E-3,-2.626083326E-3,3.068004251E-1,3.068189153E-1
6.231294167E0,-1.466269605E-3,1.049345359E-3,3.070534468E-1,3.070587407E-1
6.241250167E0,-6.362376735E-5,-1.396508887E-4,3.040775657E-1,3.040776044E-1
6.251206167E0,3.867167979E-4,6.614280865E-4,3.091713786E-1,3.091723280E-1
6.261162167E0,1.098081702E-3,5.960254930E-4,3.128356934E-1,3.128381883E-1
6.271118167E0,-3.224228974E-3,-2.402067184E-4,3.138876259E-1,3.139042769E-1
6.281074167E0,-2.914328594E-3,-3.189466428E-3,3.145650327E-1,3.145947009E-1
6.291030167E0,-1.299121417E-3,3.253733739E-4,3.114027977E-1,3.114056775E-1
6.300986167E0,-6.350864191E-3,-2.003070898E-3,3.053616285E-1,3.054342318E-1
6.310941167E0,-1.005101483E-3,-2.057665028E-3,3.011189401E-1,3.011276479E-1
6.320897167E0,-1.302561257E-3,1.152846031E-3,2.992404699E-1,2.992455256E-1
6.330853167E0,-1.198964193E-3,-3.529055975E-4,2.974108756E-1,2.974135016E-1
6.340809167E0,-1.661645714E-3,-1.097516622E-3,3.008556068E-1,3.008621973E-1
6.350765167E0,-2.893186174E-4,-2.239993773E-4,3.075220287E-1,3.075222464E-1
6.360721167E0,-1.950638136E-3,-2.104072832E-3,3.139397204E-1,3.139528311E-1
6.370677167E0,-1.487780595E-3,1.307968516E-3,3.206165433E-1,3.206226631E-1
6.380632167E0,-3.925014753E-3,8.967742324E-4,3.168598711E-1,3.168854492E-1
6.390588167E0,-1.115646213E-3,2.843811642E-3,3.134608865E-1,3.134757714E-1
6.400544167E0,-5.812200252E-4,-1.185565256E-3,3.083665669E-1,3.083693937E-1
6.410500167E0,-1.678974833E-3,-1.921663061E-3,3.016365170E-1,3.016473109E-1
6.420456167E0,-1.437391620E-3,1.021465752E-3,2.994938791E-1,2.994990703E-1
6.430412167E0,-1.705305651E-3,7.551116869E-5,2.985812128E-1,2.985860921E-1
6.440368167E0,-1.678277738E-3,-8.419682272E-4,3.026967943E-1,3.027026177E-1
6.450324167E0,-2.224225551E-3,2.731461078E-3,3.102210164E-1,3.102410145E-1
6.460279167E0,-2.510984661E-3,8.538537659E-4,3.165283799E-1,3.165394911E-1
6.470235167E0,-1.465960173E-3,3.806766821E-3,3.161600530E-1,3.161863685E-1
6.480191167E0,-1.836996991E-3,-2.330592833E-3,3.186019957E-1,3.186158155E-1
6.490147167E0,-1.363753341E-3,1.836973242E-4,3.156805038E-1,3.156835030E-1
6.500103167E0,5.963128060E-4,-1.367027871E-4,3.117565215E-1,3.117571217E-1
6.510059167E0,-1.790412236E-3,-2.473359928E-3,3.059971631E-1,3.060123966E-1
6.520015167E0,-4.200377036E-3,-1.312256325E-3,3.015007079E-1,3.015328208E-1
6.529970167E0,-3.704850096E-4,-1.126634423E-3,2.984940112E-1,2.984963673E-1
6.539926167E0,-9.532396216E-4,-3.428170457E-4,2.986708879E-1,2.986726059E-1
6.549882167E0,1.046527992E-3,3.693122417E-4,3.020040989E-1,3.020061380E-1
6.559838167E0,-2.877326682E-3,2.102521248E-4,3.058873117E-1,3.059009164E-1
6.569794167E0,-3.066943958E-3,-2.813674510E-4,3.112781048E-1,3.112933405E-1
6.579750167E0,-1.270584296E-3,2.790667582E-3,3.131433725E-1,3.131583848E-1
6.589706167E0,-1.419188920E-3,2.513698768E-3,3.133308589E-1,3.133441558E-1
6.599662167E0,-1.834765077E-3,9.395228699E-4,3.103919327E-1,3.103987773E-1
6.609617167E0,-1.175899059E-3,-1.289542764E-3,3.120308518E-1,3.120357322E-1
6.619573167E0,-2.069163602E-3,-1.739786007E-3,3.127187192E-1,3.127304041E-1
6.629529167E0,-4.327790346E-3,1.051472966E-3,3.139403164E-1,3.139719058E-1
6.639485167E0,-1.028047875E-3,1.040454954E-4,3.162181079E-1,3.162197962E-1
6.649441167E0,-1.358890440E-4,-2.128710039E-4,3.167219758E-1,3.167220765E-1
6.659397167E0,-1.159781124E-3,2.504154574E-3,3.207689226E-1,3.207807936E-1
6.669353167E0,-1.343272626E-3,6.452677771E-4,3.215114176E-1,3.215148712E-1
6.679308167E0,-6.310348399E-4,-6.936900318E-4,3.213934600E-1,3.213948282E-1
6.689264167E0,-6.938853767E-4,2.159621101E-3,3.244374394E-1,3.244453691E-1
6.699220167E0,-2.464926802E-3,1.493403688E-4,3.218394518E-1,3.218489256E-1
6.709176167E0,-4.222823773E-4,1.336844172E-3,3.195640445E-1,3.195671197E-1
6.719132167E0,2.796014305E-4,-2.971775830E-4,3.206826746E-1,3.206829342E-1
6.729088167E0,-1.495395321E-3,8.873962797E-4,3.187212348E-1,3.187259782E-1
6.739044167E0,-1.462468877E-3,3.143795766E-3,3.194915354E-1,3.195103496E-1
6.749000167E0,-2.174598165E-3,-1.880857162E-4,3.195674419E-1,3.195748961E-1
6.758955167E0,6.877626292E-4,-2.130814828E-4,3.168373108E-1,3.168381289E-1
6.768911167E0,-2.400971251E-3,7.019806653E-4,3.174474537E-1,3.174573095E-1
6.778867167E0,-1.951664221E-3,5.285963416E-4,3.154063821E-1,3.154128632E-1
6.788823167E0,1.634184737E-4,2.406391315E-3,3.150154352E-1,3.150246686E-1
6.798779167E0,-6.613500882E-4,-2.771150321E-6,3.139143586E-1,3.139150553E-1
6.808735167E0,-2.714913804E-3,-1.049393788E-3,3.125241995E-1,3.125377533E-1
6.818691167E0,-1.070171129E-3,1.523864456E-3,3.110552430E-1,3.110608166E-1
6.828646167E0,-1.339682844E-3,2.197143622E-4,3.128411472E-1,3.128440928E-1
6.838602167E0,-9.269793518E-4,2.216343768E-3,3.095796704E-1,3.095889918E-1
6.848558167E0,-2.350900322E-4,6.567966193E-4,3.114971519E-1,3.114979330E-1
6.858514167E0,-2.758369781E-3,-2.070550341E-3,3.082042634E-1,3.082235614E-1
6.868470167E0,-1.361275557E-3,-3.122233320E-3,3.078399599E-1,3.078588025E-1
6.878426167E0,-1.759542851E-3,-8.255797438E-4,3.062395453E-1,3.062457130E-1
6.888382167E0,-2.676469041E-3,-9.169266559E-4,3.076891005E-1,3.077021073E-1
6.898338417E0,-2.770147286E-3,-8.330140263E-4,3.080835640E-1,3.080971439E-1
6.908293417E0,-2.904637251E-3,1.007762738E-3,3.104380667E-1,3.104532908E-1
6.918249417E0,-2.114966977E-3,1.994746272E-3,3.123959899E-1,3.124095175E-1
6.928205417E0,-1.693388447E-3,2.876603976E-4,3.122348785E-1,3.122396030E-1
6.938161417E0,-4.281714559E-3,-1.984005794E-4,3.130568266E-1,3.130861688E-1
6.948117417E0,-2.505919198E-3,-1.315330155E-3,3.097845912E-1,3.097975188E-1
6.958073417E0,-1.756074838E-3,9.401952848E-4,3.083403111E-1,3.083467451E-1
6.968029417E0,6.082798354E-4,-2.611662261E-3,3.114980161E-1,3.115095582E-1
6.977985417E0,-2.311251126E-3,3.684884869E-4,3.082137108E-1,3.082225968E-1
6.987940417E0,-1.481410116E-3,-1.857647672E-3,3.089663088E-1,3.089754447E-1
6.997896417E0,-1.450756099E-3,1.444171648E-3,3.066266775E-1,3.066335104E-1
7.007852417E0,-3.258509561E-3,3.754450008E-4,3.051246405E-1,3.051422702E-1
7.017808417E0,-2.611368196E-3,3.694639076E-3,3.055980504E-1,3.056315396E-1
7.027764417E0,-8.086743765E-4,1.879162155E-3,3.076151311E-1,3.076219337E-1
7.037720417E0,-2.091221977E-4,8.539441042E-4,3.065440059E-1,3.065452666E-1
7.047676417E0,-4.720198922E-5,-3.555184230E-5,3.084164560E-1,3.084164616E-1
7.057631417E0,9.552869014E-4,-2.129226923E-4,3.099115491E-1,3.099130945E-1
7.067587417E0,-4.575198982E-4,-4.696510732E-4,3.102742732E-1,3.102749659E-1
7.077543417E0,7.301694714E-4,5.488470197E-5,3.072651029E-1,3.072659753E-1
7.087499417E0,-1.258945558E-3,6.873854436E-4,3.068754673E-1,3.068788195E-1
7.097455417E0,2.572931582E-3,-1.450476702E-3,3.090101480E-1,3.090242635E-1
7.107411417E0,1.923653064E-3,-9.234375320E-4,3.060572147E-1,3.060646531E-1
7.117367417E0,-1.547675580E-3,-2.216124907E-3,3.062128723E-1,3.062248025E-1
7.127323417E0,-1.035017427E-3,-1.084281132E-3,3.096294403E-1,3.096330687E-1
7.137278417E0,-8.752162103E-4,1.905653160E-3,3.084837496E-1,3.084908772E-1
7.147234417E0,-1.063235570E-3,1.041723881E-3,3.111716807E-1,3.111752409E-1
7.157190417E0,-2.599854488E-3,1.008381136E-3,3.097288013E-1,3.097413540E-1
7.167146417E0,-4.725214094E-4,5.931942724E-4,3.112106025E-1,3.112115266E-1
7.177102417E0,5.179776344E-4,-8.968799375E-4,3.100936711E-1,3.100954007E-1
7.187058417E0,-1.196032856E-3,-5.410821177E-4,3.090941906E-1,3.090969782E-1
7.197014417E0,-1.971131656E-3,9.643542580E-4,3.079309762E-1,3.079387949E-1
7.206970417E0,-1.865936909E-3,6.010993384E-4,3.051578104E-1,3.051641072E-1
7.216925417E0,-8.116362151E-4,7.376214489E-5,3.044436276E-1,3.044447184E-1
7.226881417E0,-2.671321388E-3,-2.692532726E-4,3.036284447E-1,3.036403150E-1
7.236837417E0,8.851867169E-4,-1.417340711E-3,3.032175004E-1,3.032221050E-1
7.246793417E0,-1.597411931E-3,-7.488876581E-4,3.036942184E-1,3.036993428E-1
7.256749417E0,2.275791485E-4,-3.321389668E-4,3.029007316E-1,3.029009992E-1
7.266705417E0,-2.685678191E-4,-9.644962847E-5,3.046996891E-1,3.046998228E-1
7.276661417E0,-3.743856680E-3,1.816243865E-3,3.025100529E-1,3.025386708E-1
7.286616417E0,-2.854755148E-4,-1.710071228E-4,3.041699827E-1,3.041701647E-1
7.296572417E0,-3.690151731E-3,6.097662263E-4,3.033894300E-1,3.034124838E-1
7.306528417E0,-3.545009764E-3,4.816679284E-4,3.040173948E-1,3.040384440E-1
7.316484417E0,-4.120504484E-3,9.602494538E-5,3.043374717E-1,3.043653799E-1
7.326440417E0,-1.069853548E-3,-1.299471594E-3,3.080256879E-1,3.080302869E-1
7.336396417E0,-2.508582314E-3,-1.677963883E-4,3.081106842E-1,3.081209419E-1
7.346352417E0,-1.300039934E-3,-1.474609599E-3,3.088534176E-1,3.088596739E-1
7.356308417E0,-2.495890483E-3,1.571727917E-3,3.075122535E-1,3.075263986E-1
7.366263417E0,-1.531293616E-3,-8.262787014E-5,3.075034618E-1,3.075072857E-1
7.376219417E0,-2.296898747E-3,-1.105149742E-3,3.084091246E-1,3.084196577E-1
7.386175417E0,-1.211927040E-3,2.009683289E-3,3.072336018E-1,3.072425649E-1
7.396131417E0,5.236407742E-4,1.481491607E-3,3.058060408E-1,3.058100776E-1
7.406087417E0,-2.662032377E-3,-2.335616853E-3,3.073669076E-1,3.073873085E-1
7.416043417E0,-1.816549338E-3,-3.130072728E-4,3.074565232E-1,3.074620488E-1
7.425999417E0,-2.958512865E-3,2.779722214E-3,3.088791668E-1,3.089058422E-1
7.435955417E0,-1.006615581E-3,1.727259718E-3,3.080842197E-1,3.080907060E-1
7.445910417E0,-1.194101991E-3,8.833040483E-4,3.046391606E-1,3.046427815E-1
7.455866417E0,1.968733035E-3,1.540781464E-3,3.024495840E-1,3.024599160E-1
7.465822417E0,6.925463676E-4,-1.880847849E-3,3.022221625E-1,3.022288085E-1
7.475778417E0,2.155882772E-3,2.118942793E-3,2.972260416E-1,2.972414129E-1
7.485734417E0,1.374511281E-3,9.799092077E-4,3.002607226E-1,3.002654676E-1
7.495690417E0,-2.495990135E-3,-7.631955668E-5,2.967728078E-1,2.967833137E-1
7.505646417E0,-1.916752663E-3,1.231292263E-3,2.973405719E-1,2.973492992E-1
7.515602417E0,-2.870140597E-3,-6.878189743E-4,2.983083427E-1,2.983229427E-1
7.525557417E0,-2.230982296E-3,9.268554859E-4,2.943370342E-1,2.943469484E-1
7.535513417E0,-2.085305750E-3,1.032181084E-3,2.950287461E-1,2.950379212E-1
7.545469417E0,1.299039228E-3,-9.833090007E-5,2.933845222E-1,2.933874146E-1
7.555425417E0,-1.010362990E-3,8.032284677E-5,2.915813625E-1,2.915831241E-1
7.565381417E0,9.955300484E-4,-8.829431608E-4,2.911944091E-1,2.911974495E-1
7.575337417E0,2.525038319E-3,-1.872187480E-3,2.913343608E-1,2.913513184E-1
7.585293417E0,-1.572235022E-3,2.394728828E-3,2.909649611E-1,2.909790632E-1
7.595248417E0,3.732396290E-4,2.855174243E-4,2.890436947E-1,2.890440767E-1
7.605204417E0,-1.376457280E-3,-1.283883583E-3,2.864670753E-1,2.864732592E-1
7.615160417E0,-2.175278496E-3,3.068461083E-4,2.857145667E-1,2.857230121E-1
7.625116417E0,-4.908291157E-4,-2.300469205E-4,2.857787311E-1,2.857792452E-1
7.635072417E0,-3.792086150E-3,-2.576150000E-4,2.827683091E-1,2.827938523E-1
7.645028417E0,-1.582727768E-3,1.706210896E-4,2.851203978E-1,2.851248418E-1
7.654984417E0,4.556837957E-4,1.233083662E-3,2.821042240E-1,2.821072869E-1
7.664940417E0,-1.935302280E-3,-1.160832122E-3,2.832600474E-1,2.832690371E-1
7.674895417E0,1.919028349E-3,1.368562225E-3,2.849788368E-1,2.849885841E-1
7.684851417E0,-1.689821016E-3,1.793070231E-3,2.978136837E-1,2.978238755E-1
7.694807417E0,-1.564776525E-3,1.060226467E-3,3.145094514E-1,3.145151310E-1
7.704763417E0,-2.407666761E-3,1.248246059E-3,3.226166368E-1,3.226280355E-1
7.714719417E0,-5.053606350E-3,1.071913633E-3,3.322960734E-1,3.323362279E-1
7.724675417E0,-2.224530093E-3,9.731105529E-4,3.296763301E-1,3.296852713E-1
7.734631417E0,-2.897235798E-3,-5.066590384E-4,3.252416849E-1,3.252549835E-1
7.744587417E0,-3.670351347E-3,2.249116078E-4,3.187390566E-1,3.187602677E-1
7.754542417E0,-1.434172969E-3,1.861876808E-4,3.126605451E-1,3.126638898E-1
7.764498417E0,-2.924758010E-4,-2.854587510E-4,3.069438040E-1,3.069440761E-1
7.774454417E0,-5.578487180E-4,1.119500957E-4,3.031553328E-1,3.031558667E-1
7.784410417E0,-9.152921848E-5,1.143473201E-4,2.965749204E-1,2.965749566E-1
7.794366417E0,2.455688082E-5,9.982897900E-4,2.958002090E-1,2.958018946E-1
7.804322417E0,-1.182387583E-3,-5.295658484E-4,2.915583253E-1,2.915612037E-1
7.814278417E0,-8.182071615E-4,8.744383231E-4,2.865490913E-1,2.865515937E-1
7.824234417E0,2.587749623E-4,1.778581645E-3,2.881957293E-1,2.882013336E-1
7.834189417E0,2.679350553E-3,3.186240792E-4,3.018454909E-1,3.018575506E-1
7.844145417E0,-8.586589247E-4,8.022543043E-4,3.155953884E-1,3.155975762E-1
7.854101417E0,-4.430193920E-3,4.410119727E-4,3.285236657E-1,3.285538312E-1
7.864057417E0,-2.580628265E-3,-7.984233089E-4,3.296658993E-1,3.296769665E-1
7.874013417E0,-1.363623654E-3,1.117615029E-3,3.293157518E-1,3.293204714E-1
7.883969417E0,-4.714645911E-4,-2.405480482E-3,3.262941241E-1,3.263033314E-1
7.893925292E0,-1.681029797E-3,2.583973110E-4,3.188382089E-1,3.188427451E-1
7.903881292E0,-1.295670401E-3,7.593380287E-4,3.161779940E-1,3.161815606E-1
7.913836292E0,-2.827506047E-3,-8.947029710E-5,3.118944168E-1,3.119072459E-1
7.923792292E0,-2.133752685E-3,-1.592454500E-4,3.065411747E-1,3.065486422E-1
7.933748292E0,-1.119328197E-3,1.526423264E-3,3.040075898E-1,3.040134825E-1
7.943704292E0,-2.863964997E-3,2.076257952E-4,3.035527468E-1,3.035663280E-1
7.953660292E0,2.231099643E-5,-1.089358702E-4,3.026915789E-1,3.026915993E-1
7.963616292E0,-1.382240327E-3,-1.674075611E-3,3.008723855E-1,3.008802178E-1
7.973572292E0,1.361899194E-3,1.109384466E-3,3.017343283E-1,3.017394412E-1
7.983528292E0,-1.175027806E-3,-2.028884366E-3,2.976602316E-1,2.976694652E-1
7.993483292E0,-2.294332255E-3,-7.660826668E-5,2.986058295E-1,2.986146534E-1
8.003439292E0,-3.595552873E-3,-1.916585956E-3,2.982462943E-1,2.982741245E-1
8.013395292E0,-4.092019517E-4,1.724038739E-3,3.014322221E-1,3.014374301E-1
8.023351292E0,7.575289346E-4,7.850080729E-4,3.090398312E-1,3.090417566E-1
8.033307292E0,-1.341397408E-3,2.265834250E-3,3.109228313E-1,3.109339807E-1
8.043263292E0,6.932574324E-4,1.336391084E-3,3.129646778E-1,3.129682989E-1
8.053219292E0,-2.849383745E-3,2.702561673E-3,3.079589903E-1,3.079840297E-1
8.063175292E0,-4.599955864E-4,-8.458336815E-4,3.075488508E-1,3.075503579E-1
8.073130292E0,2.428498119E-4,4.547387362E-4,3.068868816E-1,3.068873146E-1
8.083086292E0,-1.567300875E-3,1.250225119E-3,3.041984141E-1,3.042050207E-1
8.093042292E0,-5.388187710E-4,-3.523323685E-4,3.020761907E-1,3.020768767E-1
8.102998292E0,-9.769089520E-4,1.082312781E-3,2.999797463E-1,2.999832895E-1
8.112954292E0,-1.148348907E-3,-1.325969119E-3,2.984235585E-1,2.984287137E-1
8.122910292E0,-1.056736102E-3,4.023266956E-5,3.045072556E-1,3.045090918E-1
8.132866292E0,-4.165503196E-5,-1.569027081E-3,3.039785624E-1,3.039826146E-1
8.142822292E0,-3.740519518E-3,-9.496696293E-5,3.075301647E-1,3.075529267E-1
8.152777292E0,-3.934659064E-3,8.876523934E-4,3.066591024E-1,3.066856283E-1
8.162733292E0,-2.690847032E-4,-1.275446266E-4,3.065624237E-1,3.065625683E-1
8.172689292E0,-1.671274193E-3,-1.186175272E-3,3.097391129E-1,3.097458930E-1
8.182645292E0,-3.780231345E-3,1.528651454E-3,3.090248406E-1,3.090517417E-1
8.192601292E0,-1.803291496E-3,2.630032133E-3,3.099688292E-1,3.099852319E-1
8.202557292E0,-3.405183088E-3,3.318395466E-5,3.094114065E-1,3.094301454E-1
8.212513292E0,-3.884362988E-3,1.348015852E-3,3.076792955E-1,3.077067668E-1
8.222469292E0,-4.869998898E-3,4.151104949E-4,3.054121435E-1,3.054512507E-1
8.232424292E0,-1.921911724E-3,-1.008267514E-3,3.024689853E-1,3.024767717E-1
8.242380292E0,-4.257237539E-3,1.066068653E-3,3.011030555E-1,3.011350371E-1
8.252336292E0,-5.848901346E-4,6.487383507E-4,2.988493741E-1,2.988506505E-1
8.262292292E0,-1.699696295E-4,-1.525732689E-3,2.999167740E-1,2.999207030E-1
8.272248292E0,-1.834664959E-3,-7.808739319E-4,3.053891957E-1,3.053957049E-1
8.282204292E0,-3.359324764E-3,1.780821010E-3,3.086456954E-1,3.086691136E-1
8.292160292E0,2.668248489E-4,-1.297327690E-4,3.163255751E-1,3.163257143E-1
8.302116292E0,-1.473817509E-3,2.019438427E-3,3.167948127E-1,3.168046774E-1
8.312071292E0,-1.124223694E-3,-2.239223570E-3,3.145906627E-1,3.146006406E-1
8.322027292E0,-3.849300556E-4,-6.549088284E-4,3.107421398E-1,3.107430684E-1
8.331983292E0,-1.362812705E-3,-1.488931011E-3,3.041196465E-1,3.041263448E-1
8.341939292E0,-3.681220114E-4,7.425318472E-4,3.014647365E-1,3.014658757E-1
8.351895292E0,-2.252090722E-3,1.198967453E-3,2.975947559E-1,2.976056924E-1
8.361851292E0,-9.548650123E-4,1.838803291E-5,2.964261770E-1,2.964277155E-1
8.371807292E0,-2.669404726E-3,1.362913288E-3,2.937730253E-1,2.937883143E-1
8.381763292E0,6.744600832E-4,1.916550100E-4,2.952183187E-1,2.952191514E-1
8.391718292E0,-3.672390711E-3,-1.180424821E-3,3.039734364E-1,3.039979110E-1
8.401674292E0,2.275425941E-4,-2.044620458E-3,3.131847680E-1,3.131915247E-1
8.411630292E0,-1.218631398E-3,1.037960872E-3,3.183887303E-1,3.183927543E-1
8.421586292E0,-3.057011403E-3,1.437168568E-3,3.243654072E-1,3.243829961E-1
8.431542292E0,-2.247296507E-3,-1.114916056E-3,3.210972846E-1,3.211070842E-1
8.441498292E0,-2.126655309E-3,7.073394954E-6,3.172863126E-1,3.172934397E-1
8.451454292E0,-1.896850998E-3,2.081347629E-4,3.102267981E-1,3.102326669E-1