"Time (s)","Gyroscope x (rad/s)","Gyroscope y (rad/s)","Gyroscope z (rad/s)","Absolute (rad/s)"
6.116875000E-3,-6.837829715E-4,-5.743652582E-4,-7.834134251E-2,7.834643196E-2
1.607287500E-2,1.460448955E-3,-1.496892422E-3,-7.801082730E-2,7.803885426E-2
2.602887500E-2,3.653571475E-4,1.878131181E-3,-7.718604803E-2,7.720975892E-2
3.598487500E-2,1.891908236E-3,-1.122122630E-4,-7.554490119E-2,7.556867079E-2
4.594087500E-2,1.517988276E-4,-8.760066703E-4,-7.682162523E-2,7.682676964E-2
5.589687500E-2,9.038543794E-5,-1.425772905E-3,-7.267201692E-2,7.268605809E-2
6.585287500E-2,-1.400185749E-3,-1.591732726E-4,-7.443716377E-2,7.445050172E-2
7.580887500E-2,-1.728050527E-3,-2.849931829E-3,-7.797216624E-2,7.804336601E-2
8.576487500E-2,2.235532040E-3,-6.693350151E-4,-7.623232156E-2,7.626803041E-2
9.572087500E-2,5.109129706E-4,1.215998083E-3,-7.562018186E-2,7.563168376E-2
1.056768750E-1,2.829993609E-3,2.822838724E-5,-7.852248847E-2,7.857347426E-2
1.156328750E-1,2.959547564E-4,-5.685295910E-4,-7.719042897E-2,7.719308998E-2
1.255888750E-1,2.011462348E-4,-1.660426147E-3,-7.650892437E-2,7.652720420E-2
1.355448750E-1,-2.823975403E-3,-6.464626640E-4,-7.549786568E-2,7.555342794E-2
1.455008750E-1,3.101025475E-3,-1.145805232E-3,-7.771281153E-2,7.778309781E-2
1.554558750E-1,1.888721250E-3,1.436294988E-4,-7.716643810E-2,7.718968239E-2
1.654118750E-1,2.241057577E-3,-2.117394470E-3,-7.338874787E-2,7.345348196E-2
1.753678750E-1,3.141106805E-3,-1.582605764E-3,-7.239171863E-2,7.247711445E-2
1.853238750E-1,3.385851160E-3,-3.927518614E-3,-7.209052145E-2,7.227677825E-2
1.952798750E-1,3.415893298E-5,-1.195981167E-3,-7.563783228E-2,7.564729480E-2
2.052358750E-1,9.742547409E-4,-1.574683003E-3,-7.622612268E-2,7.624861033E-2
2.151918750E-1,7.949508145E-4,-6.554694846E-4,-7.913609594E-2,7.914280301E-2
2.251478750E-1,1.229844987E-3,2.289656550E-4,-8.006633818E-2,8.007611038E-2
2.351038750E-1,-4.694032250E-4,7.329219952E-4,-7.442904264E-2,7.443413130E-2
2.450598750E-1,1.684028772E-3,-1.293743029E-3,-7.194031775E-2,7.197165443E-2
2.550158750E-1,2.606180729E-3,-1.077570021E-3,-6.862966716E-2,6.868758658E-2
2.649718750E-1,-1.818826422E-4,-1.850419678E-3,-6.967069954E-2,6.969550565E-2
2.749278750E-1,4.566343268E-4,-2.798130736E-4,-7.650318742E-2,7.650506189E-2
2.848838750E-1,2.807939425E-3,-7.583824918E-4,-8.122337610E-2,8.127543597E-2
2.948398750E-1,5.649295636E-4,4.533836618E-4,-8.463499695E-2,8.463809669E-2
3.047958750E-1,-7.573298644E-4,1.827841625E-3,-7.884848118E-2,7.887330054E-2
3.147518750E-1,2.771335421E-4,-5.731703714E-4,-7.255953550E-2,7.256232852E-2
3.247078750E-1,2.018574625E-3,-4.495996982E-4,-6.758555025E-2,6.761718262E-2
3.346638750E-1,-9.974930435E-6,-1.854076050E-3,-7.130056620E-2,7.132466921E-2
3.446198750E-1,-1.203071210E-3,-2.624794841E-3,-7.126966864E-2,7.132813327E-2
3.545758750E-1,2.951517235E-3,-2.441126853E-4,-7.743730396E-2,7.749391647E-2
3.645318750E-1,6.862325827E-4,6.033051759E-4,-7.949992269E-2,7.950517342E-2
3.744878750E-1,3.152659629E-4,2.027061768E-3,-7.570633292E-2,7.573412188E-2
3.844438750E-1,2.438932424E-4,-2.931743860E-3,-7.354038954E-2,7.359920855E-2
3.943998750E-1,1.161767053E-3,-1.094597392E-3,-7.287622988E-2,7.289370843E-2
4.043558750E-1,1.547392807E-3,-2.386496402E-3,-7.260724902E-2,7.266293691E-2
4.143118750E-1,2.342252992E-3,-2.931938507E-3,-7.730595767E-2,7.739698640E-2
4.242678750E-1,2.690078691E-5,-2.154561691E-3,-7.686147839E-2,7.689167523E-2
4.342238750E-1,2.176676644E-4,-6.850967184E-4,-8.141609281E-2,8.141926618E-2
4.441798750E-1,1.603310346E-3,-1.300820149E-3,-7.825598866E-2,7.828321977E-2
4.541358750E-1,2.068701666E-3,-2.111325040E-3,-7.682912797E-2,7.688596832E-2
4.640918750E-1,-1.928969636E-3,-2.026637085E-3,-7.454999536E-2,7.460247979E-2
4.740478750E-1,5.979879643E-4,-4.905331880E-4,-7.414381951E-2,7.414785354E-2
4.840038750E-1,1.226227731E-3,-1.283888705E-3,-7.447511703E-2,7.449627548E-2
4.939598750E-1,2.388515044E-3,2.468572930E-4,-8.035537601E-2,8.039124576E-2
5.039158750E-1,1.679581590E-3,2.980977297E-5,-7.806132734E-2,7.807940003E-2
5.138718750E-1,5.661807372E-4,-9.727198631E-5,-7.485532016E-2,7.485752453E-2
5.238278750E-1,2.058616141E-3,-2.037985250E-4,-7.339856774E-2,7.342771398E-2
5.337838750E-1,-1.455234131E-3,-1.692911610E-4,-7.340050489E-2,7.341512435E-2
5.437398750E-1,-7.273396477E-6,4.312517121E-4,-7.285961509E-2,7.286089172E-2
5.536958750E-1,-9.355996735E-5,1.847448759E-3,-7.739900053E-2,7.742110244E-2
5.636518750E-1,9.919444565E-4,6.074812263E-4,-7.683467120E-2,7.684347523E-2
5.736078750E-1,-3.459819127E-4,3.036297858E-4,-7.751324773E-2,7.751461454E-2
5.835638750E-1,1.054041903E-3,7.739448920E-4,-7.768236101E-2,7.769336655E-2
5.935198750E-1,1.871592365E-3,-5.568303168E-4,-7.565898448E-2,7.568417834E-2
6.034758750E-1,3.034328576E-3,-1.360040158E-3,-7.272072136E-2,7.279670442E-2
6.134318750E-1,-1.518927515E-3,-4.204921424E-4,-7.184141129E-2,7.185869697E-2
6.233878750E-1,9.245226975E-4,6.628818810E-4,-7.656372339E-2,7.657217441E-2
6.333438750E-1,-7.472463185E-4,1.106341369E-3,-7.587080449E-2,7.588254965E-2
6.432998750E-1,8.450576570E-4,-2.229267731E-3,-7.867750525E-2,7.871361757E-2
6.532558750E-1,-1.741233049E-3,-1.090489328E-3,-7.472606003E-2,7.475429825E-2
6.632118750E-1,-3.510629758E-4,3.815814853E-5,-7.478997111E-2,7.479080478E-2
6.731678750E-1,1.246116241E-3,8.239708841E-4,-7.594484091E-2,7.595953261E-2
6.831238750E-1,-1.536088181E-3,1.246081665E-3,-7.462843508E-2,7.465464224E-2
6.930798750E-1,3.300339449E-3,-2.694675699E-3,-7.446832955E-2,7.459011746E-2
7.030358750E-1,-1.192945987E-3,-2.129552886E-3,-7.889822870E-2,7.893597791E-2
7.129918750E-1,1.167876413E-3,7.167607546E-4,-8.006034046E-2,8.007206627E-2
7.229478750E-1,-1.084358897E-3,-6.225435063E-4,-7.897003740E-2,7.897993544E-2
7.329028750E-1,4.238908878E-4,1.558056101E-4,-7.725770026E-2,7.725902024E-2
7.428588750E-1,-1.591855660E-3,-9.488733485E-4,-7.087223977E-2,7.089646490E-2
7.528148750E-1,-6.223792443E-4,1.845655032E-3,-7.176051289E-2,7.178694177E-2
7.627708750E-1,2.094577765E-3,-3.937931731E-3,-7.536669821E-2,7.549856794E-2
7.727268750E-1,2.952480223E-3,-1.637286507E-3,-7.816748321E-2,7.824035581E-2
7.826828750E-1,-2.445480786E-3,7.393183187E-4,-8.106260002E-2,8.110284884E-2
7.926388750E-1,1.868939027E-3,6.907638162E-4,-7.603003830E-2,7.605614249E-2
8.025948750E-1,4.047331167E-4,9.299153462E-4,-7.270801067E-2,7.271508349E-2
8.125508750E-1,-1.080365269E-3,2.826843411E-5,-6.894528121E-2,6.895375109E-2
8.225068750E-1,-9.370871121E-4,5.995156243E-4,-6.676948071E-2,6.677874740E-2
8.324628750E-1,-3.432976082E-4,-9.968550876E-4,-7.128032297E-2,7.128811974E-2
8.424188750E-1,-1.318426803E-4,1.835683361E-3,-7.658773661E-2,7.660984607E-2
8.523748750E-1,6.448246422E-4,-1.082764007E-3,-7.919526100E-2,7.920528734E-2
8.623308750E-1,3.088008612E-3,-3.836844116E-4,-8.138836920E-2,8.144783393E-2
8.722868750E-1,2.320762491E-3,-3.556255251E-5,-7.755796611E-2,7.759268851E-2
8.822428750E-1,4.049420357E-3,-2.096583135E-3,-7.459546626E-2,7.473471116E-2
8.921988750E-1,1.490775496E-3,-5.125449970E-4,-7.257933170E-2,7.259644966E-2
9.021548750E-1,1.022591838E-3,-8.848542348E-4,-7.055399567E-2,7.056695378E-2
9.121108750E-1,-1.980122644E-3,1.771962270E-4,-7.426813245E-2,7.429473589E-2
9.220668750E-1,1.364807598E-3,-3.495775163E-4,-7.653714716E-2,7.655011300E-2
9.320228750E-1,1.911351806E-3,-1.251897775E-3,-7.971762121E-2,7.975035827E-2
9.419788750E-1,2.079131082E-3,-8.066166192E-4,-8.154082298E-2,8.157131376E-2
9.519348750E-1,1.671396662E-3,4.899790511E-4,-7.420673966E-2,7.422717735E-2
9.618908750E-1,1.570995431E-3,7.075592875E-4,-7.135902345E-2,7.137982134E-2
9.718468750E-1,6.706194836E-4,-8.721845224E-4,-6.990513951E-2,6.991379668E-2
9.818028750E-1,3.334313165E-3,-2.529470250E-3,-7.231104374E-2,7.243205720E-2
9.917588750E-1,-7.494841702E-4,8.084131405E-4,-7.542358339E-2,7.543163918E-2
1.001714875E0,2.311020624E-3,-7.764343172E-4,-8.375395089E-2,8.378942628E-2
1.011671542E0,1.992371399E-3,-8.126366884E-4,-8.299916983E-2,8.302705652E-2
1.021627542E0,3.494787961E-5,-2.531064674E-4,-7.993040979E-2,7.993081817E-2
1.031583542E0,1.951519167E-3,2.272446640E-3,-7.060261071E-2,7.066612399E-2
1.041539542E0,1.779792365E-5,-3.225356340E-5,-6.887475401E-2,6.887476386E-2
1.051495542E0,-1.139423577E-3,-1.418963075E-4,-6.901565939E-2,6.902521034E-2
1.061451542E0,4.914961755E-4,1.085021533E-3,-7.494465262E-2,7.495411794E-2
1.071407542E0,-3.684042022E-4,-3.197928891E-4,-8.475873619E-2,8.476014010E-2
1.081363542E0,1.606063452E-3,2.258945256E-3,-8.363462240E-2,8.368053738E-2
1.091319542E0,2.270514378E-3,-2.375721000E-3,-7.943014801E-2,7.949809871E-2
1.101275542E0,1.259045908E-3,-3.796825185E-4,-7.048432529E-2,7.049659188E-2
1.111231542E0,6.994680734E-4,9.573828429E-4,-6.660907716E-2,6.661962922E-2
1.121187542E0,4.438046017E-4,7.696300745E-4,-6.797128171E-2,6.797708754E-2
1.131143542E0,2.158352640E-3,-1.553010195E-3,-7.147985697E-2,7.152929665E-2
1.141099542E0,5.458086962E-4,-2.121861093E-3,-7.788155973E-2,7.791237095E-2
1.151055542E0,-1.034417655E-4,-6.740391254E-4,-8.299521357E-2,8.299801506E-2
1.161011542E0,-1.414516009E-3,-4.996024072E-4,-7.948943228E-2,7.950358672E-2
1.170967542E0,-2.234870335E-4,5.481392145E-5,-7.883720100E-2,7.883753682E-2
1.180923542E0,-1.227232395E-3,-6.764894351E-4,-7.204400748E-2,7.205763493E-2
1.190879542E0,-2.000463661E-3,-1.283199526E-3,-6.847544014E-2,6.851667212E-2
1.200835542E0,2.055530436E-3,-4.722643644E-5,-7.088879496E-2,7.091860607E-2
1.210791542E0,4.664659500E-4,-6.259288639E-4,-7.505798340E-2,7.506204267E-2
1.220747542E0,-3.615107853E-4,-1.151338220E-4,-7.728252560E-2,7.728345689E-2
1.230703542E0,-1.280092401E-4,1.257007010E-3,-8.144909889E-2,8.145889861E-2
1.240659542E0,3.264058847E-3,3.747018054E-4,-7.927276194E-2,7.934081716E-2
1.250615542E0,1.096675522E-3,-1.942915842E-4,-7.406393439E-2,7.407230807E-2
1.260570542E0,1.997889252E-3,-2.372757532E-3,-7.453611493E-2,7.460062981E-2
1.270526542E0,6.185944076E-4,9.888783097E-4,-6.961194426E-2,6.962171588E-2
1.280482542E0,-3.551649395E-3,-9.129941463E-5,-7.188921422E-2,7.197695235E-2
1.290438542E0,-1.814404735E-3,2.811569721E-4,-7.535871863E-2,7.538108243E-2
1.300394542E0,8.639363805E-4,-1.465464011E-4,-8.058623970E-2,8.059100378E-2
1.310350542E0,-2.881370019E-4,8.547306061E-5,-8.541447669E-2,8.541500546E-2
1.320306542E0,5.114974920E-5,9.190421551E-4,-8.058723062E-2,8.059248721E-2
1.330262542E0,2.427761443E-3,-1.731003635E-3,-7.621964812E-2,7.627794674E-2
1.340218542E0,4.449870903E-5,1.854067668E-4,-7.113753259E-2,7.113778812E-2
1.350174542E0,6.064109039E-4,-9.116511792E-4,-7.018882781E-2,7.019736741E-2
1.360130542E0,-1.156335464E-3,-6.820866838E-4,-7.015154511E-2,7.016439008E-2
1.370086542E0,-1.854446018E-4,2.286419272E-3,-7.504606992E-2,7.508112088E-2
1.380042542E0,9.767245501E-7,-2.379911020E-4,-7.950047404E-2,7.950083026E-2
1.389998542E0,4.094187170E-5,-9.220102802E-4,-7.946997136E-2,7.947533030E-2
1.399954542E0,1.154675847E-3,-1.412563957E-3,-7.786142081E-2,7.788279312E-2
1.409910542E0,1.367463963E-3,-8.148401976E-4,-7.377704233E-2,7.379421317E-2
1.419866542E0,8.372286102E-4,-2.931263298E-4,-7.028537244E-2,7.029096993E-2
1.429822542E0,-9.613139555E-4,-1.737596467E-4,-7.279521227E-2,7.280176678E-2
1.439778542E0,-1.765055815E-3,-1.530373469E-3,-7.695001364E-2,7.698546658E-2
1.449734542E0,1.422575791E-3,2.210577950E-4,-8.047118783E-2,8.048406463E-2
1.459690542E0,-8.315236773E-4,-2.596566454E-3,-8.183978498E-2,8.188518788E-2
1.469646542E0,1.861322206E-3,6.819004193E-4,-7.834479958E-2,7.836987386E-2
1.479602542E0,-2.803918906E-4,-1.464607194E-3,-7.389998436E-2,7.391502812E-2
1.489558542E0,-6.241566734E-4,3.433078527E-4,-6.968764216E-2,6.969128282E-2
1.499514542E0,-6.483914331E-4,-1.754996367E-3,-6.685643643E-2,6.688260997E-2
1.509470542E0,2.097685356E-4,2.378578298E-3,-7.564477623E-2,7.568245376E-2
1.519426542E0,1.914990600E-3,-8.371891454E-4,-8.288377523E-2,8.291012165E-2
1.529382542E0,1.510330942E-3,1.878980547E-4,-8.329755068E-2,8.331145392E-2
1.539338542E0,-5.426999414E-4,-1.672320068E-3,-8.196330816E-2,8.198216307E-2
1.549294542E0,1.509545837E-4,-1.934882253E-3,-7.466857880E-2,7.469379638E-2
1.559250542E0,-1.836029929E-3,-9.742798284E-4,-7.066237926E-2,7.069294215E-2
1.569206542E0,2.571995370E-3,5.920622498E-4,-6.973882765E-2,6.978875109E-2
1.579162542E0,1.106457785E-3,-2.837023698E-3,-7.214952260E-2,7.221375606E-2
1.589118542E0,-1.188148395E-3,-3.884732723E-5,-7.630740851E-2,7.631666790E-2
1.599074542E0,4.386380315E-3,-2.329917625E-4,-7.982517779E-2,7.994594190E-2
1.609030542E0,3.728853189E-4,-1.926878467E-4,-8.148961514E-2,8.149069608E-2
1.618986542E0,1.727901632E-3,-4.515470937E-4,-7.812604308E-2,7.814645319E-2
1.628942542E0,2.981176833E-3,-2.353880554E-4,-6.869002432E-2,6.875508900E-2
1.638898542E0,-6.734790513E-4,1.345248893E-4,-7.124292850E-2,7.124623873E-2
1.648854542E0,2.156766597E-3,2.359980717E-4,-7.246992737E-2,7.250239796E-2
1.658810542E0,3.320568008E-3,1.104720868E-3,-7.569368184E-2,7.577453431E-2
1.668766542E0,-8.851086022E-4,2.855593339E-4,-7.824202627E-2,7.824755355E-2
1.678722542E0,-5.098691909E-4,4.671867937E-4,-8.121065795E-2,8.121360228E-2
1.688678542E0,3.225438413E-4,-9.343195707E-4,-8.094136417E-2,8.094739910E-2
1.698634542E0,2.633901313E-3,-1.090381294E-3,-7.548002154E-2,7.553383360E-2
1.708590542E0,1.997704385E-3,1.215639524E-3,-7.059855014E-2,7.063726980E-2
1.718545542E0,7.052723668E-4,9.935311973E-4,-6.999508291E-2,7.000568652E-2
1.728501542E0,1.197447302E-3,-1.507313922E-3,-7.237302512E-2,7.239862319E-2
1.738457542E0,-2.369312569E-4,1.414972357E-3,-7.606523484E-2,7.607876336E-2
1.748413542E0,7.210274925E-4,-3.257514909E-4,-8.042789251E-2,8.043178406E-2
1.758369542E0,1.852071960E-3,-1.181424595E-3,-7.723742723E-2,7.726866183E-2
1.768325542E0,7.128763827E-4,-2.720235847E-3,-7.785139233E-2,7.790216405E-2
1.778281542E0,-1.683636801E-4,-1.714093611E-3,-7.375891507E-2,7.377902151E-2
1.788237542E0,-5.851035239E-4,-9.092567489E-4,-7.361190021E-2,7.361984071E-2
1.798193542E0,1.589367515E-3,-2.603826113E-3,-7.269443572E-2,7.275841521E-2
1.808149542E0,1.835847739E-3,1.340935007E-3,-7.208812237E-2,7.212396155E-2
1.818105542E0,9.072034736E-4,-6.862627342E-4,-7.578219473E-2,7.579073171E-2
1.828061542E0,2.808285411E-3,5.711894482E-4,-7.871665806E-2,7.876880715E-2
1.838017542E0,4.718941636E-4,9.783869609E-4,-7.888496667E-2,7.889244509E-2
1.847973542E0,1.921346528E-3,-1.362598501E-3,-7.906144112E-2,7.909652154E-2
1.857929542E0,1.941053895E-3,2.485136501E-3,-7.568135858E-2,7.574702390E-2
1.867885542E0,2.040769439E-3,-1.655401662E-3,-7.355670631E-2,7.360362856E-2
1.877841542E0,2.110011643E-3,-1.259122975E-3,-7.382834703E-2,7.386922475E-2
1.887797542E0,3.354935907E-4,-4.156585783E-5,-7.705073804E-2,7.705147965E-2
1.897753542E0,7.165919524E-4,-1.596584916E-3,-7.970218360E-2,7.972139398E-2
1.907709542E0,1.367158256E-3,-2.152459696E-3,-8.320545405E-2,8.324451807E-2
1.917665542E0,1.978619955E-3,9.754225612E-4,-7.797660679E-2,7.800780469E-2
1.927621542E0,4.465345992E-4,1.482884400E-3,-7.241054624E-2,7.242710505E-2
1.937577542E0,-1.807564870E-3,1.948138699E-3,-7.057376206E-2,7.062378088E-2
1.947533542E0,-1.900090487E-3,-1.625518315E-3,-7.146038115E-2,7.150411686E-2
1.957489542E0,2.340194304E-3,-1.093684696E-3,-7.752653211E-2,7.756955483E-2
1.967445542E0,2.268176991E-3,-2.655480057E-4,-8.509562910E-2,8.512626642E-2
1.977401542E0,2.591751050E-3,1.413841732E-3,-8.262901008E-2,8.268173576E-2
1.987357542E0,2.179355593E-3,1.383764669E-3,-8.091168851E-2,8.095286118E-2
1.997313542E0,-2.239095047E-3,-1.057554968E-3,-7.261114568E-2,7.265335812E-2
2.007269542E0,2.464610850E-3,-1.431731507E-4,-7.016064227E-2,7.020406348E-2
2.017224792E0,5.684688222E-5,1.182015985E-3,-7.205867767E-2,7.206839405E-2
2.027180792E0,2.022718079E-3,-1.549003646E-4,-7.515324652E-2,7.518062147E-2
2.037136792E0,-9.925129125E-4,-6.832713261E-4,-7.934213430E-2,7.935128365E-2
2.047092792E0,2.280251123E-3,6.549283862E-4,-7.812000066E-2,7.815601691E-2
2.057048792E0,1.725780894E-3,-1.299288124E-5,-7.984546572E-2,7.986411512E-2
2.067004792E0,1.505938708E-3,1.388583332E-4,-7.481203228E-2,7.482731658E-2
2.076960792E0,3.509257222E-4,-2.694046125E-4,-7.341227680E-2,7.341360986E-2
2.086916792E0,-1.191365533E-3,2.410969697E-3,-7.373924553E-2,7.378826776E-2
2.096872792E0,-2.882875269E-4,-1.161128283E-3,-7.449212670E-2,7.450173333E-2
2.106828792E0,1.094016712E-3,-9.541744366E-4,-7.307277620E-2,7.308719411E-2
2.116784792E0,2.032514662E-3,-8.704978973E-5,-7.581556588E-2,7.584285546E-2
2.126739792E0,8.305982919E-4,-2.197380178E-3,-7.811044902E-2,7.814576520E-2
2.136695792E0,2.841177047E-4,-8.527506143E-4,-7.735864073E-2,7.736386238E-2
2.146651792E0,-1.920824754E-3,6.446549669E-4,-7.347559929E-2,7.350352943E-2
2.156607792E0,1.479765633E-3,-2.701412886E-4,-7.196798176E-2,7.198370010E-2
2.166563792E0,4.189898027E-4,-1.892399043E-3,-7.157143950E-2,7.159767929E-2
2.176519792E0,7.670649793E-4,-1.985343173E-3,-7.668257505E-2,7.671210655E-2
2.186475792E0,3.108699806E-3,-1.135361381E-3,-8.008959889E-2,8.015794977E-2
2.196431792E0,-1.052031294E-4,4.928950220E-4,-7.953432947E-2,7.953592634E-2
2.206387792E0,2.223417163E-3,-4.423875362E-5,-8.089319617E-2,8.092375873E-2
2.216343792E0,1.038044225E-3,-3.680791706E-4,-7.310558110E-2,7.311387698E-2
2.226299792E0,-2.640506718E-3,8.031781763E-4,-6.782428175E-2,6.788041371E-2
2.236255792E0,7.132117753E-4,-2.066921443E-4,-6.946505606E-2,6.946902480E-2
2.246211792E0,-8.961865678E-4,-7.651299238E-4,-7.384207845E-2,7.385148017E-2
2.256167792E0,-5.808973219E-5,1.038601622E-4,-7.796944678E-2,7.796953759E-2
2.266123792E0,1.502823085E-3,1.885086298E-3,-7.976023853E-2,7.979666458E-2
2.276079792E0,4.099139012E-3,-1.831621863E-3,-7.755114883E-2,7.768100453E-2
2.286035792E0,-1.900333446E-4,-1.273045316E-3,-7.390409708E-2,7.391530506E-2
2.295991792E0,2.544482704E-4,3.674617037E-4,-6.903770566E-2,6.903915248E-2
2.305947792E0,3.964401549E-4,5.238251761E-4,-6.986411661E-2,6.986720509E-2
2.315903792E0,-1.731159166E-3,1.331029460E-3,-7.566794008E-2,7.569944324E-2
2.325859792E0,1.847655745E-3,-1.505683176E-3,-8.166132122E-2,8.169609720E-2
2.335815792E0,-6.053819088E-4,7.649278268E-4,-8.308531344E-2,8.309103990E-2
2.345771792E0,1.571956207E-3,-7.139984518E-5,-8.125167340E-2,8.126690947E-2
2.355727792E0,2.161047421E-3,7.741535082E-4,-7.525077462E-2,7.528577901E-2
2.365683792E0,1.160831889E-3,4.347804934E-4,-7.206832618E-2,7.207898586E-2
2.375639792E0,2.165908925E-3,-1.652338542E-3,-7.251574099E-2,7.256689380E-2
2.385595792E0,-1.699597342E-3,-1.060912386E-3,-7.583611459E-2,7.586257603E-2
2.395551792E0,-5.083438009E-5,2.006273717E-4,-7.795279473E-2,7.795306948E-2
2.405507792E0,1.410932513E-3,-4.618177190E-4,-7.904931903E-2,7.906325850E-2
2.415463792E0,2.222397830E-3,1.112376340E-3,-7.953880727E-2,7.957762434E-2
2.425419792E0,6.331613404E-4,-1.118532382E-3,-7.648705691E-2,7.649785541E-2
2.435375792E0,2.097900026E-3,-3.550043330E-4,-7.399380952E-2,7.402439503E-2
2.445331792E0,-2.868206939E-4,9.533222765E-4,-7.200724632E-2,7.201412786E-2
2.455287792E0,1.184309484E-3,3.451633267E-3,-7.512527704E-2,7.521385253E-2
2.465243792E0,1.438445761E-3,-9.933169931E-4,-7.818076760E-2,7.820030835E-2
2.475199792E0,-1.570127322E-3,-8.090259507E-4,-8.103114367E-2,8.105039214E-2
2.485155792E0,5.353799788E-4,2.438470721E-3,-7.869645953E-2,7.873604965E-2
2.495111792E0,4.208411556E-3,-5.866140127E-4,-7.501463592E-2,7.513488169E-2
2.505066792E0,1.419243985E-3,1.449848525E-3,-7.093261182E-2,7.096162156E-2
2.515022792E0,-2.905054716E-4,1.489529386E-3,-6.455407292E-2,6.457190892E-2
2.524978792E0,8.330359124E-4,-8.318610489E-4,-7.255399227E-2,7.256354275E-2
2.534934792E0,1.100417227E-3,1.207320951E-3,-7.518839091E-2,7.520613452E-2
2.544890792E0,4.087789450E-3,1.652985811E-4,-7.894834876E-2,7.905427957E-2
2.554846792E0,1.250723843E-3,7.701022550E-4,-8.287891001E-2,8.289192416E-2
2.564802792E0,2.211622661E-3,-4.064906389E-4,-8.230803162E-2,8.233874288E-2
2.574758792E0,1.525059808E-3,6.025815383E-4,-7.537875324E-2,7.539658714E-2
2.584714792E0,2.875296399E-3,1.730487682E-3,-7.205015421E-2,7.212826518E-2
2.594670792E0,-8.747007232E-4,-1.237072982E-3,-7.191353291E-2,7.192949094E-2
2.604626792E0,-2.612884622E-3,-2.189129591E-4,-7.398961484E-2,7.403606009E-2
2.614582792E0,3.665517550E-3,1.311605796E-3,-7.624478638E-2,7.634411424E-2
2.624538792E0,1.528009307E-3,1.051784493E-3,-8.071682602E-2,8.073813886E-2
2.634494792E0,2.566908486E-3,1.182013191E-3,-8.077648282E-2,8.082590149E-2
2.644450792E0,2.690040041E-3,1.516975462E-3,-7.585354894E-2,7.591639097E-2
2.654406792E0,-2.391804010E-3,-2.218028530E-4,-6.873971224E-2,6.878166879E-2
2.664362792E0,-9.592530550E-4,1.491080038E-3,-7.019735873E-2,7.021974550E-2
2.674318792E0,5.523571745E-4,-1.539597288E-3,-7.020215690E-2,7.022120970E-2
2.684274792E0,1.729391050E-3,1.887558028E-4,-7.381641120E-2,7.383690801E-2
2.694230792E0,1.680655172E-3,-2.026727423E-3,-8.126500249E-2,8.130764328E-2
2.704186792E0,2.968204208E-3,9.505441412E-4,-8.065290004E-2,8.071309717E-2
2.714142792E0,3.736259649E-3,6.317906082E-5,-7.692127675E-2,7.701198896E-2
2.724098792E0,-6.823792355E-4,-6.262212992E-5,-7.499812543E-2,7.500125587E-2
2.734054792E0,1.328573679E-3,1.354445703E-3,-7.202550769E-2,7.205049194E-2
2.744010792E0,-3.724133130E-4,3.344994038E-4,-7.331803441E-2,7.331974326E-2
2.753966792E0,-9.066434577E-4,1.533987001E-3,-7.775565982E-2,7.777607442E-2
2.763922792E0,1.665483229E-3,2.951128408E-4,-8.186977357E-2,8.188724412E-2
2.773878792E0,1.499301987E-3,3.667520359E-4,-7.961221039E-2,7.962717160E-2
2.783834792E0,-1.571557135E-3,-9.439699352E-5,-7.670368999E-2,7.671984594E-2
2.793790792E0,2.543026581E-3,1.179393381E-3,-7.455585152E-2,7.460853134E-2
2.803746792E0,1.962159527E-3,6.015403196E-4,-7.355631888E-2,7.358494389E-2
2.813702792E0,2.156836679E-3,1.597030088E-3,-7.595103979E-2,7.599844008E-2
2.823658792E0,1.324136276E-3,-9.981356561E-4,-7.861956954E-2,7.863705441E-2
2.833614792E0,1.584707061E-4,2.371892333E-5,-7.882090658E-2,7.882106945E-2
2.843570792E0,-1.842209604E-4,-9.761955589E-4,-7.627367228E-2,7.628014144E-2
2.853526792E0,4.163218546E-4,-3.823107108E-4,-7.504116744E-2,7.504329614E-2
2.863482792E0,-1.782126492E-4,2.142246813E-4,-7.457351685E-2,7.457403748E-2
2.873438792E0,2.577892737E-3,-3.905789927E-4,-7.700977474E-2,7.705389990E-2
2.883393792E0,5.441128160E-4,1.197248697E-3,-7.634894550E-2,7.636027070E-2
2.893349792E0,1.212832518E-3,-6.411317736E-4,-7.664269209E-2,7.665496894E-2
2.903305792E0,-4.799673334E-4,-1.166742295E-4,-7.582066953E-2,7.582227845E-2
2.913261792E0,4.593296326E-4,-2.525770105E-3,-7.768488675E-2,7.772729333E-2
2.923217792E0,1.253746683E-3,7.461337373E-4,-7.867160439E-2,7.868513160E-2
2.933173792E0,7.562682149E-4,-1.286922954E-3,-7.525796443E-2,7.527276614E-2
2.943129792E0,8.102724096E-4,6.104577333E-4,-7.735114545E-2,7.735779794E-2
2.953085792E0,3.296333365E-3,-8.036661893E-5,-7.536336035E-2,7.543545821E-2
2.963041792E0,1.095387968E-3,-2.856729552E-4,-7.268567383E-2,7.269448854E-2
2.972997792E0,-6.116982549E-4,-6.025889888E-4,-7.411152869E-2,7.411650271E-2
2.982953792E0,2.512979554E-3,-1.990380697E-3,-7.459054887E-2,7.465940438E-2
2.992909792E0,7.891153800E-4,-9.887656197E-4,-7.775491476E-2,7.776520514E-2
3.002865792E0,1.646056655E-3,-2.646073699E-4,-7.879577577E-2,7.881341129E-2
3.012822375E0,2.639415674E-3,3.457888961E-4,-7.695899159E-2,7.700501588E-2
3.022778375E0,5.989249912E-4,-8.329357952E-4,-7.478232682E-2,7.478936353E-2
3.032734375E0,-9.829927003E-4,-1.654787920E-3,-7.069969922E-2,7.072589390E-2
3.042690375E0,2.133760136E-4,-4.845634103E-4,-7.070636004E-2,7.070834238E-2
3.052646375E0,-3.070301376E-3,1.225718297E-3,-7.542680949E-2,7.549922334E-2
3.062602375E0,-1.473067096E-4,-1.260811463E-3,-7.625135779E-2,7.626192307E-2
3.072558375E0,9.358009556E-4,-3.390917554E-4,-7.879174501E-2,7.879803162E-2
3.082514375E0,-9.776876541E-4,2.432214096E-4,-7.811608166E-2,7.812257832E-2
3.092470375E0,2.407456283E-3,1.565480605E-3,-7.446914911E-2,7.452449762E-2
3.102426375E0,-8.104906883E-4,-7.837750018E-4,-7.251156867E-2,7.252033362E-2
3.112382375E0,1.957066357E-3,-1.973472536E-4,-7.048756629E-2,7.051500590E-2
3.122338375E0,1.996125095E-3,6.728470325E-4,-7.215215266E-2,7.218289528E-2
3.132294375E0,-1.531498041E-3,6.313016638E-4,-7.658684999E-2,7.660476238E-2
3.142250375E0,1.849845401E-3,1.452437602E-3,-8.005984873E-2,8.009438733E-2
3.152206375E0,4.818471149E-3,1.166414469E-3,-8.051018417E-2,8.066267998E-2
3.162162375E0,2.023200039E-3,-8.673742414E-4,-7.735330611E-2,7.738462149E-2
3.172118375E0,5.709781544E-4,-2.521844581E-4,-7.680576295E-2,7.680829926E-2
3.182074375E0,9.718490764E-5,8.861897513E-4,-7.106272131E-2,7.106831317E-2
3.192030375E0,5.510693882E-5,3.753956407E-4,-7.256048173E-2,7.256147371E-2
3.201986375E0,8.808514103E-4,-1.689030789E-3,-7.585056871E-2,7.587448516E-2
3.211942375E0,2.101910766E-3,-1.459732652E-3,-8.109327406E-2,8.113364250E-2
3.221898375E0,1.556167030E-3,-1.063321717E-3,-8.377114683E-2,8.379234661E-2
3.231853375E0,1.639523893E-3,9.241951630E-4,-8.067042381E-2,8.069237543E-2
3.241809375E0,2.045988804E-4,2.144202590E-4,-7.582914829E-2,7.582972747E-2
3.251765375E0,1.196360099E-3,-1.918771304E-3,-7.040242851E-2,7.043873154E-2
3.261721375E0,-9.282629471E-4,2.118024044E-3,-6.856257468E-2,6.860156227E-2
3.271677375E0,6.232946180E-4,-1.888060942E-4,-7.081401348E-2,7.081700819E-2
3.281633375E0,-1.823852188E-3,-4.147971049E-4,-7.689025253E-2,7.691299908E-2
3.291589375E0,-1.553807524E-3,-2.046249807E-3,-8.100296557E-2,8.104370356E-2
3.301545375E0,1.098365523E-3,7.746648043E-4,-8.276571333E-2,8.277662602E-2
3.311501375E0,-7.016650634E-4,-8.879471570E-4,-7.731741667E-2,7.732569886E-2
3.321457375E0,3.184573259E-3,-1.618303359E-4,-7.221287489E-2,7.228324146E-2
3.331413375E0,-5.158890272E-4,1.979712397E-5,-7.004798949E-2,7.004989197E-2
3.341369375E0,1.684507122E-3,1.529460773E-3,-7.255562395E-2,7.259128998E-2
3.351325375E0,-6.375031080E-4,2.154238522E-3,-7.729551941E-2,7.732816094E-2
3.361281375E0,1.751782373E-3,-1.741172746E-4,-7.963517308E-2,7.965462855E-2
3.371237375E0,6.180747296E-4,-4.556132481E-4,-7.591632754E-2,7.592021066E-2
3.381193375E0,8.287868695E-4,7.999558002E-4,-7.689619064E-2,7.690481749E-2
3.391149375E0,-2.926536603E-3,-4.485342652E-4,-7.270384580E-2,7.276410512E-2
3.401105375E0,2.244480187E-3,-1.396753825E-3,-7.108991593E-2,7.113905228E-2
3.411061375E0,1.505452907E-3,-1.579180360E-3,-7.042785734E-2,7.046164409E-2
3.421017375E0,-1.862689387E-3,-2.758679911E-4,-7.218204439E-2,7.220660113E-2
3.430973375E0,-1.663484843E-3,-1.072951593E-3,-7.499194890E-2,7.501806987E-2
3.440929375E0,1.040571718E-3,1.423823647E-3,-7.899553329E-2,7.901521589E-2
3.450885375E0,3.247799817E-3,4.570959136E-4,-7.882029563E-2,7.888850451E-2
3.460841375E0,1.797379227E-3,-3.030281514E-4,-7.778999954E-2,7.781135153E-2
3.470797375E0,1.418411266E-3,-2.618114464E-3,-7.385651022E-2,7.391651044E-2
3.480753375E0,8.962223073E-4,-1.576710492E-3,-7.408002764E-2,7.410222484E-2
3.490709375E0,2.720487770E-3,3.218576312E-4,-7.436632365E-2,7.441676383E-2
3.500665375E0,2.231388935E-4,-1.265093684E-3,-7.774524391E-2,7.775585639E-2
3.510621375E0,3.070284729E-4,7.527507842E-5,-7.709223777E-2,7.709288591E-2
3.520577375E0,6.638858467E-4,-4.497794434E-4,-7.621879876E-2,7.622301706E-2
3.530533375E0,-6.109693786E-4,-9.624380618E-4,-7.303712517E-2,7.304602127E-2
3.540489375E0,1.297730021E-3,-1.109059900E-3,-7.420921326E-2,7.422884513E-2
3.550445375E0,1.603194512E-3,6.899060681E-4,-7.563666999E-2,7.565680439E-2
3.560401375E0,-4.383806372E-4,1.430275850E-3,-7.666298747E-2,7.667758156E-2
3.570356375E0,7.214259822E-4,-2.973163500E-4,-7.872773707E-2,7.873160380E-2
3.580312375E0,-1.965779345E-3,-6.484724581E-4,-7.767537236E-2,7.770294896E-2
3.590268375E0,1.279815217E-3,-1.823458821E-3,-7.769614458E-2,7.772807608E-2
3.600224375E0,4.419037723E-4,-1.390540041E-3,-7.538370043E-2,7.539781941E-2
3.610180375E0,1.556170406E-3,-6.508454680E-5,-7.303532213E-2,7.305192798E-2
3.620136375E0,2.778900322E-3,1.525493339E-3,-7.851924002E-2,7.858320731E-2
3.630092375E0,1.452645985E-3,2.422712743E-3,-7.525793463E-2,7.531093176E-2
3.640048375E0,2.127327956E-3,-5.566421896E-4,-7.720876485E-2,7.724007214E-2
3.650004375E0,3.572092857E-3,7.922491059E-4,-7.763859630E-2,7.772476530E-2
3.659960375E0,2.082110383E-3,1.322757453E-4,-7.650788873E-2,7.653632941E-2
3.669916375E0,8.101845160E-4,1.733634621E-3,-7.568071038E-2,7.570489952E-2
3.679872375E0,-5.346648395E-4,-1.997677609E-4,-7.235056162E-2,7.235281294E-2
3.689828375E0,1.220706617E-4,2.293483354E-3,-7.501691580E-2,7.505206608E-2
3.699784375E0,2.136438619E-3,-1.322155818E-3,-7.774084806E-2,7.778143688E-2
3.709740375E0,1.201593550E-4,9.784102440E-5,-8.019868284E-2,8.019883254E-2
3.719696375E0,2.258657478E-3,-1.596887596E-3,-8.253762126E-2,8.258396035E-2
3.729652375E0,1.240264857E-3,8.955644444E-4,-8.068698645E-2,8.070148744E-2
3.739608375E0,1.287842169E-4,2.284140326E-3,-7.749683410E-2,7.753059511E-2
3.749564375E0,1.550912275E-3,-1.353737898E-3,-7.863666862E-2,7.866361031E-2
3.759520375E0,3.022738965E-4,1.235908829E-3,-7.646781206E-2,7.647839644E-2
3.769476375E0,1.691112411E-3,1.098755747E-3,-7.724624872E-2,7.727256995E-2
3.779432375E0,-8.993034717E-4,-3.671569750E-3,-7.723221928E-2,7.732467178E-2
3.789388375E0,2.694099676E-3,6.121248007E-4,-8.098141849E-2,8.102853208E-2
3.799344375E0,2.145844977E-3,3.012660891E-4,-7.763833553E-2,7.766856864E-2
3.809300375E0,3.194492310E-4,2.267744392E-3,-7.396210730E-2,7.399755421E-2
3.819256375E0,1.661830116E-3,-1.230577007E-3,-7.508207858E-2,7.511054868E-2
3.829212375E0,-1.318088034E-4,3.068661317E-4,-7.344610244E-2,7.344686177E-2
3.839168375E0,1.583311241E-3,2.934932709E-3,-7.670000196E-2,7.677246254E-2
3.849124375E0,-1.705426257E-3,-2.852914855E-3,-7.516575605E-2,7.523920842E-2
3.859080375E0,-1.974850195E-3,6.725974381E-4,-7.621823996E-2,7.624678697E-2
3.869036375E0,-4.597778898E-4,-1.596149988E-3,-7.661451399E-2,7.663251820E-2
3.878992375E0,3.122479422E-3,-4.467085004E-3,-7.508222759E-2,7.527978232E-2
3.888948375E0,1.950954786E-3,2.496282570E-3,-8.011933416E-2,8.018195157E-2
3.898904375E0,1.256953692E-4,1.375710592E-3,-7.537742704E-2,7.539008480E-2
3.908860375E0,-1.555344788E-4,-1.063478179E-3,-7.591991127E-2,7.592751875E-2
3.918815375E0,2.769642044E-3,-6.798487157E-4,-7.318185270E-2,7.323739943E-2
3.928771375E0,7.552270545E-4,-1.697177067E-3,-7.671958953E-2,7.674207578E-2
3.938727375E0,-9.591958951E-5,-2.353880554E-4,-7.579201460E-2,7.579244082E-2
3.948683375E0,2.497733105E-3,-4.633544013E-4,-7.874172926E-2,7.878269667E-2
3.958639375E0,2.380659571E-3,-2.747019753E-4,-7.747003436E-2,7.750709145E-2
3.968595375E0,5.864879349E-4,-9.612645954E-4,-7.850839943E-2,7.851647457E-2
3.978551375E0,1.365236705E-3,-6.591072306E-4,-7.871854305E-2,7.873313987E-2
3.988507375E0,1.026749029E-3,-1.173630357E-3,-7.409502566E-2,7.411143265E-2
3.998463375E0,4.460079945E-4,8.413568139E-5,-7.411889732E-2,7.412028698E-2
4.008419375E0,3.123173374E-4,-2.530822530E-3,-7.298678905E-2,7.303132191E-2
4.018375875E0,7.131829625E-4,9.039677680E-4,-7.585670799E-2,7.586544625E-2
4.028331875E0,-7.837798912E-4,1.495456323E-3,-7.849590480E-2,7.851406098E-2
4.038287875E0,1.063901000E-4,-1.667610370E-3,-7.927123457E-2,7.928884457E-2
4.048243875E0,1.247554552E-3,-1.430056058E-3,-7.596492022E-2,7.598862123E-2
4.058199875E0,-1.255595475E-3,-6.456412375E-4,-7.747942954E-2,7.749229236E-2
4.068155875E0,3.093346488E-3,-1.392924227E-3,-7.521280646E-2,7.528927737E-2
4.078111875E0,1.500817016E-3,5.486328155E-5,-7.175522298E-2,7.177093761E-2
4.088067875E0,-8.574121166E-4,-2.561958507E-3,-7.568152249E-2,7.572972754E-2
4.098023875E0,-3.083032789E-4,3.701187670E-4,-7.266005129E-2,7.266164801E-2
4.107979875E0,1.342590200E-3,1.340308227E-3,-7.344994694E-2,7.347444236E-2
4.117935875E0,-4.751787055E-4,8.954741061E-4,-7.739989460E-2,7.740653301E-2
4.127891875E0,8.516081143E-4,-1.431862824E-3,-7.548055053E-2,7.549893360E-2
4.137847875E0,9.676063783E-4,-6.918413565E-4,-7.794166356E-2,7.795073974E-2
4.147803875E0,1.269608852E-3,-4.902398214E-4,-7.508782297E-2,7.510015580E-2
4.157759875E0,3.679839429E-4,-4.336331040E-4,-7.366078347E-2,7.366297897E-2
4.167715875E0,-4.152517067E-4,-5.910256878E-4,-7.503683865E-2,7.504031516E-2
4.177671875E0,1.900085248E-3,-1.150638796E-3,-7.530862838E-2,7.534138174E-2
4.187627875E0,2.013802063E-3,1.421175897E-3,-7.770494372E-2,7.774402496E-2
4.197583875E0,1.218524761E-3,-1.013624482E-3,-7.961869240E-2,7.963446751E-2
4.207539875E0,-7.708566263E-4,-2.561453730E-3,-7.604712248E-2,7.609415288E-2
4.217495875E0,-4.079787759E-4,-1.988532022E-4,-7.633894682E-2,7.634029598E-2
4.227451875E0,7.696710527E-4,-1.019905321E-3,-7.202941924E-2,7.204075122E-2
4.237406875E0,-1.489063026E-3,-7.541263476E-4,-7.120939344E-2,7.122895289E-2
4.247362875E0,-3.317322815E-3,-1.814597286E-3,-7.464194298E-2,7.473765480E-2
4.257318875E0,-1.202308340E-3,1.894736663E-3,-7.334205508E-2,7.337637642E-2
4.267274875E0,-1.042784890E-3,-2.243407071E-4,-7.511226088E-2,7.511983402E-2
4.277230875E0,-7.678185357E-4,-6.549684331E-4,-7.793819159E-2,7.794472553E-2
4.287186875E0,4.250112688E-4,1.509116031E-3,-7.392667234E-2,7.394329550E-2
4.297142875E0,-8.635887643E-4,1.349215396E-3,-7.398840785E-2,7.400574751E-2
4.307098875E0,-1.436701044E-3,-7.352409884E-4,-7.641641051E-2,7.643345134E-2
4.317054875E0,7.956709014E-4,-9.971847758E-4,-7.724441588E-2,7.725494971E-2
4.327010875E0,1.963999588E-3,-2.147480845E-4,-7.703642547E-2,7.706175615E-2
4.336966875E0,9.327358566E-4,-1.535497606E-3,-7.817695290E-2,7.819759404E-2
4.346922875E0,1.239798381E-3,1.083721407E-3,-7.888322324E-2,7.890040849E-2
4.356878875E0,3.885294776E-3,2.999380231E-4,-7.546386123E-2,7.556440848E-2
4.366834875E0,3.945748322E-3,-1.605819911E-3,-7.411257178E-2,7.423490340E-2
4.376790875E0,-8.145814063E-4,7.590679452E-4,-7.328487933E-2,7.329333711E-2
4.386746875E0,-1.599947689E-3,-2.107026055E-3,-7.386305183E-2,7.391041752E-2
4.396702875E0,1.435403014E-3,-2.004166134E-3,-7.666273415E-2,7.670235897E-2
4.406658875E0,-5.137645639E-4,1.019321382E-3,-7.521104068E-2,7.521970227E-2
4.416614875E0,-1.033847220E-3,-1.205317676E-5,-7.486055791E-2,7.486769742E-2
4.426570875E0,-1.275662333E-3,-2.410858870E-4,-7.271324843E-2,7.272483712E-2
4.436526875E0,-8.516546804E-4,-2.088792622E-3,-7.204000652E-2,7.207531415E-2
4.446482875E0,2.798740286E-3,-1.926340163E-3,-7.524485141E-2,7.532152015E-2
4.456438875E0,1.321372227E-3,3.971615806E-4,-7.532323152E-2,7.533586774E-2
4.466394875E0,2.798094880E-3,-1.648679376E-3,-7.621592283E-2,7.628508617E-2
4.476350875E0,1.840674551E-3,-6.930576637E-4,-7.514572889E-2,7.517146388E-2
4.486306875E0,1.061700052E-3,7.886439562E-6,-7.504266500E-2,7.505017548E-2
4.496262875E0,-2.632532036E-3,1.505825669E-3,-7.439563423E-2,7.445742494E-2
4.506218875E0,-3.991997801E-6,1.358552836E-3,-7.453278452E-2,7.454516517E-2
4.516174875E0,-8.543236181E-4,7.849279791E-4,-7.307142764E-2,7.308063710E-2
4.526130875E0,2.618971048E-3,1.631014049E-3,-7.523524761E-2,7.529848404E-2
4.536086875E0,8.204726037E-4,-2.461580560E-3,-7.784948498E-2,7.789271382E-2
4.546042875E0,2.758454997E-3,4.205666482E-5,-7.367258519E-2,7.372422025E-2
4.555997875E0,1.609533792E-4,2.578794956E-4,-7.593499124E-2,7.593559970E-2
4.565953875E0,-1.139468048E-3,-1.516850665E-3,-7.406012714E-2,7.408442249E-2
4.575909875E0,2.092269715E-3,-5.429899320E-4,-7.687776536E-2,7.690814805E-2
4.585865875E0,9.969261009E-5,-1.214106567E-3,-7.700826228E-2,7.701789696E-2
4.595821875E0,1.085251337E-3,-2.855891362E-4,-7.524006069E-2,7.524842898E-2
4.605777875E0,1.404031762E-3,9.727543220E-4,-7.716578990E-2,7.718469205E-2
4.615733875E0,3.068290884E-3,-1.259827986E-4,-7.498830557E-2,7.505115757E-2
4.625689875E0,-2.832973842E-4,-8.967015892E-4,-7.559577376E-2,7.560162261E-2
4.635645875E0,6.410791539E-4,1.746872440E-4,-7.844052464E-2,7.844333881E-2
4.645601875E0,2.608356299E-3,2.684304491E-4,-8.223207295E-2,8.227386826E-2
4.655557875E0,3.665597877E-3,5.026608706E-4,-7.932474464E-2,7.941098405E-2
4.665513875E0,2.012040932E-3,-1.793516800E-3,-7.707144320E-2,7.711856046E-2
4.675469875E0,-2.289993688E-3,-1.059181988E-3,-7.748442143E-2,7.752548937E-2
4.685425875E0,2.001157962E-3,5.315244198E-4,-7.543458790E-2,7.546299890E-2
4.695381875E0,-3.943153424E-4,1.702285372E-3,-7.419045269E-2,7.421102702E-2
4.705337875E0,1.658449182E-3,-3.995466977E-5,-7.664455473E-2,7.666250596E-2
4.715293875E0,2.024448011E-3,-9.730551392E-4,-7.798770815E-2,7.802004774E-2
4.725249875E0,6.747580483E-4,-2.843141556E-5,-7.845509052E-2,7.845799727E-2
4.735205875E0,1.747917035E-3,5.641775206E-4,-7.763874531E-2,7.766046796E-2
4.745161875E0,2.759385621E-3,3.420701250E-4,-7.340592146E-2,7.345856333E-2
4.755117875E0,-1.857789233E-3,1.850742847E-4,-7.356862724E-2,7.359231310E-2
4.765073875E0,-8.252600674E-5,-4.737917334E-4,-7.283812016E-2,7.283970784E-2
4.775029875E0,1.919025788E-3,1.669958234E-3,-7.662398368E-2,7.666620048E-2
4.784985875E0,1.439390471E-3,1.660902984E-3,-7.907329500E-2,7.910383319E-2
4.794941875E0,7.367751095E-4,4.636617377E-4,-8.307509124E-2,8.307965217E-2
4.804897875E0,1.541049685E-3,1.374196261E-3,-7.754450291E-2,7.757198709E-2
4.814853875E0,-2.157447394E-3,-2.774119377E-3,-7.401961088E-2,7.410298990E-2
4.824809875E0,-1.180600026E-3,5.694795400E-4,-6.947332621E-2,6.948569045E-2
4.834765875E0,2.144545782E-3,1.615560614E-3,-7.205664366E-2,7.210665024E-2
4.844721875E0,2.893160563E-3,-1.890224405E-3,-7.665006816E-2,7.672793674E-2
4.854677875E0,-7.384552155E-4,5.371747538E-4,-7.888397574E-2,7.888926101E-2
4.864633875E0,3.349230625E-3,-8.902791888E-4,-8.341987431E-2,8.349182818E-2
4.874589875E0,1.347547513E-4,7.795412093E-4,-8.023352176E-2,8.023742180E-2
4.884544875E0,8.649935480E-4,1.419801265E-4,-7.615595311E-2,7.616099767E-2
4.894500875E0,-2.040843945E-3,-9.321682155E-4,-7.125833631E-2,7.129364961E-2
4.904456875E0,-2.405470004E-4,-1.885313541E-3,-6.994246691E-2,6.996828530E-2
4.914412875E0,-1.037633629E-4,-1.432441175E-3,-7.656178623E-2,7.657525557E-2
4.924368875E0,-5.381248775E-4,8.080760017E-4,-7.861375064E-2,7.861974532E-2
4.934324875E0,1.260781894E-3,4.622442648E-4,-8.157084137E-2,8.158189384E-2
4.944280875E0,4.610346514E-4,-6.754584610E-4,-8.235221356E-2,8.235627405E-2
4.954236875E0,1.777280355E-3,1.146416180E-3,-7.480850816E-2,7.483839849E-2
4.964192875E0,1.068879501E-3,-6.943605840E-4,-7.128941268E-2,7.130080645E-2
4.974148875E0,-7.252552314E-4,5.125533789E-4,-6.984426081E-2,6.984990676E-2
4.984104875E0,1.595156966E-3,-9.295484051E-4,-6.981895864E-2,6.984336455E-2
4.994060875E0,1.628155587E-3,2.324599773E-4,-7.637028396E-2,7.638799121E-2
5.004016875E0,1.397149754E-4,1.458313316E-3,-8.293524384E-2,8.294818183E-2
5.013972792E0,1.602397417E-3,6.002625450E-4,-8.064800501E-2,8.066615588E-2
5.023928792E0,8.793491870E-4,1.683103852E-3,-7.690227032E-2,7.692571269E-2
5.033884792E0,-1.261698082E-3,2.522002906E-4,-7.185646147E-2,7.186797994E-2
5.043840792E0,-1.679378911E-4,4.913518205E-4,-7.143328339E-2,7.143517065E-2
5.053796792E0,-2.458570292E-3,-7.275715470E-4,-7.313232869E-2,7.317726032E-2
5.063752792E0,1.504479675E-3,-2.411754802E-3,-7.865732163E-2,7.870866704E-2
5.073708792E0,1.313269837E-3,1.148909330E-3,-8.258771896E-2,8.260614986E-2
5.083664792E0,-2.808984136E-4,-2.865344286E-4,-8.048568666E-2,8.048668687E-2
5.093620792E0,1.210574294E-3,7.321629673E-4,-7.648085803E-2,7.649394223E-2
5.103576792E0,5.431860918E-4,-4.121847451E-5,-7.684970647E-2,7.685163716E-2
5.113532792E0,-8.798214258E-4,4.805065691E-5,-7.389184833E-2,7.389710173E-2
5.123488792E0,-2.139230259E-3,-1.351973042E-3,-7.535818219E-2,7.540066154E-2
5.133444792E0,-1.386688789E-3,2.877889201E-4,-7.607884705E-2,7.609202781E-2
5.143400792E0,-2.215557033E-4,-1.451521181E-3,-7.868661731E-2,7.870031604E-2
5.153356792E0,-1.309586805E-3,2.608215436E-3,-7.811152190E-2,7.816602624E-2
5.163312792E0,6.960398750E-4,-1.726611517E-3,-7.534716278E-2,7.537015721E-2
5.173268792E0,-2.102262806E-3,-1.010525040E-3,-7.290266454E-2,7.293996961E-2
5.183223792E0,2.314589918E-3,-3.489963710E-4,-7.236550748E-2,7.240335488E-2
5.193179792E0,-1.212113886E-3,5.249371752E-4,-7.443769276E-2,7.444941157E-2
5.203135792E0,-2.008132637E-3,8.285325021E-5,-7.241369039E-2,7.244157658E-2
5.213091792E0,2.772527980E-3,6.883610040E-4,-7.869445533E-2,7.874628913E-2
5.223047792E0,2.832182683E-3,-8.623972535E-4,-7.906384021E-2,7.911925061E-2
5.233003792E0,8.866123972E-4,6.681419909E-4,-7.932819426E-2,7.933596221E-2
5.242959792E0,-1.251905924E-3,4.508281127E-4,-7.191741467E-2,7.192972297E-2
5.252915792E0,-8.403391112E-4,-3.356577829E-3,-6.981997192E-2,6.990565974E-2
5.262871792E0,-2.552426886E-4,4.967497662E-4,-6.922369450E-2,6.922594737E-2
5.272827792E0,-3.782167332E-4,1.919340342E-3,-7.146402448E-2,7.149079459E-2
5.282783792E0,8.492341731E-4,-1.817074604E-3,-7.760208100E-2,7.762799710E-2
5.292739792E0,8.049194003E-4,2.743480727E-3,-7.861437649E-2,7.866635095E-2
5.302695792E0,-2.664703643E-4,-1.203591004E-3,-7.842183113E-2,7.843151940E-2
5.312651792E0,-1.095606713E-4,-3.448817879E-4,-7.612474263E-2,7.612560270E-2
5.322607792E0,-1.601608237E-4,1.668201759E-3,-7.477291673E-2,7.479169490E-2
5.332563792E0,-1.248321263E-3,-8.328817785E-5,-7.364129275E-2,7.365191947E-2
5.342519792E0,2.613528632E-3,-1.270259731E-3,-7.291797549E-2,7.297585382E-2
5.352475792E0,5.314239534E-4,-1.061858609E-3,-7.196287066E-2,7.197266640E-2
5.362431792E0,1.633440028E-3,-1.138824038E-3,-7.663644850E-2,7.666231333E-2
5.372387792E0,2.217639703E-3,-7.968079299E-4,-7.811637223E-2,7.815190617E-2
5.382343792E0,5.544957239E-4,-1.435967162E-3,-7.535386831E-2,7.536958893E-2
5.392299792E0,-1.021639328E-3,3.742557019E-4,-7.559670508E-2,7.560453447E-2
5.402255792E0,1.226334949E-3,-7.469356060E-4,-7.346830517E-2,7.348233580E-2
5.412211792E0,1.551176305E-3,-1.738531515E-3,-7.724405825E-2,7.727918979E-2
5.422167792E0,7.738301065E-5,1.957137138E-3,-7.411111146E-2,7.413698953E-2
5.432123792E0,2.758964896E-3,-9.918063879E-4,-7.774923742E-2,7.780449528E-2
5.442079792E0,3.059369512E-3,-1.051994041E-3,-7.557822764E-2,7.564743833E-2
5.452035792E0,1.108356286E-3,-1.882797107E-3,-7.667162269E-2,7.670274509E-2
5.461991792E0,4.207281163E-4,6.282981485E-4,-7.690811157E-2,7.691182872E-2
5.471947792E0,-1.114321523E-3,-1.899681985E-3,-7.610405236E-2,7.613591328E-2
5.481903792E0,1.775474637E-3,-1.966261305E-3,-7.709395140E-2,7.713945707E-2
5.491859792E0,5.093661603E-4,-6.215358153E-4,-7.554365695E-2,7.554793091E-2
5.501815792E0,-4.011685960E-4,-3.311062232E-3,-7.656285167E-2,7.663546388E-2
5.511770792E0,-3.432929516E-4,-4.168022424E-4,-7.609922439E-2,7.610114011E-2
5.521726792E0,3.363457508E-4,-1.061819494E-3,-7.516153157E-2,7.516978393E-2
5.531682792E0,1.535366056E-3,1.349914819E-4,-7.559845597E-2,7.561416611E-2
5.541638792E0,-7.664540317E-5,1.064958051E-4,-7.850742340E-2,7.850753305E-2
5.551594792E0,1.001896453E-3,1.431237906E-4,-7.759090513E-2,7.759750537E-2
5.561550792E0,1.499108737E-3,-3.101462498E-4,-7.850064337E-2,7.851556870E-2
5.571506792E0,6.112027913E-4,8.529219776E-4,-7.762888074E-2,7.763597214E-2
5.581462792E0,2.493791282E-3,1.329627819E-3,-7.583098114E-2,7.588362541E-2
5.591418792E0,4.675585660E-4,1.255893148E-3,-7.466900349E-2,7.468102811E-2
5.601374792E0,4.688901245E-4,-6.293579936E-4,-7.276511192E-2,7.276934425E-2
5.611330792E0,2.581278561E-3,2.710605040E-4,-7.594586164E-2,7.599019919E-2
5.621286792E0,3.958132584E-3,-1.093276776E-3,-7.350747287E-2,7.362207981E-2
5.631242792E0,7.757111453E-4,-1.201882958E-3,-7.395596057E-2,7.396979353E-2
5.641198792E0,1.215132652E-3,-5.672406405E-5,-7.776587456E-2,7.777538821E-2
5.651154792E0,1.174861332E-3,-1.647910103E-4,-7.858833671E-2,7.859729080E-2
5.661110792E0,6.201248616E-4,2.115407959E-3,-7.722505927E-2,7.725651613E-2
5.671066792E0,-1.231464557E-3,-6.802519783E-4,-7.485488057E-2,7.486809997E-2
5.681022792E0,1.793353818E-3,-4.682643339E-4,-6.999275088E-2,7.001728762E-2
5.690978792E0,-1.073723426E-3,-2.136236057E-3,-7.016269118E-2,7.020341601E-2
5.700934792E0,4.277668195E-4,-2.378317527E-3,-7.427328080E-2,7.431258049E-2
5.710890792E0,1.111107296E-3,1.579793170E-4,-7.594722509E-2,7.595551669E-2
5.720846792E0,7.981858798E-4,5.092006177E-5,-7.942558080E-2,7.942960770E-2
5.730802792E0,6.126051303E-4,2.771689557E-3,-7.759509236E-2,7.764699547E-2
5.740758792E0,-2.243635245E-3,-4.105214030E-4,-7.454710454E-2,7.458198993E-2
5.750714792E0,-1.535164658E-3,-8.972035721E-4,-7.428354770E-2,7.430482598E-2
5.760670792E0,-1.431304263E-4,4.242565483E-4,-7.452243567E-2,7.452378075E-2
5.770626792E0,-5.413426552E-4,5.749789998E-4,-7.725930214E-2,7.726333814E-2
5.780582792E0,-5.876816576E-4,-1.552598551E-4,-8.012486249E-2,8.012716808E-2
5.790538792E0,3.286217805E-3,1.799520105E-3,-7.973983139E-2,7.982780349E-2
5.800494792E0,2.491796622E-3,-1.797406003E-4,-7.667852938E-2,7.671921679E-2
5.810450792E0,-5.923471763E-4,8.153375238E-4,-7.370239496E-2,7.370928485E-2
5.820406792E0,-1.216592267E-3,1.037178561E-3,-7.341343910E-2,7.343084417E-2
5.830361792E0,1.068761223E-3,5.704993382E-4,-7.597116381E-2,7.598082291E-2
5.840317792E0,6.663575768E-4,3.161672503E-4,-7.662949711E-2,7.663304654E-2
5.850273792E0,-5.132413935E-5,2.754278481E-3,-7.918686420E-2,7.923476602E-2
5.860229792E0,2.974026836E-3,-5.669491366E-4,-7.976689935E-2,7.982433525E-2
5.870185792E0,1.555474941E-3,2.445224673E-4,-7.836143672E-2,7.837725473E-2
5.880141792E0,7.607875741E-4,-3.203339875E-4,-7.456323504E-2,7.456780426E-2
5.890097792E0,1.328727929E-3,1.521768048E-3,-7.353392243E-2,7.356166831E-2
5.900053792E0,8.056830848E-4,-1.637469977E-4,-7.464872301E-2,7.465325033E-2
5.910009792E0,2.780648181E-3,-4.334077239E-4,-7.676362246E-2,7.681519108E-2
5.919965792E0,-8.970691124E-5,-1.162581146E-3,-7.912956923E-2,7.913816001E-2
5.929921792E0,2.703153761E-3,-4.652999341E-4,-7.921747118E-2,7.926494361E-2
5.939877792E0,-1.613563858E-3,-1.687690616E-3,-8.086117357E-2,8.089487795E-2
5.949833792E0,2.279208275E-4,-1.892251894E-4,-7.908868790E-2,7.908924268E-2
5.959789792E0,4.601484980E-4,-6.369026378E-4,-7.678132504E-2,7.678534533E-2
5.969745792E0,-8.986430475E-5,3.736670129E-3,-7.550181448E-2,7.559427736E-2
5.979701792E0,-5.231606192E-4,2.109479159E-3,-7.886592299E-2,7.889586433E-2
5.989657792E0,-1.199630788E-5,1.588302664E-3,-7.906527072E-2,7.908122333E-2
5.999613792E0,1.135559753E-3,1.628249884E-3,-7.299672812E-2,7.302371540E-2
6.009569792E0,3.406403121E-3,-1.105729491E-3,-7.467363775E-2,7.475947027E-2
6.019524875E0,2.184811048E-3,-7.549915463E-4,-7.387202233E-2,7.390818016E-2
6.029480875E0,6.580585614E-4,-7.070759311E-4,-7.612923533E-2,7.613536280E-2
6.039436875E0,-2.714302391E-3,-2.338327467E-4,-7.730049640E-2,7.734848970E-2
6.049392875E0,-1.065393561E-3,1.729875803E-4,-7.768358290E-2,7.769108083E-2
6.059348875E0,6.550085964E-4,1.408161595E-3,-8.012144268E-2,8.013649313E-2
6.069304875E0,-2.218104433E-3,-6.908122450E-4,-7.558873296E-2,7.562442568E-2
6.079260875E0,2.618728671E-3,3.030793741E-4,-7.767691463E-2,7.772163575E-2
6.089216875E0,2.542516682E-3,-1.929781400E-3,-7.499436289E-2,7.506226024E-2
6.099172875E0,5.693807034E-4,1.936862245E-3,-7.699093968E-2,7.701740337E-2
6.109128875E0,1.290341606E-4,-4.568137228E-4,-7.611304522E-2,7.611452542E-2
6.119084875E0,2.029732335E-3,-4.179319367E-4,-7.640811801E-2,7.643621510E-2
6.129039875E0,1.866212348E-3,-1.091136597E-3,-7.802179456E-2,7.805173767E-2
6.138995875E0,-5.338284536E-4,2.708043903E-4,-7.975178212E-2,7.975402848E-2
6.148951875E0,2.990132431E-3,-1.802226529E-3,-7.842188329E-2,7.849955854E-2
6.158907875E0,4.520890070E-5,-9.739836678E-4,-7.791881263E-2,7.792491290E-2
6.168863875E0,-1.915027970E-4,3.508668393E-3,-7.778465748E-2,7.786398632E-2
6.178819875E0,-3.955008578E-4,-5.015200004E-4,-7.481123507E-2,7.481396150E-2
6.188775875E0,7.819153252E-4,-1.122105867E-3,-7.284818590E-2,7.286102320E-2
6.198731875E0,1.030121930E-3,5.543539301E-4,-7.317548990E-2,7.318483984E-2
6.208687875E0,-1.355141867E-4,-1.100585796E-3,-7.608667761E-2,7.609475779E-2
6.218643875E0,1.229089568E-3,-3.698142245E-4,-7.907128334E-2,7.908169999E-2
6.228599875E0,2.371499548E-3,6.814077497E-4,-8.067604899E-2,8.071377335E-2
6.238555875E0,-1.253062626E-3,-4.573594779E-4,-8.045288175E-2,8.046393929E-2
6.248511875E0,1.739678555E-4,7.360326126E-4,-7.481227070E-2,7.481609356E-2
6.258467875E0,1.845900435E-3,-7.490068674E-5,-7.476646453E-2,7.478928518E-2
6.268423875E0,2.376636257E-3,2.321293578E-4,-7.114894688E-2,7.118900847E-2
6.278379875E0,2.278099302E-3,-1.830754802E-3,-7.297027856E-2,7.302878167E-2
6.288335875E0,2.657233970E-3,4.941048101E-4,-7.522336394E-2,7.527190388E-2
6.298291875E0,1.256677555E-3,-7.322803140E-4,-7.726600766E-2,7.727969599E-2
6.308247875E0,4.814371350E-4,2.058660612E-4,-7.636599243E-2,7.636778746E-2
6.318203875E0,9.677303606E-4,3.302656114E-5,-7.273956388E-2,7.274600846E-2
6.328159875E0,3.507154179E-4,-1.460955478E-3,-7.279768586E-2,7.281318877E-2
6.338115875E0,1.813589828E-3,2.878932282E-3,-7.423260063E-2,7.431054000E-2
6.348071875E0,1.127650146E-3,1.613800414E-3,-7.953471690E-2,7.955907956E-2
6.358027875E0,1.891178428E-3,-1.194235869E-3,-7.905561477E-2,7.908724917E-2
6.367983875E0,1.212548232E-3,1.044718549E-3,-7.872632146E-2,7.874258950E-2
6.377939875E0,-4.924075329E-4,-2.466477454E-4,-7.579684258E-2,7.579884329E-2
6.387895875E0,-7.366153877E-4,2.113091759E-3,-7.448437065E-2,7.451797924E-2
6.397851875E0,1.324138604E-3,-3.298260272E-4,-7.396824658E-2,7.398083286E-2
6.407807875E0,-2.864587004E-4,5.782702938E-4,-7.405588031E-2,7.405869202E-2
6.417763875E0,-7.301413571E-4,2.978843637E-3,-7.534857839E-2,7.541097322E-2
6.427719875E0,2.936561825E-3,8.392771706E-4,-7.608214766E-2,7.614342371E-2
6.437675875E0,2.523239236E-3,2.304781228E-4,-7.859005034E-2,7.863088368E-2
6.447630875E0,3.711316967E-4,1.005592756E-3,-7.712525874E-2,7.713270702E-2
6.457586875E0,-7.495265454E-4,1.405333169E-3,-7.570526004E-2,7.572201231E-2
6.467542875E0,1.448325114E-3,-3.900099546E-4,-7.547010481E-2,7.548500827E-2
6.477498875E0,1.518366160E-3,-3.170389682E-4,-7.647677511E-2,7.649250343E-2
6.487454875E0,1.525808242E-3,-1.018472016E-3,-7.814954221E-2,7.817107089E-2
6.497410875E0,-5.410711165E-4,-3.124680370E-4,-7.875967026E-2,7.876214861E-2
6.507366875E0,-2.590531716E-3,-7.504280657E-4,-7.814449072E-2,7.819101884E-2
6.517322875E0,4.180412798E-4,-1.326482743E-5,-7.819109410E-2,7.819221273E-2
6.527278875E0,-9.531187243E-4,5.271146074E-4,-7.482442260E-2,7.483234930E-2
6.537234875E0,-1.108647324E-3,1.150560565E-3,-6.914683431E-2,6.916529176E-2
6.547190875E0,-7.888886030E-4,-1.214924268E-3,-7.409692556E-2,7.411108394E-2
6.557146875E0,3.741138789E-4,-1.813508570E-4,-7.679949701E-2,7.680062233E-2
6.567102875E0,-2.020785352E-3,1.875087619E-4,-8.067938685E-2,8.070490813E-2
6.577058875E0,4.495628527E-4,3.216587938E-3,-8.212521672E-2,8.218941396E-2
6.587014875E0,1.325879246E-3,-1.285685226E-3,-7.981486619E-2,7.983623116E-2
6.596970875E0,2.608810901E-4,1.745261252E-4,-7.669603825E-2,7.669668051E-2
6.606926875E0,-6.335453945E-4,4.443600774E-4,-7.096892595E-2,7.097314483E-2
6.616882875E0,-1.541949576E-3,-1.778846607E-3,-6.999447197E-2,7.003404893E-2
6.626838875E0,-1.264214749E-3,2.544075251E-4,-7.223393023E-2,7.224544026E-2
6.636794875E0,-1.275776303E-4,-1.328159124E-4,-7.724892348E-2,7.724914301E-2
6.646750875E0,2.457736060E-3,1.051119529E-3,-7.894244790E-2,7.898769144E-2
6.656706875E0,-2.405728679E-3,9.922636673E-4,-7.549658418E-2,7.554142135E-2
6.666662875E0,-1.847080421E-3,1.939388923E-3,-7.441993803E-2,7.446811473E-2
6.676618875E0,7.287289482E-4,4.898300394E-4,-7.432299852E-2,7.432818502E-2
6.686574875E0,1.800404279E-3,1.384352334E-3,-7.301514596E-2,7.305045808E-2
6.696530875E0,-3.026939230E-4,1.140672714E-3,-7.320636511E-2,7.321587704E-2
6.706486875E0,1.085668337E-4,6.219362840E-4,-7.512773573E-2,7.513038845E-2
6.716442875E0,-6.917130668E-4,-6.513213739E-4,-7.545743883E-2,7.546342002E-2
6.726398875E0,1.812549075E-3,-1.870024949E-3,-7.323218137E-2,7.327847375E-2
6.736354875E0,-6.519400631E-4,9.284242988E-4,-7.240048051E-2,7.240936801E-2
6.746310875E0,1.085186377E-4,-8.677430451E-4,-7.373434305E-2,7.373952875E-2
6.756266875E0,-3.532735282E-4,8.473321795E-4,-7.527204603E-2,7.527764401E-2
6.766222875E0,2.354189754E-3,1.137469895E-3,-7.746516168E-2,7.750927249E-2
6.776177875E0,1.422083355E-3,-3.110235557E-4,-7.830858231E-2,7.832211131E-2
6.786133875E0,1.864822116E-5,5.982667208E-4,-7.781666517E-2,7.781896716E-2
6.796089875E0,7.922964869E-4,-6.787190214E-4,-7.506375760E-2,7.507100704E-2
6.806045875E0,-1.030560816E-4,-1.244029030E-3,-7.637832314E-2,7.638852318E-2
6.816001875E0,2.571556484E-3,2.051632851E-3,-7.300862670E-2,7.308270433E-2
6.825957875E0,-3.757863306E-5,-4.473850131E-4,-7.523301989E-2,7.523435948E-2
6.835913875E0,2.026385046E-4,-2.423217520E-4,-7.512994856E-2,7.513061262E-2
6.845869875E0,-4.561084206E-4,9.361645207E-4,-7.661247998E-2,7.661955709E-2
6.855825875E0,9.345942526E-4,4.562623799E-4,-7.369498909E-2,7.370232736E-2
6.865781875E0,1.035336172E-3,2.454966307E-4,-7.540541887E-2,7.541292585E-2
6.875737875E0,-2.823958639E-4,-7.430687547E-4,-7.598465681E-2,7.598881476E-2
6.885693875E0,1.946762437E-3,-8.314577863E-4,-7.703065127E-2,7.705973294E-2
6.895649875E0,1.372318598E-3,-1.160624437E-3,-7.526444644E-2,7.528590310E-2
6.905605875E0,3.355362278E-4,1.241198741E-3,-7.685498148E-2,7.686573578E-2
6.915561875E0,-1.314824680E-3,1.827534288E-5,-7.620996237E-2,7.622130583E-2
6.925517875E0,5.452567711E-5,-1.252344809E-3,-7.504063100E-2,7.505110020E-2
6.935473875E0,-4.940855433E-4,-1.044085249E-3,-7.402276993E-2,7.403178170E-2
6.945429875E0,-1.390188234E-3,2.726512030E-3,-7.708681375E-2,7.714754270E-2
6.955385875E0,-1.282596495E-3,2.404002473E-3,-7.826312631E-2,7.831054349E-2
6.965341875E0,-2.135603456E-3,5.213553086E-4,-8.050273359E-2,8.053274321E-2
6.975297875E0,-1.613091212E-3,-8.717644960E-5,-7.641664147E-2,7.643371479E-2
6.985253875E0,1.282663085E-3,-3.350442275E-4,-7.732923329E-2,7.734059607E-2
6.995209875E0,-2.609050134E-4,1.954576001E-4,-7.341385633E-2,7.341458013E-2
7.005165875E0,2.278296044E-3,-7.947236300E-4,-7.556112111E-2,7.559963784E-2
7.015121875E0,-1.057845773E-3,9.184880182E-4,-7.211338729E-2,7.212699414E-2
7.025077875E0,-1.463685767E-3,1.295497641E-4,-7.565669715E-2,7.567096526E-2
7.035033875E0,2.588467323E-4,-7.500918582E-4,-7.623247057E-2,7.623660019E-2
7.044989875E0,-6.234779721E-4,-1.789975911E-3,-7.829143852E-2,7.831437980E-2
7.054945875E0,-5.350610008E-4,1.395431347E-3,-7.956682146E-2,7.958085571E-2
7.064901875E0,4.092980234E-4,-5.505988374E-4,-7.834272832E-2,7.834573226E-2
7.074857875E0,1.255650539E-3,-1.852130517E-4,-7.319883257E-2,7.320983576E-2
7.084812875E0,4.004255170E-4,-1.839676872E-3,-7.058171928E-2,7.060682579E-2
7.094768875E0,-1.210786868E-3,-1.476954669E-3,-7.447819412E-2,7.450267645E-2
7.104724875E0,4.381508043E-4,-2.481210977E-4,-7.239666581E-2,7.239841684E-2
7.114680875E0,-6.063409965E-4,-2.002345398E-3,-7.425954938E-2,7.428901474E-2
7.124636875E0,-6.582752103E-4,1.148135401E-3,-7.747349888E-2,7.748480219E-2
7.134592875E0,9.771720506E-4,-9.831916541E-4,-7.715471834E-2,7.716716979E-2
7.144548875E0,2.469388302E-3,-4.524560645E-4,-7.654646784E-2,7.658762520E-2
7.154504875E0,2.485782024E-4,7.861796767E-4,-7.222655416E-2,7.223126051E-2
7.164460875E0,2.288708929E-4,6.384588778E-4,-6.847008318E-2,6.847344231E-2
7.174416875E0,1.022539800E-5,-1.340801828E-3,-7.412823290E-2,7.414035855E-2
7.184372875E0,-9.162680362E-4,-1.756325364E-4,-7.475316525E-2,7.475898680E-2
7.194328875E0,1.707744552E-3,4.576668143E-4,-7.545650750E-2,7.547721759E-2
7.204284875E0,8.580769645E-5,-9.929407388E-4,-7.710877806E-2,7.711521865E-2
7.214240875E0,-5.355078611E-4,1.329069957E-3,-7.611036301E-2,7.612385009E-2
7.224196875E0,1.746340189E-3,-1.365380362E-3,-7.768779993E-2,7.771941987E-2
7.234152875E0,2.556207590E-3,1.600315794E-3,-7.555674016E-2,7.561690414E-2
7.244108875E0,2.263174392E-3,8.475296199E-4,-7.542162389E-2,7.546033140E-2
7.254064875E0,2.573965583E-3,1.692222431E-4,-7.503706217E-2,7.508138673E-2
7.264020875E0,6.739174714E-4,-3.827149048E-4,-7.547842711E-2,7.548240586E-2
7.273976875E0,-3.253005561E-4,-1.106029376E-3,-7.609574497E-2,7.610447768E-2
7.283932875E0,1.260079443E-3,4.986450076E-4,-7.287748158E-2,7.289008004E-2
7.293888875E0,1.622535521E-3,7.415255532E-4,-7.372809947E-2,7.374967886E-2
7.303844875E0,2.380491002E-3,1.218942925E-4,-7.190304995E-2,7.194254782E-2
7.313800875E0,-2.152741654E-3,1.240422018E-3,-7.478139549E-2,7.482265737E-2
7.323756875E0,-8.269789396E-4,4.765763879E-4,-7.437797636E-2,7.438410036E-2
7.333712875E0,8.169903303E-4,1.608153805E-3,-7.424587756E-2,7.426778553E-2
7.343668875E0,-9.274680051E-4,1.645188779E-3,-7.545708865E-2,7.548071986E-2
7.353624875E0,7.822814514E-4,6.057564169E-4,-7.729467005E-2,7.730100208E-2
7.363580875E0,1.789658912E-3,-9.185075760E-5,-7.480393350E-2,7.482539531E-2
7.373536875E0,-2.427190309E-3,-2.015726641E-4,-7.369446009E-2,7.373469558E-2
7.383492875E0,1.903909724E-3,-8.535524830E-4,-7.590867579E-2,7.593734578E-2
7.393448875E0,-1.027698163E-3,-7.560802624E-4,-7.495047152E-2,7.496133004E-2
7.403403875E0,8.721602499E-4,-6.454251707E-5,-7.574390620E-2,7.574895482E-2
7.413359875E0,-5.701667396E-5,-2.204393037E-3,-7.590822130E-2,7.594024402E-2
7.423315875E0,9.981952608E-4,-4.567215219E-4,-7.926694304E-2,7.927454350E-2
7.433271875E0,1.070899540E-3,-1.578977332E-3,-7.603945583E-2,7.606338698E-2
7.443227875E0,-1.132974518E-3,2.215344459E-3,-7.654669881E-2,7.658712999E-2
7.453183875E0,5.197831779E-4,-6.427597255E-4,-7.485879213E-2,7.486335601E-2
7.463139875E0,2.776802285E-3,6.324332207E-5,-7.611399144E-2,7.616465272E-2
7.473095875E0,-1.234983560E-3,5.844887346E-5,-7.551957667E-2,7.552969655E-2
7.483051875E0,1.648544334E-3,5.420576781E-4,-7.621510327E-2,7.623485746E-2
7.493007875E0,1.209551701E-4,-4.435786977E-4,-7.842420042E-2,7.842554815E-2
7.502963875E0,6.277243374E-4,-3.237874247E-3,-7.746505737E-2,7.753523703E-2
7.512919875E0,3.733924532E-4,-1.976868138E-3,-7.846666873E-2,7.849245524E-2
7.522875875E0,1.130815479E-3,-3.602523357E-4,-7.756261528E-2,7.757169467E-2
7.532831875E0,1.097595668E-4,-1.679724082E-4,-7.705847919E-2,7.705874043E-2
7.542787875E0,1.517607598E-3,-9.247418493E-4,-7.743145525E-2,7.745184661E-2
7.552743875E0,-1.023846911E-3,-3.902446479E-4,-7.563275844E-2,7.564069475E-2
7.562699875E0,-1.436467282E-3,9.169420227E-4,-7.200857997E-2,7.202874294E-2
7.572655875E0,2.238695044E-3,-1.390420832E-3,-7.326026261E-2,7.330764696E-2
7.582611875E0,1.390081597E-3,1.448005438E-3,-7.409821451E-2,7.412539673E-2
7.592567875E0,6.569134421E-4,4.434613511E-4,-7.407531142E-2,7.407955153E-2
7.602523875E0,-6.662833039E-5,8.288752288E-4,-7.483787090E-2,7.484249056E-2
7.612479875E0,2.601859160E-3,1.375190914E-4,-7.521443814E-2,7.525955280E-2
7.622435875E0,2.376073739E-3,5.486523733E-4,-7.431432605E-2,7.435432605E-2
7.632391875E0,-6.050688680E-4,-1.088818535E-4,-7.495135069E-2,7.495387204E-2
7.642347875E0,8.120877901E-4,-7.721967995E-4,-7.874224335E-2,7.875021690E-2
7.652303875E0,1.249922207E-4,1.237075776E-5,-7.940563560E-2,7.940573493E-2
7.662259875E0,-1.204467961E-3,1.477647573E-3,-7.792427391E-2,7.794758912E-2
7.672215875E0,-7.975368062E-4,9.498083964E-4,-7.882122695E-2,7.883098388E-2
7.682171875E0,-3.954442218E-5,1.425221562E-4,-7.663059235E-2,7.663073508E-2
7.692127875E0,1.664079726E-3,1.378761604E-3,-7.560740411E-2,7.563828198E-2
7.702083875E0,1.776276855E-3,-3.422060981E-4,-7.160357386E-2,7.162642008E-2
7.712039875E0,-7.800915628E-4,-8.041691035E-5,-7.478605211E-2,7.479016379E-2
7.721994875E0,-2.119441051E-4,-1.283649355E-3,-7.533381879E-2,7.534505246E-2
7.731950875E0,9.795541409E-4,-1.226923428E-3,-7.740522176E-2,7.742114197E-2
7.741906875E0,-8.899008390E-4,-1.534999348E-3,-7.649303973E-2,7.651361495E-2
7.751862875E0,1.167740556E-4,-7.557580248E-4,-7.790558040E-2,7.790933361E-2
7.761818875E0,-3.870127839E-4,-1.204413362E-3,-7.095383108E-2,7.096510787E-2
7.771774875E0,2.835145686E-3,-1.675792970E-3,-6.951492280E-2,6.959289349E-2
7.781730875E0,5.082791904E-4,-1.186886802E-3,-7.239947468E-2,7.241098661E-2
7.791686875E0,-1.716525527E-3,-2.415669151E-3,-7.409031689E-2,7.414955815E-2
7.801642875E0,2.768815728E-3,-1.008375548E-3,-7.822401077E-2,7.827949299E-2
7.811598875E0,-7.665305166E-4,9.000459686E-4,-7.913508266E-2,7.914391297E-2
7.821554875E0,9.836707031E-4,-2.441987395E-3,-7.929456979E-2,7.933826132E-2
7.831510875E0,-4.853288992E-4,6.691170856E-4,-7.520688325E-2,7.521142566E-2
7.841466875E0,-1.774174161E-4,1.029061154E-3,-7.417569309E-2,7.418304314E-2
7.851422875E0,5.480276886E-4,2.473559231E-3,-7.475519180E-2,7.479811182E-2
7.861378875E0,8.585855830E-4,-1.589162275E-3,-7.520288974E-2,7.522457864E-2
7.871334875E0,1.415186329E-3,1.402944326E-4,-7.705884427E-2,7.707196582E-2
7.881290875E0,1.688303542E-3,-1.236445270E-3,-7.743865997E-2,7.746692987E-2
7.891246875E0,9.841637220E-4,-2.710493281E-4,-7.478215545E-2,7.478912234E-2
7.901202875E0,-8.897696971E-4,-1.726304181E-3,-7.301600277E-2,7.304182690E-2
7.911158875E0,-2.138593118E-4,-2.177976072E-3,-7.418432832E-2,7.421660113E-2
7.921114875E0,-3.062479082E-4,-1.247785985E-3,-7.506831735E-2,7.507931158E-2
7.931070875E0,2.368098358E-3,-1.390531659E-3,-7.883322984E-2,7.888104712E-2
7.941026875E0,3.584524966E-4,3.623217344E-4,-7.769810408E-2,7.769977570E-2
7.950982875E0,6.310793106E-5,-6.014760584E-4,-7.867122442E-2,7.867354897E-2
7.960938875E0,-5.057158996E-4,1.064898446E-3,-7.578195632E-2,7.579112521E-2
7.970894875E0,1.616290770E-3,-2.799974754E-4,-7.270015031E-2,7.271865407E-2
7.980850875E0,2.022294793E-4,1.620022580E-3,-7.092215866E-2,7.094094698E-2
7.990806875E0,-2.173044020E-3,1.325743273E-3,-7.673797011E-2,7.678017825E-2
8.000762875E0,6.173033617E-4,-2.903277054E-4,-7.913342863E-2,7.913636889E-2
8.010718875E0,-5.539548583E-4,1.959244721E-3,-8.008604497E-2,8.011192236E-2
8.020675500E0,1.080050250E-3,9.648595005E-5,-7.642268389E-2,7.643037637E-2
8.030631500E0,-6.244587712E-5,-1.137888990E-3,-7.455047965E-2,7.455918929E-2
8.040586500E0,-3.648593556E-4,-2.753359266E-3,-7.062762231E-2,7.068221235E-2
8.050542500E0,5.549964844E-4,-2.047621645E-3,-6.951601803E-2,6.954838272E-2
8.060498500E0,6.804545410E-4,-4.361933097E-4,-7.665015012E-2,7.665441146E-2
8.070454500E0,-3.920003655E-4,3.196122125E-4,-7.818892598E-2,7.819056185E-2
8.080410500E0,-1.970786136E-3,-1.917751506E-4,-8.020819724E-2,8.023263475E-2
8.090366500E0,1.427407376E-3,1.613048837E-3,-7.999993861E-2,8.002892974E-2
8.100322500E0,-7.384585915E-4,-1.479079947E-4,-7.878275961E-2,7.878635928E-2
8.110278500E0,4.040374770E-4,-1.503052190E-4,-7.466577739E-2,7.466702184E-2
8.120234500E0,1.129446435E-3,-1.376222819E-3,-7.535342127E-2,7.537445015E-2
8.130190500E0,2.544650342E-3,-1.431882381E-3,-7.739420235E-2,7.744926139E-2
8.140146500E0,1.388218254E-3,7.963860407E-4,-7.813391089E-2,7.815030014E-2
8.150102500E0,1.195937977E-3,-4.678163677E-4,-8.094488084E-2,8.095506689E-2
8.160058500E0,1.398774330E-3,1.698811539E-3,-8.015207946E-2,8.018228216E-2
8.170014500E0,7.462999201E-4,-1.156004146E-4,-7.388859242E-2,7.389245169E-2
8.179970500E0,-1.453349600E-3,1.636377536E-3,-7.370600104E-2,7.373848755E-2
8.189926500E0,1.509150723E-3,-9.322408587E-4,-6.924574077E-2,6.926845764E-2
8.199882500E0,4.625875154E-4,-1.000976190E-3,-7.133423537E-2,7.134275770E-2
8.209838500E0,3.577420488E-3,5.116993561E-4,-7.656548172E-2,7.665071927E-2
8.219794500E0,3.114291001E-3,-2.659866586E-4,-7.774281502E-2,7.780562219E-2
8.229750500E0,-2.253128914E-4,1.673061401E-3,-7.778302580E-2,7.780134320E-2
8.239706500E0,1.481279032E-3,-8.181091398E-4,-7.470003515E-2,7.471919929E-2
8.249662500E0,3.523923689E-3,-1.320380718E-3,-7.768809795E-2,7.777918749E-2
8.259618500E0,-1.365218777E-3,1.747813076E-4,-7.757263631E-2,7.758484565E-2
8.269574500E0,-1.151899574E-3,5.200970918E-5,-7.718993723E-2,7.719854913E-2
8.279530500E0,-6.399249542E-4,1.303935423E-3,-7.545157522E-2,7.546555476E-2
8.289486500E0,2.865593880E-3,-1.215947792E-3,-7.726599276E-2,7.732867382E-2
8.299442500E0,8.230324602E-5,1.366244629E-3,-7.484553754E-2,7.485805159E-2
8.309398500E0,1.172948396E-5,3.200117499E-5,-7.575341314E-2,7.575342081E-2
8.319354500E0,6.205263780E-4,-1.836661249E-4,-7.654111087E-2,7.654384652E-2
8.329310500E0,-1.941700932E-3,-1.059314236E-3,-7.388726622E-2,7.392036565E-2
8.339266500E0,6.916613784E-4,-1.248858869E-3,-8.000548929E-2,8.001822518E-2
8.349222500E0,2.184629440E-3,-4.990398884E-5,-8.108912408E-2,8.111856225E-2
8.359178500E0,-1.052253647E-3,3.074053675E-4,-7.761070132E-2,7.761844301E-2
8.369133500E0,5.829273141E-4,7.388368249E-4,-7.613824308E-2,7.614405915E-2
8.379089500E0,8.221230237E-4,1.606428064E-3,-7.461246848E-2,7.463428803E-2
8.389045500E0,1.375261578E-3,-2.351477742E-4,-7.343827933E-2,7.345153171E-2
8.399001500E0,7.292329101E-4,1.439242624E-3,-7.662045211E-2,7.663743785E-2
8.408957500E0,-1.145632472E-3,2.750102431E-5,-7.757146657E-2,7.757993075E-2
8.418913500E0,-3.527116496E-5,-8.784057572E-4,-7.916033268E-2,7.916521402E-2
8.428869500E0,-2.576450934E-4,-1.163896173E-3,-7.745856792E-2,7.746774025E-2
8.438825500E0,2.205754630E-3,-5.693929270E-4,-7.706664503E-2,7.710030699E-2
8.448781500E0,-2.465429949E-3,-1.004105434E-4,-7.633161545E-2,7.637148646E-2
8.458737500E0,-4.557787906E-4,1.384896226E-3,-7.339017093E-2,7.340465150E-2
8.468693500E0,9.793987265E-4,-9.304564446E-4,-7.670953870E-2,7.672143311E-2
8.478649500E0,-1.857352094E-3,6.060926244E-4,-7.176227868E-2,7.178886923E-2
8.488605500E0,7.716810796E-5,2.376828343E-3,-7.202646881E-2,7.206571638E-2
8.498561500E0,1.362123061E-3,-1.230491325E-3,-7.262744755E-2,7.265064091E-2
8.508517500E0,-1.094376668E-3,3.109462559E-4,-7.663683593E-2,7.664528015E-2
8.518473500E0,-4.668943584E-4,1.326696016E-3,-7.422935963E-2,7.424268276E-2
8.528429500E0,7.477733889E-4,1.349332742E-3,-7.687120885E-2,7.688668684E-2
8.538385500E0,-1.585381106E-3,-8.174628019E-4,-7.710684836E-2,7.712747722E-2
8.548341500E0,2.683666302E-3,-8.363714442E-4,-7.656143606E-2,7.661302156E-2
8.558297500E0,-3.580546472E-4,8.219406009E-4,-7.631476223E-2,7.632002833E-2
8.568253500E0,1.735122642E-4,-4.103044048E-4,-7.091759890E-2,7.091899809E-2
8.578209500E0,-2.552293474E-3,-1.193745993E-3,-7.416290790E-2,7.421641422E-2
8.588165500E0,2.610698575E-4,-5.423361436E-4,-7.900186628E-2,7.900415914E-2
8.598121500E0,1.071802457E-3,-1.042746939E-3,-7.922466099E-2,7.923877202E-2
8.608077500E0,8.480969700E-4,9.184051305E-4,-8.073786646E-2,8.074754372E-2
8.618033500E0,-2.270663157E-3,-1.247323118E-3,-7.669633627E-2,7.674007899E-2
8.627989500E0,6.092792610E-4,-5.943160504E-4,-7.172182202E-2,7.172687214E-2
8.637945500E0,-6.292107864E-4,-5.932776257E-4,-6.994569302E-2,6.995103899E-2
8.647901500E0,4.088894057E-4,1.845113002E-3,-7.336545736E-2,7.338979470E-2
8.657857500E0,-9.153870633E-4,-1.376725733E-3,-7.508412749E-2,7.510232691E-2
8.667813500E0,-2.240842208E-3,-2.052370459E-3,-7.875076681E-2,7.880937046E-2
8.677769500E0,1.093077590E-4,-4.061870277E-5,-7.915932685E-2,7.915941274E-2
8.687725500E0,6.030558143E-5,2.287516370E-3,-7.891617715E-2,7.894934695E-2
8.697680500E0,-9.679173236E-4,-8.491016924E-4,-7.425906509E-2,7.427022678E-2
8.707636500E0,-1.763403649E-3,-8.480371907E-4,-6.985606253E-2,6.988346179E-2
8.717592500E0,-2.119307173E-4,-2.980992198E-3,-6.785731763E-2,6.792309463E-2
8.727548500E0,1.284499536E-3,-2.388704568E-3,-7.192822546E-2,7.197934055E-2
8.737504500E0,2.454353031E-3,-8.595949039E-4,-7.674687356E-2,7.679091973E-2
8.747460500E0,1.177367172E-3,6.131334230E-4,-7.968726754E-2,7.969832328E-2
8.757416500E0,-8.372548036E-4,-7.347483188E-4,-8.054091036E-2,8.054861323E-2
8.767372500E0,1.681829221E-3,-1.906272955E-3,-8.036886901E-2,8.040906374E-2
8.777328500E0,-3.355276422E-4,1.347362995E-4,-7.274690270E-2,7.274780124E-2
8.787284500E0,6.013724487E-4,-9.273327887E-4,-7.445053011E-2,7.445873373E-2
8.797240500E0,8.031210746E-4,1.702236012E-3,-7.394094765E-2,7.396489945E-2
8.807196500E0,1.586623024E-3,-9.281681851E-4,-7.611648738E-2,7.613867953E-2
8.817152500E0,7.726534968E-4,-1.437971368E-4,-8.072375506E-2,8.072758080E-2
8.827108500E0,2.173843677E-4,1.048234291E-3,-7.833516598E-2,7.834248068E-2
8.837064500E0,3.579189070E-5,3.710045479E-3,-7.617188245E-2,7.626218850E-2
8.847020500E0,-7.303995080E-4,-9.747594595E-5,-7.476839423E-2,7.477202526E-2
8.856976500E0,-4.854278523E-4,1.438041218E-3,-7.146891952E-2,7.148503381E-2
8.866932500E0,-5.479465472E-5,1.652691513E-3,-7.503249496E-2,7.505071413E-2
8.876888500E0,1.308758976E-3,-7.216688246E-4,-7.351312786E-2,7.352831852E-2
8.886844500E0,1.044839621E-3,-4.572169855E-4,-7.475895435E-2,7.476765338E-2
8.896800500E0,3.158869513E-4,-7.670810446E-4,-7.705513388E-2,7.705959937E-2
8.906756500E0,8.975213277E-4,3.879144788E-5,-7.853638381E-2,7.854152170E-2
8.916712500E0,-1.209981274E-3,8.286163211E-5,-7.282698154E-2,7.283707958E-2
8.926668500E0,1.240925863E-3,-1.702255569E-3,-7.166717201E-2,7.169812491E-2
8.936624500E0,1.217552228E-3,-7.794108242E-4,-7.143316418E-2,7.144779114E-2
8.946580500E0,-8.466639556E-4,1.833224669E-4,-7.561007142E-2,7.561503387E-2
8.956536500E0,-2.451413777E-3,1.976863481E-3,-7.551930845E-2,7.558494140E-2
8.966492500E0,4.023977090E-5,4.458120093E-4,-7.685834169E-2,7.685964517E-2
8.976448500E0,1.827400993E-3,8.762581274E-4,-7.706725597E-2,7.709389837E-2
8.986404500E0,-8.871591417E-4,-2.111009322E-3,-7.332763821E-2,7.336338281E-2
8.996360500E0,2.883911366E-4,4.682345316E-4,-7.384943217E-2,7.385147964E-2
9.006316500E0,6.367326132E-4,2.575860359E-3,-7.644095272E-2,7.648699064E-2
9.016272500E0,2.631472889E-3,9.539136663E-4,-7.687377185E-2,7.692471254E-2
9.026228500E0,1.017330913E-3,2.581638284E-3,-7.654673606E-2,7.659701443E-2
9.036184500E0,2.227477962E-3,-2.650430426E-3,-7.561933994E-2,7.569855357E-2
9.046139500E0,-7.611212204E-4,4.180641845E-4,-7.225496322E-2,7.226018124E-2
9.056095500E0,-1.452115597E-3,1.409236342E-3,-7.106346637E-2,7.109226990E-2
9.066051500E0,-7.350870874E-6,2.348532900E-3,-7.058436424E-2,7.062342483E-2
9.076007500E0,1.567002502E-3,-8.220337331E-4,-7.495772839E-2,7.497861216E-2
9.085963500E0,2.198970644E-3,7.670745254E-4,-7.964063436E-2,7.967467927E-2
9.095919500E0,-1.928453567E-4,1.077498309E-3,-7.864829898E-2,7.865591602E-2
9.105875500E0,6.841076538E-5,1.625843346E-3,-7.812072337E-2,7.813766995E-2
9.115831500E0,-5.501647829E-4,-3.295037895E-4,-7.314679772E-2,7.314960882E-2
9.125787500E0,-2.380423830E-4,-2.275741659E-3,-7.326903194E-2,7.330475227E-2
9.135743500E0,-1.212077099E-3,-1.105249859E-3,-7.183402777E-2,7.185275397E-2
9.145699500E0,-1.146563212E-3,1.268692315E-3,-7.119007409E-2,7.121060901E-2
9.155655500E0,-1.042606775E-3,-2.921652049E-5,-7.911640406E-2,7.912327896E-2
9.165611500E0,5.787257687E-4,1.057353802E-3,-7.958352566E-2,7.959265341E-2
9.175567500E0,2.152600093E-3,3.075478598E-4,-7.702475786E-2,7.705544495E-2
9.185523500E0,9.872007649E-4,-2.165197395E-3,-7.347449660E-2,7.351302127E-2
9.195479500E0,2.557346364E-3,3.391196951E-4,-7.096696645E-2,7.101383914E-2
9.205435500E0,-5.684057251E-4,-1.073952764E-3,-7.090544701E-2,7.091585771E-2
9.215391500E0,4.689267371E-5,-1.007289626E-3,-7.670252770E-2,7.670915582E-2
9.225347500E0,1.113222330E-3,-1.124683768E-4,-7.347398251E-2,7.348250145E-2
9.235303500E0,-1.719583408E-3,4.173191264E-4,-7.606028765E-2,7.608086803E-2
9.245259500E0,1.431202400E-3,-9.542088956E-4,-7.441685349E-2,7.443673111E-2
9.255215500E0,6.644969690E-4,-4.163542762E-4,-7.525317371E-2,7.525725919E-2
9.265171500E0,-1.250315923E-3,-2.629707567E-3,-7.542175055E-2,7.547793788E-2
9.275127500E0,5.846982822E-4,2.790091559E-3,-7.644081861E-2,7.649395553E-2
9.285083500E0,-4.936155747E-4,-1.044327393E-3,-7.733297348E-2,7.734159982E-2
9.295039500E0,1.485442277E-3,9.216153994E-4,-7.726863027E-2,7.728840234E-2
9.304995500E0,1.005112426E-5,5.833934993E-4,-7.427576929E-2,7.427806105E-2
9.314951500E0,2.337187994E-3,-1.807155088E-3,-7.270917296E-2,7.276916992E-2
9.324907500E0,-1.259697019E-4,7.771765813E-4,-7.444501668E-2,7.444917985E-2
9.334863500E0,-1.401660731E-3,-6.954083219E-4,-7.398296148E-2,7.399950564E-2
9.344819500E0,4.212731146E-4,2.158168703E-3,-7.753881067E-2,7.756998339E-2
9.354775500E0,-8.574238745E-5,-1.029622741E-3,-7.768205553E-2,7.768892602E-2
9.364731500E0,3.824413288E-4,1.912903972E-3,-7.888980210E-2,7.891391726E-2
9.374686500E0,2.063569147E-3,-1.414337195E-3,-7.424626499E-2,7.428840107E-2
9.384642500E0,-9.766955627E-4,-3.799656406E-4,-7.403667271E-2,7.404408966E-2
9.394598500E0,-6.314060302E-4,4.400052130E-4,-7.368283719E-2,7.368685618E-2
9.404554500E0,1.001642668E-4,-1.245243475E-3,-7.093738019E-2,7.094837964E-2
9.414510500E0,-1.638428075E-4,-1.346673816E-4,-7.740569860E-2,7.740598914E-2
9.424466500E0,1.594376052E-3,-1.611390151E-3,-7.817748189E-2,7.821034003E-2
9.434422500E0,-2.241245820E-4,-7.606381550E-4,-7.845403999E-2,7.845804734E-2
9.444378500E0,-1.251572045E-3,4.092883319E-4,-7.724389434E-2,7.725511738E-2
9.454334500E0,1.696174382E-3,8.884267882E-4,-7.454983145E-2,7.457441705E-2
9.464290500E0,-1.061528921E-3,-5.331682041E-4,-7.439297438E-2,7.440245795E-2
9.474246500E0,-4.037171602E-4,6.108628586E-4,-7.421764731E-2,7.422125918E-2
9.484202500E0,-1.314251916E-3,-3.180475906E-4,-6.997789443E-2,6.999095742E-2
9.494158500E0,-1.587251318E-4,6.810668856E-4,-7.307126373E-2,7.307461002E-2
9.504114500E0,-6.309036398E-4,-1.128817908E-3,-7.494133711E-2,7.495249347E-2
9.514070500E0,1.031457796E-3,3.322036937E-4,-7.594384253E-2,7.595157327E-2
9.524026500E0,2.570105717E-4,5.018478259E-4,-7.961128652E-2,7.961328311E-2
9.533982500E0,-1.342872623E-3,-9.356597438E-4,-7.888637483E-2,7.890335164E-2
9.543938500E0,3.317126539E-3,-2.608150244E-4,-7.608739287E-2,7.616011230E-2
9.553894500E0,5.651974934E-4,-1.452688128E-3,-7.721924782E-2,7.723497902E-2
9.563850500E0,-1.469723764E-3,-9.898310527E-4,-7.393290848E-2,7.395413990E-2
9.573806500E0,1.630255138E-4,-1.137163490E-3,-7.577873021E-2,7.578743742E-2
9.583762500E0,2.523651347E-3,-1.445823349E-3,-7.586235553E-2,7.591808881E-2
9.593718500E0,1.414409373E-3,-1.165284775E-3,-7.643007487E-2,7.645204240E-2
9.603674500E0,1.421067282E-3,-1.461428590E-3,-7.469635457E-2,7.472416337E-2
9.613630500E0,-1.337576890E-3,1.966907643E-3,-7.089225948E-2,7.093215273E-2
9.623586500E0,1.379646361E-3,-6.685564294E-4,-7.088826597E-2,7.090484217E-2
9.633542500E0,-1.335995970E-3,6.665950641E-4,-7.241688669E-2,7.243227673E-2
9.643498500E0,-1.052369364E-3,-1.145107672E-4,-7.576501369E-2,7.577240853E-2
9.653454500E0,-2.461315133E-3,-3.053555265E-4,-7.742381096E-2,7.746352572E-2
9.663410500E0,1.709532517E-4,-1.409501769E-3,-8.055675030E-2,8.056926175E-2
9.673366500E0,-7.216720260E-4,-6.117410958E-4,-7.537111640E-2,7.537705370E-2
9.683322500E0,-5.363160162E-4,-7.462305948E-4,-7.524061948E-2,7.524623123E-2
9.693278500E0,2.258099848E-3,1.575948671E-3,-7.257983834E-2,7.263205602E-2
9.703233500E0,1.169399475E-3,-1.888024621E-3,-7.062427700E-2,7.065918647E-2
9.713189500E0,-1.474234508E-3,-1.831576228E-4,-7.570872456E-2,7.572329819E-2
9.723145500E0,8.187470958E-4,2.751722932E-4,-7.894366235E-2,7.894838751E-2
9.733101500E0,1.724845730E-3,2.814456820E-4,-8.188871294E-2,8.190735994E-2
9.743057500E0,-1.160423039E-3,-6.069848314E-4,-7.869505137E-2,7.870594719E-2
9.753013500E0,-2.065788140E-4,5.413386971E-4,-7.687139511E-2,7.687357874E-2
9.762969500E0,-1.224439009E-3,-2.199586481E-3,-7.107342780E-2,7.111799751E-2
9.772925500E0,-2.809260623E-4,-2.379117534E-3,-7.279972732E-2,7.283913383E-2
9.782881500E0,-4.772009561E-4,-1.150600612E-3,-7.183513045E-2,7.184592939E-2
9.792837500E0,-1.013398287E-3,1.736743376E-3,-7.397508621E-2,7.400240965E-2
9.802793500E0,-1.259208075E-3,1.632880419E-3,-7.543050498E-2,7.545868396E-2
9.812749500E0,-1.843994833E-3,-9.077666327E-4,-7.843860984E-2,7.846553301E-2
9.822705500E0,-1.200626139E-5,-1.882217824E-3,-7.631047815E-2,7.633368826E-2
9.832661500E0,-1.012027962E-3,-1.219068654E-3,-7.295605540E-2,7.297325777E-2
9.842617500E0,-1.738538267E-3,1.684390008E-4,-7.582135499E-2,7.584147123E-2
9.852573500E0,-4.093787866E-4,-1.341838390E-3,-7.469654828E-2,7.470972123E-2
9.862529500E0,1.219968544E-5,-7.825745270E-4,-7.541560382E-2,7.541966501E-2
9.872485500E0,-2.670989372E-3,-3.241649829E-3,-7.519840449E-2,7.531561934E-2
9.882441500E0,-7.428606041E-4,-1.408330165E-3,-7.248651236E-2,7.250399789E-2
9.892397500E0,-3.408937482E-3,-2.215463668E-3,-7.504396141E-2,7.515401039E-2
9.902353500E0,-4.999667290E-4,-6.846785545E-4,-7.735132426E-2,7.735597014E-2
9.912309500E0,1.268055174E-3,1.385846175E-3,-7.884138077E-2,7.886375502E-2
9.922265500E0,-1.324798446E-3,-3.468297422E-3,-7.744374871E-2,7.753269241E-2
9.932221500E0,1.054420834E-3,-1.513906755E-3,-7.280720770E-2,7.283057882E-2
9.942177500E0,1.358966110E-4,-2.969856374E-3,-7.400216907E-2,7.406186294E-2
9.952133500E0,-6.174751325E-4,-1.021704637E-3,-7.445310801E-2,7.446267823E-2
9.962089500E0,5.117051187E-4,-8.986424655E-5,-7.333005220E-2,7.333189260E-2
9.972045500E0,-1.276335330E-3,-3.772145137E-4,-7.720988989E-2,7.722135986E-2
9.982001500E0,8.347524563E-4,-7.641715929E-4,-7.711215317E-2,7.712045732E-2
9.991957500E0,1.170645701E-3,-2.356194891E-3,-7.871421427E-2,7.875817160E-2
1.000191350E1,1.122176182E-3,-1.297588460E-3,-7.722897083E-2,7.724802230E-2
1.001186950E1,-2.181200543E-3,6.916066632E-4,-7.669006288E-2,7.672419241E-2
1.002182575E1,-1.424596412E-3,-1.348555088E-6,-7.641788572E-2,7.643116337E-2
1.003178175E1,1.137154526E-3,5.201883614E-4,-7.656753808E-2,7.657774875E-2
1.004173675E1,-7.401077310E-4,-1.983325928E-4,-7.641626894E-2,7.642011028E-2
1.005169275E1,-3.302671714E-3,1.560776494E-3,-7.495132089E-2,7.504028362E-2
1.006164875E1,-2.328461851E-4,-4.523070529E-4,-7.271692902E-2,7.271870849E-2
1.007160475E1,-1.592926215E-3,3.149081022E-4,-7.215529680E-2,7.217356467E-2
1.008156075E1,-1.428076765E-3,-1.854769886E-3,-7.247008383E-2,7.250787975E-2
1.009151675E1,-1.306392252E-3,1.941290684E-3,-7.335682958E-2,7.339413953E-2
1.010147275E1,1.772548421E-4,4.038475454E-4,-7.722160965E-2,7.722286908E-2
1.011142875E1,-2.877245424E-5,2.206284553E-4,-7.857230306E-2,7.857261808E-2
1.012138475E1,9.171824204E-4,1.125046983E-4,-8.019389957E-2,8.019922325E-2
1.013134075E1,-1.459704828E-3,1.412350684E-4,-7.924842834E-2,7.926199645E-2
1.014129675E1,-1.254108851E-3,-4.286812618E-4,-7.661242783E-2,7.662389089E-2
1.015125275E1,1.553851180E-3,-1.249853522E-4,-7.416474074E-2,7.418112188E-2
1.016120875E1,-2.364191227E-3,-2.407047898E-3,-7.678928226E-2,7.686336676E-2
1.017116475E1,6.424890598E-4,-5.438411608E-4,-7.490400225E-2,7.490873186E-2
1.018112075E1,3.660529619E-4,1.517757773E-4,-7.703692466E-2,7.703794384E-2
1.019107675E1,6.226996193E-4,-1.225073822E-3,-7.872495055E-2,7.873694432E-2
1.020103275E1,1.534033334E-3,6.316816434E-4,-7.565805316E-2,7.567623992E-2
1.021098875E1,1.020610915E-3,-1.259886660E-3,-7.849314064E-2,7.850988529E-2
1.022094475E1,-1.354928827E-3,7.619857788E-4,-7.716981322E-2,7.718546836E-2
1.023090075E1,-1.742778113E-5,3.662314266E-4,-7.636693865E-2,7.636781880E-2
1.024085675E1,-3.777535167E-4,1.301799901E-3,-7.652113587E-2,7.653314063E-2
1.025081275E1,2.476421418E-3,1.474767923E-4,-7.866764069E-2,7.870674751E-2
1.026076875E1,1.263085054E-3,1.647872850E-4,-7.667799294E-2,7.668857242E-2
1.027072475E1,-3.342413693E-4,-2.789715305E-3,-7.643646747E-2,7.648808919E-2
1.028068075E1,-2.106706961E-4,-4.147076979E-4,-7.235730439E-2,7.235879949E-2
1.029063675E1,2.584803151E-3,-2.166217193E-3,-7.320476323E-2,7.328240624E-2
1.030059275E1,-2.517547226E-3,3.701634705E-5,-7.331049442E-2,7.335371843E-2
1.031054875E1,1.366375014E-3,-1.646270975E-4,-7.507675886E-2,7.508937211E-2
1.032050475E1,7.314773975E-4,-9.169699624E-4,-7.688850164E-2,7.689744845E-2
1.033046075E1,6.101440522E-4,9.329589084E-4,-8.007437736E-2,8.008213657E-2
1.034041675E1,7.939021452E-4,-1.070004888E-3,-8.024082333E-2,8.025188421E-2
1.035037275E1,-1.514241449E-4,-1.736827195E-3,-7.851897180E-2,7.853832460E-2
1.036032875E1,4.991861060E-4,-2.012485638E-4,-7.280702889E-2,7.280901828E-2
1.037028375E1,-4.977085046E-4,1.624763012E-3,-6.662955880E-2,6.665122411E-2
1.038023975E1,-3.094230196E-4,-1.038132235E-3,-6.737177819E-2,6.738048648E-2
1.039019575E1,-4.627349554E-4,-5.723237991E-4,-7.116826624E-2,7.117207175E-2
1.040015175E1,6.780319382E-6,4.806900397E-4,-7.645010948E-2,7.645162097E-2
1.041010775E1,-1.790315262E-3,1.538640819E-3,-8.171405643E-2,8.174814776E-2
1.042006375E1,1.965274569E-3,1.111859456E-4,-7.984425128E-2,7.986851149E-2
1.043001975E1,3.581400961E-5,-1.075818203E-3,-7.749187946E-2,7.749935516E-2
1.043997575E1,7.785696653E-4,-1.221401617E-4,-7.410087436E-2,7.410506508E-2
1.044993175E1,1.109416015E-3,-1.203641295E-3,-7.095912844E-2,7.097800691E-2
1.045988775E1,-3.075741464E-3,1.689083874E-3,-7.435998321E-2,7.444273163E-2
1.046984375E1,-1.012483845E-4,-8.636983112E-4,-7.706663758E-2,7.707154373E-2
1.047979975E1,1.370148035E-3,-3.012921661E-5,-8.188162744E-2,8.189309571E-2
1.048975575E1,-3.784186556E-4,2.363892272E-4,-7.887309045E-2,7.887435247E-2
1.049971175E1,2.258377150E-3,5.463808775E-4,-7.853487134E-2,7.856923581E-2
1.050966775E1,8.622352616E-4,-2.058424987E-3,-7.296463102E-2,7.299875302E-2
1.051962375E1,1.491806470E-3,-1.007808372E-3,-7.286955416E-2,7.289179026E-2
1.052957975E1,2.481874079E-3,9.678900242E-4,-7.053325325E-2,7.058354146E-2
1.053953575E1,3.297735238E-4,-4.292037338E-4,-7.617382705E-2,7.617575004E-2
1.054949175E1,-9.045192273E-4,1.695767976E-3,-7.965698838E-2,7.968017057E-2
1.055944775E1,3.679390938E-4,1.088567078E-3,-7.971451432E-2,7.972279567E-2
1.056940375E1,1.686578733E-3,1.117726788E-4,-7.663696259E-2,7.665560042E-2
1.057935975E1,6.199827185E-4,-1.645114273E-3,-7.622496784E-2,7.624523920E-2
1.058931575E1,-2.334356774E-3,-4.223594442E-4,-7.476143539E-2,7.479906303E-2
1.059927175E1,-1.586541068E-3,9.390478954E-4,-7.326100767E-2,7.328420135E-2
1.060922775E1,-8.836564375E-4,-7.593492046E-4,-7.626248896E-2,7.627138836E-2
1.061918375E1,1.485757995E-3,1.152534969E-3,-7.914429903E-2,7.916663364E-2
1.062913975E1,9.724764386E-4,1.295017079E-3,-7.818586379E-2,7.820263472E-2
1.063909575E1,5.555013195E-5,-3.100698814E-4,-7.769344747E-2,7.769408606E-2
1.064905175E1,-1.798651647E-3,-5.778856575E-5,-7.419692725E-2,7.421874764E-2
1.065900775E1,-1.937402179E-3,-2.822745591E-5,-7.218357921E-2,7.220957991E-2
1.066896375E1,-1.631650375E-3,-1.837301068E-3,-7.337627560E-2,7.341740787E-2
1.067891975E1,3.369583865E-4,7.471069694E-6,-7.980967313E-2,7.981038480E-2
1.068887575E1,-1.467112685E-3,1.261848956E-4,-7.877559960E-2,7.878936118E-2
1.069883175E1,1.984344097E-3,1.667357050E-3,-8.259883523E-2,8.263948985E-2
1.070878775E1,2.106801141E-3,2.274215221E-4,-7.739198953E-2,7.742099441E-2
1.071874275E1,-3.382470459E-4,1.340623014E-3,-7.662340254E-2,7.663587605E-2
1.072869875E1,-2.050794894E-3,1.785892062E-3,-7.212176174E-2,7.217301218E-2
1.073865475E1,-2.509125043E-3,-2.028021030E-3,-7.472234219E-2,7.479195813E-2
1.074861075E1,1.561217825E-3,1.032026485E-4,-7.401736826E-2,7.403390342E-2
1.075856675E1,-1.443893183E-3,-4.757689312E-4,-7.645416260E-2,7.646927594E-2
1.076852275E1,1.680552377E-3,1.373197883E-4,-7.846897095E-2,7.848708502E-2
1.077847875E1,-1.131745754E-3,-9.615002200E-4,-7.950254530E-2,7.951641365E-2
1.078843475E1,2.206749981E-3,2.216389403E-4,-7.634644955E-2,7.637865689E-2
1.079839075E1,-6.905029877E-4,-1.692374237E-3,-7.210137695E-2,7.212454148E-2
1.080834675E1,-1.302131684E-3,-9.430684149E-4,-7.119498402E-2,7.121313555E-2
1.081830275E1,5.090840277E-4,2.910401672E-4,-7.168580592E-2,7.168820434E-2
1.082825875E1,1.512181479E-3,2.353648655E-3,-7.677502930E-2,7.682598180E-2
1.083821475E1,1.875252347E-4,9.831860662E-4,-7.645944506E-2,7.646599610E-2
1.084817075E1,8.937832317E-4,2.100391313E-3,-8.066432923E-2,8.069662014E-2
1.085812675E1,-9.171662969E-4,-7.593110204E-4,-7.838067412E-2,7.838971759E-2
1.086808275E1,-1.591821667E-3,-2.132363617E-3,-7.592950761E-2,7.597612123E-2
1.087803875E1,5.285872612E-4,1.035199501E-3,-7.422029227E-2,7.422939328E-2
1.088799475E1,-2.549899742E-3,2.895509824E-4,-7.106661797E-2,7.111293847E-2
1.089795075E1,5.148660857E-4,7.619960234E-4,-7.313349843E-2,7.313928026E-2
1.090790675E1,-1.143126050E-3,-1.846472733E-3,-7.764818519E-2,7.767854828E-2
1.091786275E1,-2.094673458E-3,7.138904184E-4,-8.061334491E-2,8.064371441E-2
1.092781875E1,-8.186046034E-5,2.800850198E-3,-8.018103242E-2,8.022997833E-2
1.093777475E1,-9.545782814E-4,-9.800121188E-5,-7.331966609E-2,7.332594533E-2
1.094773075E1,1.024526427E-3,2.113687806E-3,-7.110922784E-2,7.114801202E-2
1.095768675E1,4.402288760E-4,-1.691437326E-3,-6.966473162E-2,6.968665291E-2
1.096764275E1,-3.459911095E-4,-1.158480532E-3,-7.077143341E-2,7.078176018E-2
1.097759875E1,-2.366797766E-3,-3.246441483E-4,-7.533396035E-2,7.537182967E-2
1.098755475E1,1.131737255E-3,5.728323013E-4,-8.082888275E-2,8.083883506E-2
1.099751075E1,1.263563754E-3,9.133294225E-5,-8.002407104E-2,8.003409824E-2
1.100746675E1,3.021028358E-3,-2.386868000E-4,-8.097272366E-2,8.102941170E-2
1.101742204E1,-2.160439617E-4,-6.693201140E-4,-7.782540470E-2,7.782858268E-2
1.102737804E1,-9.122272022E-4,1.174779609E-4,-7.027989626E-2,7.028591450E-2
1.103733404E1,-8.350412827E-6,1.475690864E-3,-6.947669387E-2,6.949236450E-2
1.104729004E1,-1.295700087E-3,-1.524216495E-3,-7.279729098E-2,7.282477359E-2
1.105724504E1,-2.778399503E-4,-2.152988687E-3,-7.661919296E-2,7.664993989E-2
1.106720104E1,-3.729670425E-4,1.745325513E-3,-7.975670695E-2,7.977667309E-2
1.107715704E1,-2.391643124E-3,-2.941237763E-4,-7.787518203E-2,7.791245370E-2
1.108711304E1,2.573099220E-3,1.020993106E-3,-7.723742723E-2,7.728701982E-2
1.109706904E1,-2.688774373E-3,1.301158220E-3,-7.232682407E-2,7.238847975E-2
1.110702504E1,4.500156792E-4,1.417970285E-3,-7.290180027E-2,7.291697770E-2
1.111698104E1,-3.473347169E-4,3.207474947E-4,-7.327091694E-2,7.327244222E-2
1.112693704E1,-2.431764733E-5,7.751174271E-4,-7.785191387E-2,7.785577622E-2
1.113689304E1,3.360080300E-4,-2.323566005E-4,-7.750703394E-2,7.750811055E-2
1.114684904E1,2.826078329E-3,9.537758306E-4,-8.167197555E-2,8.172642166E-2
1.115680504E1,8.968025213E-5,5.469284952E-5,-8.300968260E-2,8.300974906E-2
1.116676104E1,-8.253104170E-4,1.317628659E-3,-7.384985685E-2,7.386622124E-2
1.117671704E1,-1.073517138E-3,8.840654045E-4,-6.999120116E-2,7.000501590E-2
1.118667304E1,-1.555000199E-3,7.994081825E-4,-6.567669660E-2,6.569996617E-2
1.119662904E1,2.903041022E-4,4.592548590E-3,-7.038302720E-2,7.053329920E-2
1.120658504E1,2.826752316E-4,6.926199421E-4,-7.819708437E-2,7.820066260E-2
1.121654104E1,2.411606256E-3,1.474258490E-3,-8.178915083E-2,8.183797698E-2
1.122649704E1,3.438635496E-3,1.816225238E-3,-7.852945477E-2,7.862568381E-2
1.123645304E1,1.111032674E-3,6.159385666E-4,-7.773290575E-2,7.774328530E-2
1.124640904E1,4.188455641E-4,2.849075943E-3,-7.251221687E-2,7.256937550E-2
1.125636504E1,-8.932939381E-4,-1.132084057E-3,-6.801253557E-2,6.802782213E-2
1.126632104E1,3.763552289E-3,4.048477858E-4,-7.080996782E-2,7.091106944E-2
1.127627704E1,9.832119104E-4,1.352666877E-3,-7.758371532E-2,7.760173514E-2
1.128623304E1,-8.283390198E-4,4.242267460E-5,-8.083554357E-2,8.083979868E-2
1.129618904E1,-7.386546349E-5,-4.843501374E-4,-8.149520308E-2,8.149667586E-2
1.130614504E1,1.286132960E-3,2.544019371E-4,-7.762157172E-2,7.763264297E-2
1.131610104E1,1.419557258E-3,-1.170389354E-3,-7.351737469E-2,7.354039255E-2
1.132605704E1,1.500814687E-5,-1.446920447E-3,-7.132643461E-2,7.134111072E-2
1.133601304E1,3.471551463E-5,4.250155762E-4,-7.128649205E-2,7.128776748E-2
1.134596904E1,-1.378542511E-3,9.380746633E-4,-7.341715693E-2,7.343608987E-2
1.135592504E1,-1.190257026E-3,3.566347994E-3,-7.497563958E-2,7.506984801E-2
1.136588104E1,-3.268684959E-4,-1.299543306E-3,-8.162120730E-2,8.163220649E-2
1.137583704E1,-3.508280497E-3,2.173930407E-4,-7.951384783E-2,7.959150261E-2
1.138579304E1,-1.801594044E-4,-1.745400950E-4,-7.612174749E-2,7.612216079E-2
1.139574804E1,-2.896153019E-4,6.355931982E-4,-7.370518893E-2,7.370849836E-2
1.140570404E1,-7.205237052E-4,-1.998231746E-3,-7.294975221E-2,7.298067163E-2
1.141566004E1,4.802955664E-4,6.745168939E-4,-7.575379312E-2,7.575831855E-2
1.142561604E1,-2.668414963E-4,-3.272574395E-5,-7.988438010E-2,7.988483248E-2
1.143557204E1,1.110545360E-3,7.321340963E-4,-8.146896213E-2,8.147982034E-2
1.144552804E1,-2.313074656E-4,7.841894403E-4,-8.163167536E-2,8.163576960E-2
1.145548404E1,1.310130116E-3,8.827261627E-4,-7.306561619E-2,7.308269231E-2
1.146544004E1,-6.548748934E-4,1.186455600E-3,-7.172132283E-2,7.173412498E-2
1.147539604E1,2.439419914E-4,3.198627383E-4,-7.191493362E-2,7.191605869E-2
1.148535204E1,1.792990137E-3,-1.091029495E-3,-7.396808267E-2,7.399785411E-2
1.149530804E1,2.494219807E-4,4.698494449E-4,-7.753884792E-2,7.754067260E-2
1.150526404E1,-3.113038838E-5,-1.337682828E-3,-7.967481762E-2,7.968605228E-2
1.151522004E1,-1.421842608E-4,-1.118504442E-3,-7.557567954E-2,7.558408964E-2
1.152517604E1,-9.800267871E-4,5.552060902E-4,-7.266843319E-2,7.267716208E-2
1.153513204E1,-2.042095643E-3,-2.922117710E-4,-7.262849063E-2,7.265778137E-2
1.154508804E1,-4.543670220E-4,-1.110326499E-3,-7.168423384E-2,7.169427213E-2
1.155504404E1,1.637279638E-3,1.965276897E-5,-7.640415430E-2,7.642169761E-2
1.156500004E1,2.620527521E-3,1.371601596E-3,-7.965154201E-2,7.970644014E-2
1.157495604E1,-1.456505735E-3,2.362829633E-3,-8.132480830E-2,8.137216243E-2
1.158491204E1,-8.125056047E-5,2.278629690E-4,-8.137178421E-2,8.137214381E-2
1.159486804E1,-2.880765591E-3,3.104209900E-4,-7.454583794E-2,7.460212548E-2
1.160482404E1,1.135663479E-3,-2.496089786E-3,-7.278240472E-2,7.283404858E-2
1.161478004E1,-8.806157857E-4,-8.449302986E-4,-6.991019100E-2,6.992084236E-2
1.162473604E1,8.187170606E-4,-1.283353195E-3,-7.419031858E-2,7.420593416E-2
1.163469204E1,2.771879546E-3,3.318544477E-4,-8.115234971E-2,8.120035288E-2
1.164464804E1,-6.061571185E-4,1.933981664E-3,-8.175146580E-2,8.177658511E-2
1.165460404E1,9.033225942E-4,-1.251957379E-3,-7.877804339E-2,7.879316918E-2
1.166456004E1,2.383304527E-3,-5.531394854E-4,-7.439975441E-2,7.443997286E-2
1.167451604E1,1.338812755E-3,-1.074586995E-3,-7.129477710E-2,7.131544291E-2
1.168447204E1,-3.428418422E-4,8.606594056E-4,-7.160513848E-2,7.161113134E-2
1.169442804E1,1.605526777E-3,-1.346035860E-3,-7.412075996E-2,7.415036471E-2
1.170438404E1,-3.671262530E-4,3.470415249E-4,-7.762448490E-2,7.762612882E-2
1.171434004E1,3.250293666E-4,-5.488451570E-4,-8.301285654E-2,8.301530718E-2
1.172429604E1,5.168372882E-4,-1.137256622E-3,-8.016906679E-2,8.017879859E-2
1.173425204E1,-1.702374779E-3,-7.716044784E-4,-7.991846651E-2,7.994031988E-2
1.174420704E1,-7.614545757E-5,1.190834679E-3,-7.285797596E-2,7.286774696E-2
1.175416304E1,1.443720656E-3,-1.029297709E-4,-7.417890429E-2,7.419302370E-2
1.176411904E1,-1.347194659E-3,1.892637461E-3,-7.132937014E-2,7.136719173E-2
1.177407504E1,9.423249867E-4,3.245687112E-4,-7.174108922E-2,7.174801185E-2
1.178403104E1,-1.852369402E-3,-3.002053127E-4,-7.579607517E-2,7.581930101E-2
1.179398704E1,2.058749087E-3,1.450557262E-3,-7.871703058E-2,7.875730740E-2
1.180394304E1,1.722515328E-3,-9.360443801E-4,-7.955048233E-2,7.957463464E-2
1.181389904E1,1.476439182E-3,1.769993454E-3,-7.631367445E-2,7.634847515E-2
1.182385504E1,6.316288491E-4,7.585249841E-5,-7.141713798E-2,7.141997134E-2
1.183381104E1,-1.502628322E-3,2.091865055E-3,-6.969833374E-2,6.974590682E-2
1.184376704E1,1.588656800E-3,3.524338827E-4,-7.605869323E-2,7.607609911E-2
1.185372304E1,1.514354488E-3,9.252801538E-4,-7.665231079E-2,7.667285153E-2
1.186367904E1,2.695866628E-3,-1.521268860E-4,-7.932885736E-2,7.937479732E-2
1.187363504E1,-7.372142281E-4,-5.039479584E-5,-8.286552876E-2,8.286882334E-2
1.188359104E1,7.887262618E-4,8.958950639E-4,-7.872388512E-2,7.873293342E-2
1.189354704E1,4.011171404E-5,3.488818184E-4,-7.389957458E-2,7.390040900E-2
1.190350304E1,-9.448181372E-4,-1.368593425E-3,-6.886924058E-2,6.888931722E-2
1.191345904E1,-1.693055965E-4,1.033358276E-4,-6.827988476E-2,6.828017285E-2
1.192341504E1,2.654582786E-4,1.196907833E-4,-7.277336717E-2,7.277394975E-2
1.193337104E1,2.806383127E-4,2.043025568E-3,-7.835189253E-2,7.837902637E-2
1.194332704E1,-7.661275449E-4,5.937125534E-4,-8.182513714E-2,8.183087751E-2
1.195328304E1,1.887712395E-3,1.170067117E-4,-7.957157493E-2,7.959404931E-2
1.196323904E1,1.686261967E-3,3.198636696E-4,-7.431780547E-2,7.433762171E-2
1.197319504E1,-1.808802481E-4,-9.483331814E-4,-7.419743389E-2,7.420371452E-2
1.198315104E1,1.654842170E-3,7.655741647E-4,-7.007382065E-2,7.009753881E-2
1.199310704E1,5.219334853E-4,-2.254982479E-3,-7.277293503E-2,7.280973447E-2
1.200306304E1,-1.311486587E-3,1.446980052E-3,-7.752476633E-2,7.754935939E-2
1.201301904E1,1.022241544E-3,-2.894364297E-5,-8.012427390E-2,8.013079984E-2
1.202297479E1,3.655982902E-3,1.801859587E-3,-8.040894568E-2,8.051218202E-2
1.203293079E1,1.611165935E-4,1.929424703E-3,-7.466131449E-2,7.468641456E-2
1.204288679E1,1.249150140E-3,1.865613274E-3,-7.205373794E-2,7.208870952E-2
1.205284279E1,-8.004186093E-4,-1.901428215E-3,-7.286999375E-2,7.289919127E-2
1.206279879E1,9.865011089E-4,1.428197138E-3,-7.247120142E-2,7.249198553E-2
1.207275379E1,1.610213425E-3,-1.367588528E-3,-7.575833797E-2,7.578778832E-2
1.208270979E1,3.123857896E-4,-1.152612269E-3,-7.565910369E-2,7.566852761E-2
1.209266579E1,1.538771437E-3,-6.151478738E-5,-7.519411296E-2,7.520988117E-2
1.210262179E1,2.714035101E-3,-1.022728160E-3,-7.438895851E-2,7.444547742E-2
1.211257779E1,3.885559272E-3,4.004649818E-4,-7.601561397E-2,7.611590839E-2
1.212253379E1,1.066602301E-3,5.210526288E-4,-7.804952562E-2,7.805855229E-2
1.213248979E1,-1.627127640E-4,1.852279529E-4,-7.685615867E-2,7.685655412E-2
1.214244579E1,-2.470469335E-3,9.052148089E-4,-7.816427201E-2,7.820854206E-2
1.215240179E1,5.644690827E-4,-3.429612145E-3,-7.754695415E-2,7.762480894E-2
1.216235779E1,2.385281725E-3,1.699708402E-3,-7.876636088E-2,7.882079791E-2
1.217231379E1,-2.515733475E-3,9.408872575E-5,-7.639668137E-2,7.643814945E-2
1.218226979E1,5.140892463E-4,1.356975175E-3,-7.505937666E-2,7.507340204E-2
1.219222579E1,2.648879075E-3,1.417429186E-3,-7.458639890E-2,7.464687915E-2
1.220218179E1,4.208764876E-4,-7.682368159E-4,-7.203778625E-2,7.204311190E-2
1.221213779E1,-1.165302237E-3,-5.056494847E-4,-7.331930101E-2,7.333030418E-2
1.222209379E1,-6.650185678E-4,-2.440074459E-4,-7.096977532E-2,7.097331046E-2
1.223204979E1,-3.869845532E-4,7.245847955E-4,-7.283025980E-2,7.283489221E-2
1.224200579E1,3.827253531E-4,2.193814144E-4,-7.564162463E-2,7.564291099E-2
1.225196179E1,-4.388598609E-4,1.705159433E-3,-7.408580184E-2,7.410672170E-2
1.226191779E1,-2.537889872E-3,1.476556063E-4,-7.828123122E-2,7.832249900E-2
1.227187379E1,-8.112378418E-5,-9.445063770E-4,-7.866153121E-2,7.866724328E-2
1.228182979E1,-6.241867668E-4,1.397741958E-3,-8.147551119E-2,8.148989027E-2
1.229178579E1,1.180903753E-3,7.005268708E-4,-7.968267053E-2,7.969449953E-2
1.230174179E1,-7.179173990E-4,-7.859803736E-5,-7.645629346E-2,7.645970438E-2
1.231169779E1,2.314995800E-4,6.654895842E-4,-7.286448777E-2,7.286789448E-2
1.232165379E1,1.522069331E-3,-1.700608991E-3,-7.394194603E-2,7.397715964E-2
1.233160979E1,1.333517605E-3,6.533320993E-5,-7.600456476E-2,7.601629037E-2
1.234156579E1,-1.785494620E-3,-2.203180455E-3,-7.761166990E-2,7.766346180E-2
1.235152179E1,-1.609663595E-4,-9.807897732E-4,-7.625345886E-2,7.625993605E-2
1.236147779E1,1.297272858E-3,1.205721870E-3,-7.561285049E-2,7.563358937E-2
1.237143379E1,1.160386368E-3,3.005752340E-3,-7.104153186E-2,7.111455753E-2
1.238138979E1,-1.162319677E-5,-1.879213378E-3,-7.052212209E-2,7.054715644E-2
1.239134579E1,-2.982912119E-3,-2.682674676E-4,-7.423350215E-2,7.429389325E-2
1.240130179E1,4.859571927E-4,3.623291850E-4,-7.559493929E-2,7.559736955E-2
1.241125779E1,3.530654358E-4,-1.577865332E-4,-8.068823814E-2,8.068916486E-2
1.242121279E1,-3.036585986E-4,2.774479799E-3,-7.753438503E-2,7.758460419E-2
1.243116879E1,1.897444017E-3,4.226416349E-4,-7.455164194E-2,7.457698194E-2
1.244112479E1,1.017829054E-3,1.577423885E-3,-7.431896776E-2,7.434267423E-2
1.245108079E1,6.982497289E-4,5.398569629E-4,-7.510992885E-2,7.511511439E-2
1.246103679E1,-4.412357230E-4,2.371976152E-4,-7.589514554E-2,7.589679880E-2
1.247099279E1,1.992360689E-3,-2.125558443E-3,-7.741527259E-2,7.747007119E-2
1.248094879E1,1.059556496E-3,-1.009822823E-3,-7.770293206E-2,7.771671669E-2
1.249090479E1,-1.604376012E-4,2.788910642E-3,-7.694233209E-2,7.699302715E-2
1.250086079E1,-1.269063796E-4,1.221503131E-3,-7.483312488E-2,7.484320112E-2
1.251081679E1,-1.847308362E-3,-2.081615850E-3,-7.550424337E-2,7.555551893E-2
1.252077279E1,5.574394017E-4,8.231382817E-4,-7.525136322E-2,7.525792956E-2
1.253072879E1,1.072761021E-3,-4.469240084E-4,-7.574564219E-2,7.575455674E-2
1.254068479E1,-1.281195437E-3,-2.683987841E-4,-7.645753771E-2,7.646874245E-2
1.255064079E1,-9.187392425E-4,-2.516210079E-4,-7.629801333E-2,7.630395948E-2
1.256059679E1,4.357470316E-4,-2.813821658E-3,-7.517664135E-2,7.523054481E-2
1.257055279E1,-8.686692454E-4,2.567361109E-3,-7.770051807E-2,7.774777449E-2
1.258050879E1,1.513962867E-3,-1.292146742E-3,-7.748103887E-2,7.750660043E-2
1.259046479E1,-1.065706601E-4,3.342460841E-4,-7.784402370E-2,7.784481424E-2
1.260042079E1,4.509982653E-3,1.199238934E-3,-7.990270108E-2,8.003886404E-2
1.261037679E1,-6.408373592E-4,2.369964495E-3,-7.625923306E-2,7.629874200E-2
1.262033279E1,-4.197313683E-4,5.470737815E-4,-7.785569876E-2,7.785875220E-2
1.263028879E1,-6.298547378E-4,-5.538770929E-4,-7.438427210E-2,7.438900075E-2
1.264024479E1,1.704398543E-3,1.520099118E-3,-7.305411249E-2,7.308980112E-2
1.265020079E1,2.494292101E-3,6.993124261E-4,-7.277368754E-2,7.281977842E-2
1.266015679E1,1.246490749E-3,8.900193498E-4,-7.435456663E-2,7.437033987E-2
1.267011279E1,-1.427056501E-3,-5.140807480E-5,-7.415536791E-2,7.416911570E-2
1.268006879E1,-1.271779183E-5,1.304494217E-4,-7.791231573E-2,7.791242597E-2
1.269002479E1,4.056648468E-4,-1.957468688E-3,-7.861086726E-2,7.863628106E-2
1.269998079E1,-2.280413173E-5,4.728436470E-4,-7.745652646E-2,7.745797307E-2
1.270993679E1,-2.591689350E-3,-1.125195995E-4,-7.678380609E-2,7.682761477E-2
1.271989279E1,1.015448710E-3,-4.570335150E-4,-7.497841865E-2,7.498668734E-2
1.272984879E1,2.356350422E-3,1.725426875E-3,-7.796861231E-2,7.802329134E-2
1.273980479E1,9.041436715E-4,-2.585237846E-3,-7.839608938E-2,7.844391474E-2
1.274975979E1,-1.809617504E-3,-6.082747132E-5,-8.202570677E-2,8.204568841E-2
1.275971579E1,-3.420499270E-4,3.085564822E-4,-7.853475958E-2,7.853611060E-2
1.276967179E1,7.112302701E-4,-1.906661317E-3,-7.770332694E-2,7.772996992E-2
1.277962779E1,9.227445116E-5,1.210161485E-3,-7.668063045E-2,7.669023465E-2