"Time (s)","Gyroscope x (rad/s)","Gyroscope y (rad/s)","Gyroscope z (rad/s)","Absolute (rad/s)"
-7.153333354E-4,9.620795026E-5,2.289702184E-3,-2.457462810E-2,2.468125480E-2
9.241666667E-3,2.440322191E-3,8.649108931E-4,-2.752541192E-2,2.764690841E-2
1.919766666E-2,-3.925161436E-4,7.614539936E-4,-2.777421661E-2,2.778742502E-2
2.915466667E-2,1.415770268E-3,-1.679891720E-4,-3.001846187E-2,3.005229906E-2
3.911166667E-2,8.106265450E-4,-3.113513812E-4,-3.006829880E-2,3.008083523E-2
4.906866666E-2,-1.502062543E-3,2.651947550E-3,-2.507460676E-2,2.525915521E-2
5.902466667E-2,2.967542969E-4,1.054437831E-3,-2.311594225E-2,2.314188170E-2
6.898166666E-2,-8.239038289E-4,-2.121618018E-4,-2.476363815E-2,2.477824862E-2
7.893866667E-2,1.237424323E-3,3.495216370E-4,-2.572281286E-2,2.575493129E-2
8.889566666E-2,-5.900368560E-4,3.295475617E-4,-2.861367539E-2,2.862165551E-2
9.885266667E-2,1.883476856E-3,-6.163315848E-4,-2.920388803E-2,2.927105098E-2
1.088086667E-1,-6.814135704E-4,1.882513054E-3,-2.953039110E-2,2.959817863E-2
1.187656667E-1,-2.242831979E-4,1.728408039E-3,-2.504986152E-2,2.511042133E-2
1.287226667E-1,-4.293464590E-4,1.376338303E-3,-2.363625541E-2,2.368018614E-2
1.386796667E-1,1.196386060E-3,-1.673248596E-3,-2.374997362E-2,2.383888310E-2
1.486356667E-1,-8.752383292E-5,8.807228878E-4,-2.602111548E-2,2.603616301E-2
1.585926667E-1,5.127561744E-4,-6.069568917E-4,-2.694158442E-2,2.695329825E-2
1.685496667E-1,1.223287545E-3,2.471391112E-3,-2.855146490E-2,2.868432245E-2
1.785066667E-1,2.503122436E-3,3.685168922E-4,-2.652154490E-2,2.664195508E-2
1.884626667E-1,-3.198282793E-4,-1.710392535E-4,-2.655723318E-2,2.655970969E-2
1.984196667E-1,-6.162506761E-4,1.109286211E-3,-2.563423105E-2,2.566562063E-2
2.083766667E-1,-8.301025955E-4,-1.290841028E-4,-2.270581760E-2,2.272135308E-2
2.183336667E-1,-1.603960758E-3,1.846253872E-4,-2.558284253E-2,2.563373965E-2
2.282906667E-1,3.358857939E-4,3.614593297E-4,-2.684437856E-2,2.684891306E-2
2.382466667E-1,-9.854886448E-4,1.324214041E-3,-2.840075083E-2,2.844867973E-2
2.482036667E-1,1.809232519E-3,-6.910003722E-4,-2.830887400E-2,2.837504451E-2
2.581606667E-1,-1.467830385E-3,-7.366258651E-4,-2.583548985E-2,2.588763565E-2
2.681176667E-1,-1.050907886E-4,1.956095919E-3,-2.511670254E-2,2.519297723E-2
2.780736667E-1,2.008526353E-3,-1.410020515E-3,-2.567015029E-2,2.578718581E-2
2.880306667E-1,-3.528986126E-4,1.236362383E-3,-2.372205071E-2,2.375686889E-2
2.979876667E-1,1.946798759E-3,-9.710155427E-4,-2.442937158E-2,2.452604926E-2
3.079446667E-1,-7.235527737E-4,1.274828799E-3,-2.575083263E-2,2.579252020E-2
3.179016667E-1,9.743174887E-4,-2.031930722E-3,-2.638949826E-2,2.648553673E-2
3.278576667E-1,-2.303638030E-5,6.903707981E-5,-2.805503830E-2,2.805513270E-2
3.378146667E-1,1.415476319E-3,1.882808283E-4,-2.661072835E-2,2.664901286E-2
3.477716667E-1,9.683315875E-4,1.257806085E-3,-2.574706823E-2,2.579595442E-2
3.577286667E-1,2.104369923E-4,-1.673601568E-3,-2.653317712E-2,2.658673944E-2
3.676846667E-1,1.510485308E-4,1.182106324E-3,-2.774091996E-2,2.776650557E-2
3.776416667E-1,-6.346043665E-4,1.177625731E-3,-2.586839348E-2,2.590295941E-2
3.875986667E-1,-2.800286748E-3,1.704180613E-4,-2.743672952E-2,2.757978925E-2
3.975556667E-1,4.884670489E-4,2.503450960E-4,-2.461006679E-2,2.461618695E-2
4.075116667E-1,3.493045457E-3,1.784395427E-4,-2.652142011E-2,2.675105478E-2
4.174686667E-1,-5.216469290E-4,-9.599858895E-4,-2.638674155E-2,2.640935096E-2
4.274256667E-1,-7.615977665E-4,-1.567769796E-4,-2.674440295E-2,2.675570405E-2
4.373826667E-1,8.102096617E-4,1.945545897E-3,-2.653428540E-2,2.661784909E-2
4.473386667E-1,3.358055837E-3,1.781494357E-3,-2.380640805E-2,2.410799298E-2
4.572956667E-1,-1.137773623E-3,1.524275169E-3,-2.271977440E-2,2.279925640E-2
4.672526667E-1,7.773055695E-4,-1.464324072E-3,-2.439996600E-2,2.445622190E-2
4.772096667E-1,-1.407684758E-4,-3.130482510E-4,-2.360253409E-2,2.360502977E-2
4.871666667E-1,3.814775264E-4,1.317871734E-3,-2.770034224E-2,2.773429774E-2
4.971226667E-1,1.709529432E-3,-9.445054457E-4,-2.800097689E-2,2.806900939E-2
5.070796667E-1,1.031488646E-3,-2.733888105E-4,-2.751814574E-2,2.753882814E-2
5.170366667E-1,7.403936470E-4,1.272856258E-3,-2.370966598E-2,2.375534902E-2
5.269936667E-1,-8.644273039E-4,9.360909462E-5,-2.231949568E-2,2.233642506E-2
5.369496667E-1,-1.634337706E-3,-1.269373111E-3,-2.539526671E-2,2.547944150E-2
5.469066667E-1,3.340046387E-4,-3.284784034E-4,-2.220559865E-2,2.221053959E-2
5.568636667E-1,1.507101348E-3,6.089163944E-4,-2.605613507E-2,2.610678664E-2
5.668206667E-1,1.840429613E-4,1.184691675E-3,-2.529420517E-2,2.532260219E-2
5.767766667E-1,-1.700427383E-4,-1.665198244E-3,-2.795361355E-2,2.800368387E-2
5.867336667E-1,-2.661696402E-3,1.060014591E-3,-2.528113127E-2,2.544295299E-2
5.966906667E-1,1.393202227E-3,2.608662471E-4,-2.410638519E-2,2.414802001E-2
6.066476667E-1,7.067644037E-5,-1.787637360E-3,-2.206933312E-2,2.214172773E-2
6.166046667E-1,-1.649616752E-3,6.109261885E-4,-2.603305504E-2,2.609242075E-2
6.265606667E-1,1.277771080E-4,-1.578991301E-3,-2.646075934E-2,2.650813697E-2
6.365176667E-1,2.374043688E-3,2.277353778E-4,-2.434295416E-2,2.445950457E-2
6.464746667E-1,-4.808650119E-4,1.329218969E-3,-2.419275045E-2,2.423400975E-2
6.564316667E-1,1.265222905E-3,-1.771288924E-3,-2.515288070E-2,2.524689408E-2
6.663876667E-1,-6.972604897E-4,-7.302593440E-4,-2.283699438E-2,2.285930365E-2
6.763446667E-1,-1.454657642E-3,-2.574427053E-4,-2.359765954E-2,2.364385420E-2
6.863016667E-1,-4.056387115E-4,-1.600475051E-3,-2.096459083E-2,2.102950622E-2
6.962586667E-1,-3.325421130E-4,-2.331057563E-3,-2.452953905E-2,2.464229493E-2
7.062146667E-1,-5.477434024E-5,1.553428359E-3,-2.673117444E-2,2.677632960E-2
7.161716667E-1,-2.538816771E-4,-6.528478116E-5,-2.419661917E-2,2.419803912E-2
7.261286667E-1,8.888806333E-4,2.924113534E-3,-2.540515922E-2,2.558833062E-2
7.360856667E-1,-8.285080548E-4,-2.535060048E-5,-2.426046506E-2,2.427462117E-2
7.460416667E-1,2.008291194E-3,9.560249746E-4,-2.415926382E-2,2.426143536E-2
7.559986667E-1,1.025658916E-3,7.805489004E-4,-2.197360061E-2,2.201136880E-2
7.659556667E-1,3.639018862E-3,-1.134751365E-4,-2.250117250E-2,2.279381711E-2
7.759126667E-1,-3.921426833E-4,-1.813730225E-3,-2.442573756E-2,2.449612313E-2
7.858696667E-1,-2.435382921E-4,3.950959072E-4,-2.390828356E-2,2.391278810E-2
7.958256667E-1,-7.921038195E-4,6.820913404E-4,-2.441102825E-2,2.443339881E-2
8.057826667E-1,7.453389699E-4,-3.046095371E-4,-2.409810759E-2,2.411155546E-2
8.157396667E-1,-2.824445255E-5,-2.063864842E-3,-2.651656792E-2,2.659678007E-2
8.256962917E-1,2.853029408E-3,-3.312127665E-4,-2.336471528E-2,2.354059045E-2
8.356522917E-1,5.569922505E-4,-7.997257635E-4,-2.254518308E-2,2.256623765E-2
8.456092917E-1,7.322282763E-4,-3.738859668E-4,-2.150681429E-2,2.152252331E-2
8.555662917E-1,-1.688216580E-3,1.089712605E-3,-2.300701663E-2,2.309459597E-2
8.655232917E-1,9.118274902E-4,-1.049814746E-4,-2.393512800E-2,2.395272016E-2
8.754792917E-1,1.248148037E-3,2.050356939E-3,-2.330164984E-2,2.342495939E-2
8.854362917E-1,9.373571374E-4,-8.026873693E-4,-2.350751311E-2,2.353988356E-2
8.953932917E-1,2.843715483E-4,1.365211792E-3,-2.031090111E-2,2.035871740E-2
9.053502917E-1,1.013545087E-3,-8.018016815E-4,-2.456663176E-2,2.460060072E-2
9.153062917E-1,3.298952710E-3,-5.215303972E-4,-2.412609197E-2,2.435617779E-2
9.252632917E-1,5.473748315E-4,-1.050112769E-4,-2.545740642E-2,2.546350699E-2
9.352202917E-1,7.220910629E-4,5.913507193E-4,-2.208933048E-2,2.210903960E-2
9.451772917E-1,-1.643594936E-3,1.410106197E-4,-2.196283080E-2,2.202469580E-2
9.551332917E-1,2.933167852E-4,1.750875264E-3,-2.225024998E-2,2.232095928E-2
9.650902917E-1,-2.493681153E-3,-7.916446775E-4,-2.399355546E-2,2.413577947E-2
9.750472917E-1,4.958689678E-4,-9.750695899E-4,-2.463864535E-2,2.466291733E-2
9.850042917E-1,1.374445856E-3,-2.638746053E-3,-2.598061040E-2,2.615041489E-2
9.949612917E-1,1.178922481E-3,1.221001148E-3,-2.267514914E-2,2.273858154E-2
1.004917292E0,8.337768377E-4,7.767863572E-4,-2.093237638E-2,2.096337191E-2
1.014874292E0,1.140332082E-3,1.312079839E-3,-1.906934939E-2,1.914842022E-2
1.024831292E0,9.251486626E-4,-1.887974329E-3,-2.012316324E-2,2.023269744E-2
1.034788292E0,-1.921762014E-4,1.446958631E-4,-2.495389059E-2,2.495505008E-2
1.044744292E0,-2.428432927E-3,1.029931009E-3,-2.611662447E-2,2.624949749E-2
1.054701292E0,-2.080908278E-3,8.230628446E-4,-2.448233776E-2,2.458439492E-2
1.064658292E0,-2.923293505E-4,-4.432694986E-4,-2.054245956E-2,2.054932089E-2
1.074615292E0,4.483590834E-3,-1.654881053E-3,-1.879509352E-2,1.939321424E-2
1.084571292E0,-1.403592760E-3,-4.902807996E-4,-1.789388061E-2,1.795553984E-2
1.094528292E0,2.373913303E-4,-1.572947949E-4,-1.793705299E-2,1.793931343E-2
1.104485292E0,8.493858040E-4,-1.904861070E-3,-2.391984500E-2,2.401060051E-2
1.114442292E0,-6.888495991E-4,2.919253893E-3,-2.373501658E-2,2.392378668E-2
1.124398292E0,-2.001594985E-4,-8.445922285E-4,-2.414860204E-2,2.416419625E-2
1.134355292E0,2.464725170E-3,-7.471852005E-4,-2.074254677E-2,2.090182773E-2
1.144312292E0,1.813315903E-3,-1.423805952E-4,-2.093855292E-2,2.101740671E-2
1.154269292E0,1.493763411E-4,-6.689727306E-4,-2.072891220E-2,2.074024202E-2
1.164225292E0,-7.326400373E-5,-8.591227233E-4,-1.973821595E-2,1.975703997E-2
1.174182292E0,-1.398848137E-3,-1.830011606E-3,-1.879440807E-2,1.893503349E-2
1.184139292E0,7.567143766E-4,1.316731796E-4,-1.751529053E-2,1.753212357E-2
1.194096292E0,-2.257365268E-4,5.883630365E-5,-2.187020704E-2,2.187145113E-2
1.204052292E0,1.532748691E-3,-2.295840532E-4,-2.075327933E-2,2.081106990E-2
1.214009292E0,-7.154162740E-4,1.171411946E-3,-2.664356679E-2,2.667889948E-2
1.223966292E0,-3.616397735E-3,-1.638978720E-4,-2.131085470E-2,2.161614497E-2
1.233923292E0,-2.294853330E-3,-8.193384856E-4,-2.107753791E-2,2.121792336E-2
1.243879292E0,-7.222568383E-4,-3.170669079E-4,-2.150976844E-2,2.152422646E-2
1.253836292E0,-4.238181282E-5,-4.928437993E-4,-1.992030628E-2,1.992644709E-2
1.263793292E0,-6.892636884E-4,-4.467712715E-4,-2.095441334E-2,2.097050613E-2
1.273750292E0,9.696366615E-4,1.619439572E-3,-2.237128466E-2,2.245077186E-2
1.283706292E0,4.978082143E-5,-1.710038632E-4,-2.416598797E-2,2.416664426E-2
1.293663292E0,1.413145801E-4,7.127653807E-4,-2.169666998E-2,2.170883444E-2
1.303620292E0,-2.805301920E-4,-2.108854242E-3,-2.150705270E-2,2.161201701E-2
1.313577292E0,-4.995841999E-3,2.107133158E-3,-1.853128523E-2,1.930821016E-2
1.323534292E0,-3.867092310E-4,1.591012813E-3,-1.999682188E-2,2.006374220E-2
1.333490292E0,7.738808636E-4,9.041456506E-4,-1.667073369E-2,1.671316046E-2
1.343447292E0,-5.036375951E-4,1.019460149E-3,-2.134750783E-2,2.137776978E-2
1.353404292E0,-9.760416579E-4,7.147071883E-4,-1.778224856E-2,1.782335062E-2
1.363361292E0,1.232517883E-3,-3.071222454E-5,-2.094821632E-2,2.098446593E-2
1.373317292E0,-2.269482939E-4,1.486741006E-3,-1.943548024E-2,1.949358347E-2
1.383274292E0,2.172027249E-3,3.618216142E-4,-1.818512753E-2,1.831795514E-2
1.393231292E0,4.967082059E-4,3.069471568E-4,-1.425981335E-2,1.427176277E-2
1.403188292E0,-4.870635457E-4,-1.324741170E-4,-1.541802287E-2,1.542628308E-2
1.413144292E0,4.856218584E-5,-7.554134354E-4,-1.871841773E-2,1.873371747E-2
1.423101292E0,7.838610327E-4,-5.293106660E-4,-1.958687231E-2,1.960969594E-2
1.433058292E0,5.021548131E-4,-3.996947780E-4,-1.954344660E-2,1.955398221E-2
1.443015292E0,-2.182301832E-4,1.019503921E-3,-1.820707321E-2,1.823690016E-2
1.452971292E0,-3.730673343E-4,-1.340154558E-3,-1.900344528E-2,1.905429416E-2
1.462928292E0,2.911250340E-4,-2.314802259E-4,-1.801381446E-2,1.801765380E-2
1.472885292E0,8.470434113E-4,8.552474901E-4,-1.889237761E-2,1.893068574E-2
1.482842292E0,1.080161892E-4,9.917654097E-5,-1.752297953E-2,1.752359310E-2
1.492798292E0,1.667336328E-4,9.268596768E-4,-1.906024478E-2,1.908349549E-2
1.502755292E0,-6.572484272E-4,1.677870750E-3,-2.172953077E-2,2.180412193E-2
1.512712292E0,-1.877540722E-3,6.748614833E-4,-1.925323904E-2,1.935633774E-2
1.522669292E0,7.435423322E-4,-3.961169161E-3,-1.687530428E-2,1.734991674E-2
1.532625292E0,-2.077032113E-3,-9.575309232E-4,-1.594651677E-2,1.610969661E-2
1.542582292E0,-6.700842641E-4,6.675301120E-4,-1.651163958E-2,1.653870766E-2
1.552539292E0,-2.481372794E-4,8.941944689E-4,-1.867534965E-2,1.869839139E-2
1.562496292E0,-1.176423393E-4,-1.919168979E-3,-2.049588412E-2,2.058587659E-2
1.572452292E0,5.590517540E-4,9.578755125E-4,-1.869075373E-2,1.872363050E-2
1.582409292E0,-1.098499633E-3,-1.376917586E-3,-1.767742261E-2,1.776496197E-2
1.592366292E0,-3.075574292E-3,-2.099527046E-4,-1.657388173E-2,1.685813729E-2
1.602323292E0,1.387350960E-3,1.413179561E-4,-1.905727945E-2,1.910823418E-2
1.612279292E0,2.569617238E-3,6.319945678E-4,-1.950557157E-2,1.968424935E-2
1.622236292E0,6.582665956E-4,-3.448529169E-4,-1.988773420E-2,1.990161326E-2
1.632193292E0,9.531184332E-4,-6.899051368E-4,-1.834599487E-2,1.838368657E-2
1.642150292E0,-1.812574454E-3,-6.092106923E-4,-1.921711303E-2,1.931201691E-2
1.652106292E0,-5.643098848E-4,-5.818353966E-4,-1.689504460E-2,1.691447634E-2
1.662063292E0,1.439510379E-5,9.715864435E-4,-1.667480171E-2,1.670308952E-2
1.672020292E0,1.384092961E-3,-5.104299635E-5,-1.616247557E-2,1.622171185E-2
1.681977292E0,-9.129836690E-5,-8.454639465E-4,-1.868209057E-2,1.870143451E-2
1.691933292E0,1.627950929E-3,1.169509254E-3,-1.944883168E-2,1.955185489E-2
1.701890292E0,-6.067075301E-4,9.916108102E-4,-2.132928744E-2,2.136094307E-2
1.711847292E0,-1.210584422E-3,1.280350611E-3,-1.993119903E-2,2.000893568E-2
1.721804292E0,-5.916658556E-4,-8.219489828E-4,-1.625044458E-2,1.628197216E-2
1.731760292E0,6.235277979E-4,-7.537500933E-4,-1.619258709E-2,1.622210846E-2
1.741717292E0,-5.589157809E-4,-1.468155533E-4,-1.794174872E-2,1.795105259E-2
1.751674292E0,-2.530391794E-5,-7.284777239E-4,-1.766314171E-2,1.767817568E-2
1.761631292E0,1.839974197E-3,-2.784039825E-4,-1.911189966E-2,1.920228430E-2
1.771587292E0,-1.938250149E-3,1.976151019E-3,-1.570931636E-2,1.595131991E-2
1.781544292E0,7.307698252E-4,-8.960673586E-4,-1.600226574E-2,1.604398548E-2
1.791501292E0,-1.129307202E-3,1.716121100E-3,-1.383018121E-2,1.398192829E-2
1.801458292E0,5.428916775E-4,-8.173445240E-4,-1.676072180E-2,1.678941866E-2
1.811414292E0,-1.368219382E-3,-6.272569299E-4,-1.708147861E-2,1.714766419E-2
1.821371292E0,8.133915253E-5,-1.785199158E-3,-1.583938114E-2,1.593987287E-2
1.831328292E0,2.888517920E-3,-3.673648462E-4,-1.650950685E-2,1.676431654E-2
1.841285292E0,-4.420313053E-4,-1.366582699E-3,-1.751112193E-2,1.756992690E-2
1.851241292E0,2.371221781E-4,2.944711596E-4,-1.575392671E-2,1.575846271E-2
1.861198292E0,1.192398136E-3,4.515973851E-4,-1.570865326E-2,1.576031537E-2
1.871155292E0,3.542355960E-3,-6.403420120E-4,-1.807599142E-2,1.843094652E-2
1.881112292E0,-1.377834007E-3,9.863171726E-4,-1.813990623E-2,1.821887609E-2
1.891068292E0,-1.686137053E-3,-9.225392714E-4,-1.824895479E-2,1.834989067E-2
1.901025292E0,2.147217048E-3,5.251551047E-4,-1.548086666E-2,1.563788865E-2
1.910982292E0,-7.437753957E-4,8.781915531E-4,-1.564042456E-2,1.568270713E-2
1.920938292E0,-4.263266455E-4,-9.958744049E-4,-1.484014280E-2,1.487962898E-2
1.930895292E0,-1.773563912E-3,7.404182106E-4,-1.362389699E-2,1.375879054E-2
1.940852292E0,3.409860656E-4,-5.352357402E-4,-1.912146248E-2,1.913199091E-2
1.950809292E0,3.284537699E-3,-6.777346134E-4,-1.748476550E-2,1.780349788E-2
1.960765292E0,-1.083294628E-4,4.027104005E-4,-2.008427680E-2,2.008860586E-2
1.970722292E0,-1.038456918E-3,5.422849208E-4,-1.892250776E-2,1.895873851E-2
1.980679292E0,4.396521952E-3,-1.386376098E-3,-1.625109091E-2,1.689228818E-2
1.990636292E0,-4.465901293E-4,-1.064687967E-3,-1.331680641E-2,1.336676236E-2
2.000592292E0,-2.915940713E-4,-1.669491641E-3,-1.472561993E-2,1.482282401E-2
2.010549292E0,-2.186626429E-3,1.590095460E-3,-1.501131244E-2,1.525284367E-2
2.020506292E0,1.527508721E-5,2.150423825E-3,-1.626459695E-2,1.640614732E-2
2.030463292E0,1.775332144E-3,1.515042968E-3,-1.479342394E-2,1.497639981E-2
2.040419292E0,9.130005492E-4,-7.699429989E-5,-2.039245330E-2,2.041302647E-2
2.050376292E0,1.783735817E-3,-6.975159049E-4,-1.971224509E-2,1.980507128E-2
2.060333292E0,-2.972583752E-4,-4.013730213E-4,-1.592336781E-2,1.593119912E-2
2.070290292E0,2.198844682E-3,-3.080526367E-4,-1.544199698E-2,1.560080399E-2
2.080246292E0,4.283752060E-4,2.797078341E-4,-1.360761002E-2,1.361722410E-2
2.090203292E0,-5.639567971E-4,-9.900797158E-4,-1.489803940E-2,1.494154889E-2
2.100160292E0,1.677892287E-3,4.584128037E-4,-1.357711293E-2,1.368807730E-2
2.110117292E0,-1.695142244E-3,2.065570094E-3,-1.899053901E-2,1.917760827E-2
2.120073292E0,-1.503128209E-3,8.815294132E-4,-2.058950067E-2,2.066310785E-2
2.130030292E0,-2.313184552E-3,1.683467999E-4,-1.839073747E-2,1.853640710E-2
2.139987292E0,-1.850327128E-3,7.379967719E-4,-1.391263306E-2,1.405452626E-2
2.149944292E0,-3.133316059E-4,4.141284153E-4,-1.197069325E-2,1.198195209E-2
2.159900292E0,-5.633651745E-5,-1.783777960E-3,-1.398937032E-2,1.410274865E-2
2.169857292E0,8.664581110E-4,-1.029223204E-4,-1.387425885E-2,1.390166901E-2
2.179814292E0,-3.820317797E-4,-7.545975968E-4,-1.936090365E-2,1.937936934E-2
2.189770292E0,9.579377365E-4,-1.035324298E-3,-2.076518536E-2,2.081303591E-2
2.199727292E0,-7.376968861E-4,-2.566156909E-4,-1.805675030E-2,1.807363493E-2
2.209684292E0,3.559094621E-4,-5.449997261E-4,-1.595977135E-2,1.597303972E-2
2.219641292E0,1.054989290E-3,1.245196909E-4,-1.544285007E-2,1.547934513E-2
2.229597292E0,1.123110531E-3,2.038851380E-5,-1.167457551E-2,1.172849122E-2
2.239554292E0,-1.243107952E-3,9.279940277E-4,-1.421363279E-2,1.429803649E-2
2.249511292E0,2.394657582E-3,-5.094585940E-4,-1.493415982E-2,1.513350793E-2
2.259468292E0,-1.026172657E-3,4.423558712E-4,-1.719385013E-2,1.723012453E-2
2.269424292E0,1.411151141E-3,8.668964729E-4,-1.919085905E-2,1.926218908E-2
2.279381292E0,1.371203689E-3,1.864582300E-4,-1.839750260E-2,1.844947339E-2
2.289338292E0,9.292343748E-4,-6.576348096E-4,-1.695030741E-2,1.698849262E-2
2.299295292E0,2.057349309E-3,-2.039283514E-3,-1.562565006E-2,1.589189426E-2
2.309251292E0,-1.869102940E-3,-2.685589716E-4,-1.110686176E-2,1.126623485E-2
2.319208292E0,6.782105775E-4,5.370471627E-4,-1.366695948E-2,1.369431162E-2
2.329165292E0,1.201257226E-3,-1.859748736E-4,-1.806800067E-2,1.810884463E-2
2.339122292E0,-6.694009062E-5,2.753889188E-3,-1.978920028E-2,1.998001087E-2
2.349078292E0,8.838061476E-4,4.703570157E-4,-2.005417831E-2,2.007915379E-2
2.359035292E0,7.269459311E-4,1.640017144E-3,-1.546821184E-2,1.557188763E-2
2.368992292E0,-1.856495626E-3,9.071566164E-4,-1.578810252E-2,1.592274130E-2
2.378949292E0,8.902887930E-4,-1.359726302E-3,-1.382428966E-2,1.391949907E-2
2.388905292E0,-2.210314851E-3,4.326244816E-4,-1.292308420E-2,1.311787944E-2
2.398862292E0,3.366440069E-5,-1.079970971E-4,-1.517105848E-2,1.517148022E-2
2.408819292E0,-1.748430426E-3,-1.154230908E-3,-1.621239074E-2,1.634719766E-2
2.418775292E0,-1.862200443E-4,1.760066487E-3,-1.625420339E-2,1.635027951E-2
2.428732292E0,2.655690769E-3,-7.699420676E-4,-1.797767356E-2,1.818906954E-2
2.438689292E0,7.784285699E-4,-1.890867017E-3,-1.773905382E-2,1.785652148E-2
2.448646292E0,3.032697132E-3,1.335921697E-3,-1.818554290E-2,1.848501850E-2
2.458602292E0,-1.355659566E-3,2.530615777E-3,-1.739937998E-2,1.763463220E-2
2.468559292E0,-1.669862191E-3,4.473887384E-4,-1.562911458E-2,1.572443382E-2
2.478516292E0,-4.847553791E-4,1.448532566E-4,-1.596973278E-2,1.597774500E-2
2.488473292E0,7.546581910E-4,-4.461379722E-4,-1.516601816E-2,1.519133486E-2
2.498429292E0,8.814246394E-4,4.704948515E-3,-1.797086000E-2,1.859745303E-2
2.508386292E0,-2.969464986E-4,-1.340451650E-3,-1.616353542E-2,1.622174050E-2
2.518343292E0,5.720430054E-4,4.944661632E-4,-1.631986350E-2,1.633737049E-2
2.528300292E0,1.969533507E-3,-4.062689841E-4,-1.584220305E-2,1.596933043E-2
2.538256292E0,1.092554536E-3,6.515383720E-4,-1.731546223E-2,1.736212573E-2
2.548213292E0,1.507463981E-3,-3.396637738E-3,-2.004547603E-2,2.038702296E-2
2.558170292E0,2.116262680E-3,-1.672897488E-4,-1.754876412E-2,1.767669867E-2
2.568126292E0,-1.620642142E-4,3.044968471E-4,-2.104739472E-2,2.105022109E-2
2.578083292E0,-6.899028085E-4,1.017691568E-3,-1.750645414E-2,1.754957545E-2
2.588040292E0,-2.361292951E-3,6.644371897E-4,-1.455433294E-2,1.475959988E-2
2.597997292E0,-4.819001770E-4,-3.656276502E-3,-1.533996686E-2,1.577704564E-2
2.607953292E0,6.967232912E-4,-1.314441673E-3,-1.551695913E-2,1.558811088E-2
2.617910292E0,2.294353675E-3,-2.116319723E-3,-1.548553258E-2,1.579698032E-2
2.627867292E0,2.003799658E-3,-5.103740841E-5,-1.841806434E-2,1.852681602E-2
2.637824292E0,4.389262758E-4,-1.219366677E-3,-1.702976041E-2,1.707900029E-2
2.647780292E0,2.471325453E-3,3.513395786E-4,-1.660711505E-2,1.679366426E-2
2.657737292E0,1.178627135E-3,1.406837255E-4,-1.896774210E-2,1.900484660E-2
2.667694292E0,3.018206917E-4,-2.150928602E-3,-1.492691785E-2,1.508411304E-2
2.677651292E0,-1.447914401E-4,-1.806581393E-3,-1.384807006E-2,1.396616430E-2
2.687607292E0,1.297468320E-3,-2.723462880E-3,-1.407711208E-2,1.439672736E-2
2.697564292E0,-4.775286652E-4,1.812432893E-3,-1.573519409E-2,1.584642798E-2
2.707521292E0,-1.242089202E-3,1.606083475E-3,-1.760636270E-2,1.772304424E-2
2.717477292E0,-1.898292103E-3,-3.955485299E-4,-1.628063992E-2,1.639570699E-2
2.727434292E0,4.018798470E-3,-7.522925735E-4,-1.453343034E-2,1.509759195E-2
2.737391292E0,7.873186842E-4,-1.724080183E-3,-1.362609118E-2,1.375727750E-2
2.747348292E0,-1.306662802E-3,3.166865557E-3,-1.105851680E-2,1.157701166E-2
2.757304292E0,-1.050200313E-3,-1.123486087E-3,-1.323059201E-2,1.331967367E-2
2.767261292E0,1.112372847E-4,1.364834607E-4,-1.541536860E-2,1.541637411E-2
2.777218292E0,-1.605969039E-3,-4.840334877E-4,-1.580232568E-2,1.589109568E-2
2.787175292E0,-1.457293518E-3,-9.030327201E-4,-1.863430440E-2,1.871300278E-2
2.797131292E0,-6.668672431E-4,2.114861272E-3,-1.653919369E-2,1.668718904E-2
2.807088292E0,5.995804677E-4,-4.979148507E-4,-1.447299495E-2,1.449396422E-2
2.817045292E0,-1.252914430E-3,2.107455395E-3,-1.033391245E-2,1.062077724E-2
2.827001125E0,5.519214319E-4,-1.324534416E-3,-1.251366548E-2,1.259566721E-2
2.836958125E0,5.103761796E-4,-9.731389582E-6,-1.354164816E-2,1.355126612E-2
2.846915125E0,3.824705491E-4,8.822064847E-4,-1.640664600E-2,1.643479860E-2
2.856872125E0,-7.291327929E-4,2.454444766E-4,-1.842745207E-2,1.844350475E-2
2.866828125E0,-1.920537674E-3,1.339446753E-3,-1.795301586E-2,1.810506452E-2
2.876785125E0,-2.169135259E-4,9.639412165E-4,-1.408983395E-2,1.412443467E-2
2.886742125E0,-1.320617041E-3,1.894290559E-3,-1.153333671E-2,1.176223711E-2
2.896699125E0,-9.222079534E-4,2.873390913E-4,-1.272084005E-2,1.275746068E-2
2.906655125E0,-4.351284588E-4,2.502109855E-4,-1.478046924E-2,1.478898959E-2
2.916612125E0,2.603804693E-3,7.881689817E-4,-1.820902526E-2,1.841112735E-2
2.926569125E0,-2.273755614E-3,1.281649806E-3,-1.792913675E-2,1.811812726E-2
2.936525125E0,-7.490960415E-4,6.353007630E-4,-1.158601977E-2,1.162757954E-2
2.946482125E0,-7.881647907E-4,7.129535079E-4,-1.169863343E-2,1.174680938E-2
2.956439125E0,9.617984178E-4,2.804556862E-4,-9.885553271E-3,9.936190168E-3
2.966396125E0,7.150275633E-4,-2.031847835E-4,-1.268563047E-2,1.270739033E-2
2.976352125E0,-1.626157202E-3,9.547574446E-4,-1.412853226E-2,1.425381959E-2
2.986309125E0,-5.647807848E-4,-6.125569344E-4,-1.570372097E-2,1.572580859E-2
2.996266125E0,-7.096566260E-4,-4.016347229E-4,-1.886808686E-2,1.888569895E-2
3.006223125E0,1.189608243E-3,2.671983093E-4,-1.626653969E-2,1.631216958E-2
3.016179125E0,-5.574254319E-4,1.310092397E-3,-1.267580315E-2,1.275551061E-2
3.026136125E0,-2.533589723E-4,9.104982018E-5,-1.334245130E-2,1.334516720E-2
3.036093125E0,3.447869094E-4,-1.300984994E-3,-1.002521999E-2,1.011516069E-2
3.046049125E0,-9.569657268E-4,-1.027621329E-3,-1.685343497E-2,1.691183193E-2
3.056006125E0,-1.569492859E-3,-2.181302756E-3,-1.524941064E-2,1.548437647E-2
3.065963125E0,-9.477604181E-5,-1.030254178E-3,-1.812569611E-2,1.815519941E-2
3.075920125E0,9.553084383E-4,-4.124008119E-4,-1.575761475E-2,1.579193184E-2
3.085876125E0,2.391629387E-4,4.735980183E-4,-1.477642171E-2,1.478594375E-2
3.095833125E0,1.250631409E-3,-6.570480764E-6,-1.299343817E-2,1.305348833E-2
3.105790125E0,-1.534991665E-3,-6.409818307E-4,-1.134005189E-2,1.146140628E-2
3.115747125E0,1.150602475E-5,1.753466204E-3,-1.512094215E-2,1.522227537E-2
3.125703125E0,7.203245768E-4,-1.021463424E-3,-1.409536414E-2,1.415067296E-2
3.135660125E0,1.492641284E-3,1.450482756E-3,-1.665200107E-2,1.678156780E-2
3.145617125E0,-2.968201647E-3,5.503837019E-4,-1.575878635E-2,1.604532613E-2
3.155573125E0,-1.356633147E-4,-6.285980344E-4,-1.303303987E-2,1.304889529E-2
3.165530125E0,1.227525761E-3,1.628356054E-3,-1.203864254E-2,1.221013010E-2
3.175487125E0,1.165207825E-3,2.696113661E-4,-1.358008198E-2,1.363264561E-2
3.185444125E0,3.307454754E-4,-1.732092351E-4,-1.385989413E-2,1.386492190E-2
3.195400125E0,4.166762810E-3,-8.488530293E-4,-1.776941493E-2,1.827114038E-2
3.205357125E0,-3.261998063E-4,7.271245122E-4,-1.411218196E-2,1.413466647E-2
3.215314125E0,-1.763774082E-3,7.737297565E-4,-1.426265016E-2,1.439210709E-2
3.225271125E0,-4.878124455E-4,5.679270253E-4,-1.432062872E-2,1.434018511E-2
3.235227125E0,9.103471530E-4,1.861690544E-3,-1.223750599E-2,1.241173543E-2
3.245184125E0,-5.625549238E-5,1.022461802E-4,-1.204281487E-2,1.204338029E-2
3.255141125E0,7.221864653E-4,3.565782681E-4,-1.282125525E-2,1.284652823E-2
3.265097125E0,-1.642977586E-4,-3.550881520E-4,-1.455136389E-2,1.455662297E-2
3.275054125E0,-3.121031914E-4,-2.331146970E-4,-1.465842128E-2,1.466359660E-2
3.285011125E0,-2.659855410E-3,-1.548342407E-3,-1.339554228E-2,1.374455339E-2
3.294968125E0,9.031880763E-4,-2.138325945E-4,-1.464456506E-2,1.467394831E-2
3.304924125E0,-1.618451672E-3,2.254406922E-3,-8.891232312E-3,9.314276590E-3
3.314881125E0,1.474010875E-3,-1.268156804E-3,-1.060444489E-2,1.078124210E-2
3.324838125E0,-7.275290554E-4,-1.052860171E-4,-1.218224131E-2,1.220440031E-2
3.334794125E0,-7.483017398E-4,1.748274080E-3,-1.326960884E-2,1.340518320E-2
3.344751125E0,1.278368756E-3,2.044591121E-3,-1.341409236E-2,1.362910318E-2
3.354708125E0,1.251470763E-3,4.991581663E-4,-1.506791636E-2,1.512803495E-2
3.364665125E0,8.043483831E-5,1.191791147E-3,-1.155845076E-2,1.162000946E-2
3.374621125E0,1.572604058E-3,-4.758806899E-4,-1.573668420E-2,1.582222411E-2
3.384578125E0,4.046806134E-5,8.003655821E-4,-1.153758913E-2,1.156538740E-2
3.394535125E0,-3.403639421E-4,1.051768661E-3,-1.290565729E-2,1.295291685E-2
3.404492125E0,-7.481618086E-4,3.176449798E-3,-1.322580874E-2,1.362246660E-2
3.414448125E0,6.585198571E-4,-5.375947803E-4,-1.236826926E-2,1.239744898E-2
3.424405125E0,5.502207205E-4,1.948978752E-3,-1.322057471E-2,1.337478436E-2
3.434362125E0,-3.872119123E-4,-1.016557217E-4,-1.704114303E-2,1.704584473E-2
3.444318125E0,1.236204407E-3,9.131161496E-4,-1.472720504E-2,1.480717902E-2
3.454275125E0,8.471165202E-4,1.053730957E-3,-1.481828466E-2,1.487983587E-2
3.464232125E0,-7.646606537E-4,-5.592433736E-4,-1.211344823E-2,1.215043568E-2
3.474189125E0,-2.736997791E-3,2.452172339E-5,-1.233182475E-2,1.263193017E-2
3.484145125E0,1.106040552E-3,-2.267695963E-4,-1.226066239E-2,1.231253802E-2
3.494102125E0,2.903674264E-3,9.600538760E-5,-1.197783463E-2,1.232513950E-2
3.504059125E0,-1.779030426E-3,5.827136338E-4,-1.213667914E-2,1.228020704E-2
3.514015125E0,-7.574419724E-4,-9.896168485E-4,-1.374416053E-2,1.380054378E-2
3.523972125E0,7.985458942E-4,-3.850534558E-4,-1.350671425E-2,1.353577747E-2
3.533929125E0,3.980064066E-4,8.887369186E-4,-1.202066988E-2,1.206004837E-2
3.543886125E0,2.710230183E-4,-2.267872915E-4,-9.376179427E-3,9.382836810E-3
3.553842125E0,1.018572366E-3,-3.325147554E-4,-9.951420128E-3,1.000893692E-2
3.563799125E0,-1.227718196E-3,1.449298114E-3,-1.276492700E-2,1.290546854E-2
3.573756125E0,1.739034196E-4,3.800392151E-4,-1.380089670E-2,1.380722355E-2
3.583712125E0,-5.893361522E-4,1.290503889E-3,-1.215798967E-2,1.224048325E-2
3.593669125E0,4.759281874E-4,9.719897062E-4,-1.325148530E-2,1.329560583E-2
3.603626125E0,-2.863174304E-3,2.368146554E-3,-1.273737475E-2,1.326825538E-2
3.613583125E0,1.357669476E-3,-1.578392461E-3,-1.151178777E-2,1.169854037E-2
3.623539125E0,1.222741790E-3,5.587302148E-4,-9.510438889E-3,9.604984373E-3
3.633496125E0,-2.137672855E-4,-2.282345667E-4,-9.616166353E-3,9.621249545E-3
3.643453125E0,-1.652833889E-3,-1.001960598E-3,-1.014889777E-2,1.033130731E-2
3.653409125E0,1.905149315E-3,-7.079476491E-4,-1.238222420E-2,1.254791855E-2
3.663366125E0,3.028291743E-3,-1.231102273E-3,-1.347222924E-2,1.386315709E-2
3.673323125E0,8.285206277E-4,3.143297508E-4,-1.235157251E-2,1.238331915E-2
3.683280125E0,-1.048500417E-3,4.248274490E-4,-1.152478158E-2,1.158017366E-2
3.693236125E0,-1.927343430E-3,-9.754626080E-4,-9.156696498E-3,9.408042876E-3
3.703193125E0,-3.131353296E-4,-7.810192183E-4,-8.662043139E-3,8.702817710E-3
3.713150125E0,3.023211611E-4,-1.743485220E-3,-1.153719053E-2,1.167209938E-2
3.723106125E0,-1.706676092E-3,3.229184076E-4,-1.088671386E-2,1.102440739E-2
3.733063125E0,3.151994897E-3,-6.025303155E-4,-1.450887695E-2,1.485952977E-2
3.743020125E0,-5.458942614E-4,2.323553897E-3,-1.271460205E-2,1.293669234E-2
3.752977125E0,1.342020580E-3,-1.606428996E-4,-1.141444594E-2,1.149418990E-2
3.762933125E0,7.438891917E-4,-7.980782539E-4,-1.049294136E-2,1.054950797E-2
3.772890125E0,-1.149802702E-4,-1.067857258E-3,-8.300894871E-3,8.370089322E-3
3.782847125E0,5.547865294E-4,7.820241153E-4,-8.385451511E-3,8.440091637E-3
3.792803125E0,-1.052164705E-3,-1.748511568E-3,-9.673623368E-3,9.886522763E-3
3.802760125E0,-3.877233248E-4,1.012440771E-3,-1.038863510E-2,1.044505169E-2
3.812717125E0,4.495744361E-4,9.517204016E-4,-1.101234928E-2,1.106253703E-2
3.822674125E0,-2.890889999E-3,1.956288703E-3,-1.341736130E-2,1.386397832E-2
3.832629917E0,1.211976050E-3,-6.307056174E-4,-1.138137467E-2,1.146308706E-2
3.842586917E0,5.103516160E-4,1.792181283E-4,-1.098680310E-2,1.100011001E-2
3.852543917E0,-1.887280960E-4,8.870866150E-4,-9.624326602E-3,9.666964544E-3
3.862499917E0,-1.623105723E-3,-1.739607193E-3,-1.016590931E-2,1.044061384E-2
3.872456917E0,-1.803135267E-3,5.323253572E-5,-1.119575463E-2,1.134015222E-2
3.882413917E0,-1.532423776E-4,8.388804272E-4,-1.392694190E-2,1.395302527E-2
3.892370917E0,2.205519471E-3,4.705656320E-4,-1.188589633E-2,1.209794526E-2
3.902326917E0,7.034100709E-4,-9.954394773E-4,-1.057359576E-2,1.064361841E-2
3.912283917E0,1.833123039E-3,4.996592179E-4,-1.175657287E-2,1.190911437E-2
3.922240917E0,1.628513797E-3,-1.476409845E-3,-1.116418466E-2,1.137852637E-2
3.932196917E0,-2.141989768E-3,6.791520864E-4,-8.684247732E-3,8.970257878E-3
3.942153917E0,-1.010990352E-3,-1.016099937E-3,-1.493298821E-2,1.500162316E-2
3.952110917E0,1.839390956E-3,9.847329929E-4,-1.099337451E-2,1.118960863E-2
3.962067917E0,-1.253257506E-5,-1.305104233E-3,-1.151733845E-2,1.159105427E-2
3.972023917E0,-4.993584007E-4,4.621688277E-4,-1.117538661E-2,1.119608077E-2
3.981980917E0,-5.232163239E-4,3.155340441E-3,-9.121190757E-3,9.665715154E-3
3.991937917E0,-7.623683196E-4,-1.386946999E-3,-9.136635810E-3,9.272698710E-3
4.001893917E0,-1.426641364E-3,-5.503883585E-4,-8.224213496E-3,8.365161119E-3
4.011850917E0,2.745859092E-4,8.448418230E-4,-1.197660901E-2,1.200950950E-2
4.021807917E0,2.919048071E-3,-2.515660599E-4,-1.051714644E-2,1.091762320E-2
4.031764917E0,-1.931220759E-4,7.351357490E-4,-9.825788438E-3,9.855142776E-3
4.041720917E0,7.996459608E-4,2.826871350E-4,-1.070699841E-2,1.074053819E-2
4.051677917E0,-2.343683038E-3,2.544568852E-4,-7.944498211E-3,8.286896302E-3
4.061634917E0,4.233307205E-3,-3.125565127E-4,-1.001134887E-2,1.087408331E-2
4.071590917E0,3.464238252E-4,2.212919295E-3,-8.947148919E-3,9.223258375E-3
4.081547917E0,1.261596684E-3,-1.064099371E-3,-7.016299292E-3,7.207800596E-3
4.091504917E0,1.923204400E-5,1.216365956E-3,-1.131144725E-2,1.137667591E-2
4.101461917E0,-6.201770157E-4,-6.702868268E-4,-9.891012684E-3,9.933077865E-3
4.111417917E0,-1.823393162E-3,-1.667640172E-3,-1.603412442E-2,1.622340693E-2
4.121374917E0,-4.513066960E-4,1.155921258E-3,-1.349023171E-2,1.354718359E-2
4.131331917E0,-1.610221807E-4,3.338037059E-4,-8.731959388E-3,8.739820811E-3
4.141287917E0,1.825746149E-3,-1.598563045E-3,-8.389474824E-3,8.733386550E-3
4.151244917E0,-1.743688597E-3,2.420679666E-3,-5.743356422E-3,6.471961291E-3
4.161201917E0,2.933508949E-4,-7.204962894E-4,-8.048124611E-3,8.085634138E-3
4.171158917E0,-7.522061933E-4,2.467641607E-4,-1.288176328E-2,1.290606570E-2
4.181114917E0,-1.221053419E-3,-1.196376979E-4,-1.193363406E-2,1.199653727E-2
4.191071917E0,-3.203244414E-3,-1.610741019E-3,-1.181725226E-2,1.234919886E-2
4.201028917E0,-7.723569870E-4,5.625607446E-4,-1.035038382E-2,1.039439537E-2
4.210984917E0,6.609563716E-4,-3.561875783E-3,-8.731983602E-3,9.453642687E-3
4.220941917E0,-7.891990244E-4,5.413210019E-4,-9.003600106E-3,9.054318218E-3
4.230898917E0,9.005766478E-4,1.397260465E-3,-1.257170551E-2,1.268113380E-2
4.240854917E0,-1.782070962E-3,1.720897853E-3,-1.225485280E-2,1.250274704E-2
4.250811917E0,9.071890963E-4,2.132622525E-3,-1.080476120E-2,1.105051743E-2
4.260768917E0,-7.647596067E-4,-2.895565704E-4,-6.930479780E-3,6.978556458E-3
4.270725917E0,-1.193795004E-3,-9.489543736E-4,-7.053252310E-3,7.216233717E-3
4.280681917E0,1.000722405E-4,1.491625793E-3,-8.760675788E-3,8.887316930E-3
4.290638917E0,5.544074811E-4,2.141171135E-3,-1.363505796E-2,1.381328299E-2
4.300595917E0,1.682480797E-5,1.060962677E-3,-1.418428682E-2,1.422392061E-2
4.310551917E0,-1.962280367E-4,-1.608589664E-3,-1.339759119E-2,1.349524049E-2
4.320508917E0,-1.321273390E-3,2.386048436E-3,-9.906468913E-3,1.027507260E-2
4.330465917E0,7.005985244E-4,-1.288314350E-3,-8.339462802E-3,8.467421802E-3
4.340422917E0,2.462011762E-4,-1.055456698E-3,-9.111862630E-3,9.176090913E-3
4.350378917E0,-9.247907437E-4,2.068963833E-3,-7.772024721E-3,8.095691294E-3
4.360335917E0,5.869523156E-4,-1.826239750E-4,-9.832387790E-3,9.851584349E-3
4.370292917E0,-6.194596644E-4,-2.135159448E-4,-1.110564731E-2,1.112495939E-2
4.380248917E0,1.422606758E-3,-3.100764006E-4,-1.476452500E-2,1.483614356E-2
4.390205917E0,3.200580832E-4,2.267065458E-3,-1.416318491E-2,1.434704952E-2
4.400162917E0,1.648868201E-4,1.601157710E-4,-1.121712476E-2,1.121947916E-2
4.410118917E0,2.244815696E-3,-7.304446772E-4,-6.654065102E-3,7.060405748E-3
4.420075917E0,-1.481071231E-3,-2.225498669E-3,-5.115952343E-3,5.772294578E-3
4.430032917E0,-7.199274842E-5,-1.905774698E-4,-6.722902879E-3,6.725988838E-3
4.439989917E0,-7.887281245E-4,-5.777580664E-4,-1.084895059E-2,1.089291630E-2
4.449945917E0,-1.371960272E-3,1.642252319E-3,-1.015945897E-2,1.038238287E-2
4.459902917E0,-7.799493615E-4,1.684948802E-4,-1.275752299E-2,1.278245298E-2
4.469859917E0,-1.899275929E-3,8.910102770E-4,-6.895108148E-3,7.207195345E-3
4.479815917E0,1.415023813E-3,-1.534475945E-3,-7.997725159E-3,8.265622574E-3
4.489772917E0,-1.762149623E-4,-2.457261086E-3,-5.594486371E-3,6.112893055E-3
4.499729917E0,-8.001194801E-4,1.348542050E-3,-8.260071278E-3,8.407587903E-3
4.509686917E0,1.233736519E-3,-1.081858762E-3,-1.539707556E-2,1.548426492E-2
4.519642917E0,-2.397833625E-3,3.096759319E-4,-1.153009199E-2,1.178085423E-2
4.529599917E0,-3.485311754E-4,-5.657048896E-4,-1.142808981E-2,1.144738978E-2
4.539556917E0,-1.839805976E-3,7.404368371E-4,-9.545372799E-3,9.749219180E-3
4.549512917E0,-1.318891882E-3,1.751905307E-3,-7.979432121E-3,8.275263438E-3
4.559469917E0,-1.127824420E-3,-1.736173406E-3,-1.193683594E-2,1.211504595E-2
4.569426917E0,1.524151303E-3,-1.819524914E-4,-1.037888601E-2,1.049177863E-2
4.579382917E0,2.149324398E-3,1.666600816E-3,-8.790500462E-3,9.201633117E-3
4.589339917E0,-3.559110919E-4,2.075661905E-3,-1.008719206E-2,1.030468285E-2
4.599296917E0,-1.077371067E-3,-1.769420691E-3,-6.835332140E-3,7.142362597E-3
4.609253917E0,5.034812493E-4,-6.077494472E-4,-5.540236831E-3,5.596166268E-3
4.619209917E0,2.053043107E-3,-6.067436188E-4,-7.832417265E-3,8.119721918E-3
4.629166917E0,2.115893643E-3,2.695842646E-3,-1.125191711E-2,1.176223670E-2
4.639123917E0,1.895721303E-3,1.119412482E-4,-1.348782703E-2,1.362085784E-2
4.649079917E0,-4.198973766E-4,-8.891411126E-4,-1.004143059E-2,1.008946054E-2
4.659036917E0,5.763876252E-4,3.121001646E-4,-8.547799662E-3,8.572893809E-3
4.668993917E0,2.797114430E-4,1.011446118E-3,-5.678512156E-3,5.774665536E-3
4.678950917E0,2.962328726E-4,-1.739975996E-3,-1.047334075E-2,1.062102334E-2
4.688906917E0,9.207440889E-4,-1.471396536E-4,-1.169972494E-2,1.173682169E-2
4.698863917E0,1.137118787E-3,1.079216599E-5,-7.875259966E-3,7.956938804E-3
4.708820917E0,6.308518350E-4,1.500298269E-3,-1.058609039E-2,1.071047051E-2
4.718776917E0,1.223388594E-3,-4.276409745E-4,-1.054672338E-2,1.062604962E-2
4.728733917E0,-7.023431826E-4,4.663821310E-4,-8.699821308E-3,8.740577157E-3
4.738690917E0,-9.049959481E-4,-7.306765765E-4,-6.605431437E-3,6.707058252E-3
4.748646917E0,-1.607804094E-3,7.444480434E-4,-7.350582629E-3,7.561104541E-3
4.758603917E0,1.464326517E-3,-2.326350659E-4,-9.340403602E-3,9.457352201E-3
4.768560917E0,1.717593172E-3,2.249697223E-3,-8.868491277E-3,9.309210570E-3
4.778517917E0,-2.416538540E-3,1.755282283E-4,-1.065347902E-2,1.092552443E-2
4.788473917E0,1.648776699E-3,-7.738890126E-4,-8.733605966E-3,8.921504468E-3
4.798430917E0,-1.787147950E-3,-6.890790537E-4,-1.053976268E-2,1.071239119E-2
4.808387917E0,-9.884659667E-4,-9.127845988E-4,-7.903233171E-3,8.016940516E-3
4.818343917E0,2.277571708E-3,2.077132463E-3,-9.457813576E-3,9.947464491E-3
4.828300917E0,-1.627953956E-3,-1.278184354E-3,-1.141763292E-2,1.160372056E-2
4.838257792E0,1.875948044E-3,-6.390148774E-4,-8.443133906E-3,8.672602333E-3
4.848213792E0,1.055960776E-3,-1.335431822E-3,-1.160830073E-2,1.173247958E-2
4.858170792E0,1.070022816E-3,-1.294097863E-3,-9.648317471E-3,9.793348157E-3
4.868127792E0,2.343812725E-3,1.802286133E-4,-8.892780170E-3,9.198232417E-3
4.878084792E0,1.531658811E-3,-1.013531350E-3,-9.288359433E-3,9.468201808E-3
4.888040792E0,-3.409037367E-3,-1.981857233E-3,-5.232898518E-3,6.552291260E-3
4.897997792E0,-3.994198050E-4,-9.809136391E-4,-7.114803419E-3,7.193202029E-3
4.907954792E0,-3.964903299E-4,-1.712484285E-3,-7.567806169E-3,7.769266196E-3
4.917910792E0,1.366594806E-4,2.643512562E-4,-8.859172463E-3,8.864169117E-3
4.927867792E0,1.267970307E-3,-3.392249346E-5,-8.224274963E-3,8.321514171E-3
4.937824792E0,1.359260641E-3,-5.721645430E-4,-1.054485142E-2,1.064748108E-2
4.947780792E0,2.825330943E-3,-5.519241095E-4,-8.980244398E-3,9.430371393E-3
4.957737792E0,-1.568290056E-3,9.186733514E-4,-7.915452123E-3,8.121445483E-3
4.967694792E0,4.940619692E-4,-1.074170694E-3,-7.759924978E-3,7.849482504E-3
4.977651792E0,1.985903829E-3,2.349048853E-3,-6.019528955E-3,6.759924066E-3
4.987607792E0,6.117125740E-4,3.314977512E-3,-7.788933814E-3,8.487093621E-3
4.997564792E0,-1.767031383E-3,-8.608130738E-4,-1.029951312E-2,1.048538838E-2
5.007521792E0,2.878637752E-4,1.452675089E-3,-9.338909760E-3,9.455599715E-3
5.017477792E0,6.418571575E-4,6.228685379E-6,-9.194161743E-3,9.216541084E-3
5.027434792E0,1.783287968E-3,3.473795950E-4,-1.011241972E-2,1.027432826E-2
5.037391792E0,1.491525676E-3,6.643226370E-4,-7.044872269E-3,7.231611072E-3
5.047347792E0,1.660636393E-3,5.956133828E-4,-7.416648790E-3,7.623591530E-3
5.057304792E0,4.558331566E-4,-3.369022161E-4,-8.143315092E-3,8.163018293E-3
5.067261792E0,2.220076276E-4,-6.847111508E-4,-7.007742301E-3,7.044612757E-3
5.077218792E0,-1.906296704E-3,6.106831133E-4,-8.577039465E-3,8.807525588E-3
5.087174792E0,6.495389971E-4,-4.141004756E-4,-9.218325838E-3,9.250454658E-3
5.097131792E0,8.457862423E-4,1.878854819E-3,-6.514713168E-3,6.832784020E-3
5.107088792E0,8.085020236E-4,-7.789796218E-4,-1.192279533E-2,1.197553895E-2
5.117044792E0,3.270539921E-3,1.208249480E-3,-1.110685430E-2,1.164124180E-2
5.127001792E0,1.319508068E-3,3.344668075E-4,-7.416510954E-3,7.540398154E-3
5.136958792E0,2.225927776E-3,-8.866293356E-4,-9.675189853E-3,9.967455278E-3
5.146914792E0,-5.312429275E-4,4.500104114E-4,-1.051621512E-2,1.053923663E-2
5.156871792E0,1.097472617E-3,2.386990935E-3,-1.031788252E-2,1.064710626E-2
5.166828792E0,-4.982935498E-4,-6.708502769E-4,-8.339153603E-3,8.380919959E-3
5.176784792E0,5.680664908E-4,1.895896159E-3,-8.244538680E-3,8.478769948E-3
5.186741792E0,-1.125704031E-3,4.870835692E-4,-5.828516558E-3,5.956178744E-3
5.196698792E0,7.182883564E-4,1.139463857E-4,-8.188635111E-3,8.220867772E-3
5.206655792E0,8.317389875E-4,-9.398665279E-4,-8.611012250E-3,8.701992347E-3
5.216611792E0,-1.672376762E-3,-4.937183112E-4,-8.360933512E-3,8.540831986E-3
5.226568792E0,1.746589318E-3,2.007256262E-3,-8.795563132E-3,9.189210126E-3
5.236525792E0,-4.757529823E-4,-3.189196810E-3,-1.067461818E-2,1.115099953E-2
5.246481792E0,1.453440869E-3,6.084712222E-4,-8.337963372E-3,8.485538332E-3
5.256438792E0,-6.184047088E-4,-1.284413971E-3,-6.728233770E-3,6.877592114E-3
5.266395792E0,-1.932940912E-3,-2.963813022E-4,-4.879733548E-3,5.256986013E-3
5.276351792E0,1.779634622E-3,4.086308181E-4,-7.979135960E-3,8.185394872E-3
5.286308792E0,9.010577924E-4,-9.610326961E-4,-8.105102926E-3,8.211466522E-3
5.296265792E0,3.175119869E-3,1.443066634E-3,-9.449861944E-3,1.007292005E-2
5.306222792E0,1.335408306E-3,-1.222757623E-3,-5.664445460E-3,5.946796946E-3
5.316178792E0,-2.484967466E-3,1.944018528E-3,-8.435618132E-3,9.006326922E-3
5.326135792E0,-4.218164831E-4,2.406612039E-4,-6.626799703E-3,6.644570811E-3
5.336092792E0,-1.772637479E-3,9.489627555E-4,-1.032311842E-2,1.051710739E-2
5.346048792E0,1.019686926E-3,1.644580625E-3,-1.116041839E-2,1.132693010E-2
5.356005792E0,4.927647533E-4,1.667759381E-3,-1.192505844E-2,1.205119319E-2
5.365962792E0,1.481063780E-3,-1.342411153E-3,-1.231041737E-2,1.247164758E-2
5.375918792E0,-1.812117291E-3,2.177421935E-3,-7.909107953E-3,8.401126352E-3
5.385875792E0,1.074216678E-3,2.538207918E-4,-7.010288537E-3,7.096654975E-3
5.395832792E0,-2.973708091E-3,2.980353311E-4,-8.673861623E-3,9.174292361E-3
5.405788792E0,-1.246584579E-4,-5.475180224E-4,-9.094376117E-3,9.111695379E-3
5.415745792E0,-1.273759175E-3,3.459593281E-4,-7.945898920E-3,8.054778702E-3
5.425702792E0,1.433088910E-4,5.374401808E-4,-7.532041520E-3,7.552551148E-3
5.435659792E0,8.678288432E-4,3.214664757E-4,-5.138238892E-3,5.220916252E-3
5.445615792E0,-8.351169527E-6,5.121482536E-4,-8.194750175E-3,8.210742719E-3
5.455572792E0,-7.675107336E-4,-5.151983351E-5,-5.811506882E-3,5.862195771E-3
5.465529792E0,5.291823763E-4,2.151979133E-3,-5.204306915E-3,5.656488190E-3
5.475485792E0,1.122067333E-3,-6.196452305E-4,-9.402768686E-3,9.489734152E-3
5.485442792E0,2.576052211E-4,2.117285505E-3,-9.856035933E-3,1.008418081E-2
5.495399792E0,3.048481885E-4,-3.117891029E-4,-9.861202911E-3,9.870839260E-3
5.505355792E0,2.113667317E-3,-6.614616141E-4,-4.549261183E-3,5.059733027E-3
5.515312792E0,8.578773122E-4,1.583099365E-3,-4.371216521E-3,4.727545976E-3
5.525269792E0,-2.276663203E-3,-4.630079493E-4,-6.095346063E-3,6.523098599E-3
5.535225792E0,-1.562143560E-3,1.221917570E-3,-7.153181359E-3,7.423030285E-3
5.545182792E0,1.834452152E-3,1.326313242E-3,-9.205946699E-3,9.480178065E-3
5.555139792E0,2.088868991E-3,3.113225102E-4,-1.258740947E-2,1.276335271E-2
5.565096792E0,3.113653511E-3,-4.620589316E-4,-1.094077900E-2,1.138459405E-2
5.575052792E0,-3.109072102E-3,-1.958217472E-4,-5.284706131E-3,6.134557391E-3
5.585009792E0,1.321895281E-3,1.180234365E-3,-3.456978127E-3,3.884721105E-3
5.594966792E0,1.485554152E-3,4.299171269E-4,-3.151802346E-3,3.510777393E-3
5.604922792E0,-8.982412983E-4,3.468263894E-4,-5.697784945E-3,5.778570693E-3
5.614879792E0,-8.275846485E-4,7.581934333E-4,-8.701056242E-3,8.773148429E-3
5.624836792E0,-2.707177773E-4,1.153140329E-3,-1.226942614E-2,1.232646902E-2
5.634792792E0,-1.075630309E-3,1.756986603E-4,-1.395917498E-2,1.400165764E-2
5.644749792E0,1.738265622E-3,-3.726463765E-4,-1.056178100E-2,1.071035250E-2
5.654706792E0,6.940893945E-4,-1.540050842E-3,-6.544083357E-3,6.758590361E-3
5.664662792E0,2.254968043E-3,-3.815758973E-4,-1.014560461E-3,2.501962024E-3
5.674619792E0,-6.844413001E-4,-1.504247077E-3,-3.457173705E-3,3.831875414E-3
5.684576792E0,-1.094648615E-4,-5.793320015E-4,-7.717164233E-3,7.739653218E-3
5.694532792E0,-8.599297144E-4,-5.091028288E-4,-1.267365925E-2,1.271299743E-2
5.704489792E0,-1.506811474E-3,-2.028392628E-4,-1.295995153E-2,1.304883015E-2
5.714446792E0,-3.638967173E-4,1.874376088E-3,-7.836066186E-3,8.065335692E-3
5.724403792E0,2.971850336E-5,-2.084679902E-3,-6.203282624E-3,6.544271449E-3
5.734359792E0,-1.331568230E-3,3.236532211E-5,-3.410035744E-3,3.660937755E-3
5.744316792E0,-6.007966585E-4,-5.247676745E-4,-4.936294630E-3,5.000334230E-3
5.754273792E0,1.914483728E-4,4.033269361E-4,-9.199086577E-3,9.209914166E-3
5.764229792E0,5.656225840E-4,1.036360860E-3,-1.312645152E-2,1.317944241E-2
5.774186792E0,5.530100316E-5,7.521240041E-4,-1.504095085E-2,1.505984566E-2
5.784143792E0,9.690315928E-4,2.065062523E-3,-9.702647105E-3,9.967189488E-3
5.794099792E0,1.159541542E-3,1.423992217E-4,-6.514333189E-3,6.618258911E-3
5.804056792E0,-9.795094375E-4,-9.143436328E-4,-3.526799381E-3,3.772767802E-3
5.814013792E0,-3.183210501E-4,1.967278309E-3,-2.692870796E-3,3.350084381E-3
5.823969792E0,1.254808158E-3,-1.422126777E-3,-8.686847985E-3,8.891474343E-3
5.833927750E0,-1.906247460E-3,9.461957961E-5,-1.252537593E-2,1.266995558E-2
5.843884750E0,-7.805292262E-4,2.109034918E-3,-1.396587864E-2,1.414577747E-2
5.853840750E0,3.149734112E-4,-1.373635605E-4,-1.193602756E-2,1.194097278E-2
5.863797750E0,1.787701505E-3,-1.521941274E-3,-7.819578052E-3,8.164434017E-3
5.873754750E0,-1.036918489E-3,1.230848022E-3,-4.138793796E-3,4.440698244E-3
5.883711750E0,7.828195812E-4,3.884900361E-4,-3.221867606E-3,3.338287267E-3
5.893667750E0,-6.135327276E-4,6.733788177E-4,-7.838958874E-3,7.891713228E-3
5.903624750E0,6.296307547E-4,1.223701984E-4,-1.026882790E-2,1.028884035E-2
5.913581750E0,1.332997577E-3,2.293453552E-3,-1.276611164E-2,1.303880432E-2
5.923537750E0,-5.424002884E-4,1.039370894E-3,-1.128326356E-2,1.134400840E-2
5.933494750E0,9.803085122E-4,-3.454107791E-4,-7.095441222E-3,7.171164447E-3
5.943451750E0,8.391609299E-4,2.703117207E-4,-3.860501572E-3,3.959890388E-3
5.953407750E0,-3.849365748E-5,-2.950048074E-4,-5.629394203E-3,5.637250101E-3
5.963364750E0,3.189523937E-3,-2.377063967E-3,-6.129536778E-3,7.307168888E-3
5.973321750E0,2.217721194E-3,1.893683337E-3,-1.220812462E-2,1.255159873E-2
5.983277750E0,2.942367457E-3,-4.967702553E-4,-1.317751594E-2,1.351115218E-2
5.993234750E0,-6.246389821E-4,2.366754226E-3,-9.938664734E-3,1.023566100E-2
6.003191750E0,2.451494802E-4,4.087984562E-4,-6.897598505E-3,6.914049434E-3
6.013148750E0,-8.598848945E-4,-8.505685255E-4,-3.291960806E-3,3.507117733E-3
6.023104750E0,-7.397764130E-4,6.003221497E-4,-3.743898124E-3,3.863214851E-3
6.033061750E0,1.074331813E-3,1.074216329E-3,-4.690408707E-3,4.930320821E-3
6.043018750E0,-5.051889457E-4,-1.159496605E-4,-1.090862229E-2,1.092092947E-2
6.052974750E0,1.053852495E-3,-1.575343311E-3,-1.548943482E-2,1.560496404E-2
6.062931750E0,1.110577839E-3,-5.020899698E-4,-1.363294758E-2,1.368732031E-2
6.072888750E0,-2.995930379E-3,-1.442223787E-3,-9.828628972E-3,1.037581591E-2
6.082844750E0,-7.996212225E-4,4.044128582E-4,-8.020343259E-3,8.070244721E-3
6.092801750E0,-1.249145251E-3,-4.415232688E-4,-3.445602953E-3,3.691542546E-3
6.102758750E0,1.604658319E-4,3.385171294E-5,-2.284465358E-3,2.290344339E-3
6.112714750E0,2.255642088E-3,-6.546257064E-4,-6.801161915E-3,7.195294257E-3
6.122671750E0,-3.270683810E-3,1.520910300E-3,-1.110989228E-2,1.168076398E-2
6.132628750E0,-7.874937728E-5,6.084823981E-4,-1.434600353E-2,1.435911800E-2
6.142584750E0,-5.158514250E-5,-8.200369775E-4,-1.070173457E-2,1.073323085E-2
6.152541750E0,4.396111472E-4,2.739818767E-3,-6.636396050E-3,7.193164629E-3
6.162498750E0,5.458712112E-4,1.708110794E-3,-2.171605825E-3,2.816290064E-3
6.172454750E0,-7.409421960E-4,-4.352491349E-3,-4.857692868E-3,6.564324510E-3
6.182411750E0,3.693295876E-4,-1.490925439E-3,-9.515829384E-3,9.638997452E-3
6.192368750E0,1.078969217E-3,1.936387271E-4,-1.004553214E-2,1.010516632E-2
6.202325750E0,9.649859276E-4,1.299893484E-4,-1.251161844E-2,1.254944983E-2
6.212281750E0,2.133860253E-3,1.125037670E-3,-1.001727954E-2,1.030363813E-2
6.222238750E0,-7.751104422E-4,7.063886151E-4,-5.950100720E-3,6.041810958E-3
6.232195750E0,-1.425670926E-3,1.034743153E-3,-1.748895273E-3,2.482310547E-3
6.242151750E0,-1.025664154E-3,2.831993625E-4,-3.942275420E-3,4.083347196E-3
6.252108750E0,-1.548557309E-3,-1.360158436E-3,-9.089123458E-3,9.319883365E-3
6.262065750E0,1.096494379E-3,2.012532204E-4,-1.402289420E-2,1.406713776E-2
6.272021750E0,1.217382960E-4,1.285520382E-3,-1.229024306E-2,1.235789049E-2
6.281978750E0,-1.153649529E-3,6.397031248E-4,-7.567390800E-3,7.681505766E-3
6.291935750E0,-1.669597463E-3,1.147716306E-3,-3.313554451E-3,3.883870686E-3
6.301891750E0,3.429292701E-5,-2.291490324E-3,-1.137485728E-3,2.558510834E-3
6.311848750E0,2.629786031E-4,5.966536701E-4,-5.713229999E-3,5.750317415E-3
6.321805750E0,-3.399610287E-4,-3.317249939E-4,-8.162273094E-3,8.176082010E-3
6.331761750E0,-4.356030840E-4,5.219411105E-5,-1.170137897E-2,1.170960051E-2
6.341718750E0,-1.222833293E-3,-1.397631131E-3,-1.319461316E-2,1.332465799E-2
6.351675750E0,-5.847443826E-4,-1.033840701E-3,-8.938085288E-3,9.016657984E-3
6.361631750E0,-1.632964704E-3,-1.957435161E-4,-3.438655287E-3,3.811723945E-3
6.371588750E0,-5.670222454E-4,-1.140446402E-3,-2.943169326E-3,3.206926551E-3
6.381545750E0,-3.955146531E-4,7.717031986E-4,-5.477167666E-3,5.545387571E-3
6.391501750E0,-7.813652046E-4,1.300623640E-3,-7.922977209E-3,8.066952417E-3
6.401458750E0,5.198552972E-4,-1.551088877E-3,-1.076723263E-2,1.089079541E-2
6.411415750E0,1.716523315E-3,2.226924524E-3,-1.164233312E-2,1.197704327E-2
6.421372750E0,-1.979677938E-3,1.797527075E-4,-1.007559523E-2,1.026981280E-2
6.431328750E0,2.085394925E-3,-1.196436584E-3,-5.984127522E-3,6.449039827E-3
6.441285750E0,-8.499411633E-4,2.841448411E-3,-1.873537898E-3,3.508044086E-3
6.451242750E0,2.038854174E-3,7.102163509E-4,-5.282644182E-3,5.706808492E-3
6.461198750E0,-1.708479598E-3,1.133392565E-3,-1.036928222E-2,1.057002814E-2
6.471155750E0,6.134560099E-4,2.656830475E-4,-1.145302504E-2,1.147251927E-2
6.481112750E0,-8.869690355E-4,4.070969298E-4,-1.400353387E-2,1.403749988E-2
6.491068750E0,2.316548489E-6,8.511673659E-4,-1.077004708E-2,1.080362927E-2
6.501025750E0,5.664513446E-5,6.253318861E-4,-7.662137970E-3,7.687821988E-3
6.510982750E0,1.668138197E-3,1.339354552E-3,-3.883913159E-4,2.174259293E-3
6.520938750E0,-4.085947294E-4,-3.669327125E-4,-1.016363502E-3,1.155241981E-3
6.530895750E0,5.574474344E-4,-1.926841214E-4,-4.678964615E-3,4.715992438E-3
6.540852750E0,7.318844437E-4,1.734113321E-3,-9.382907301E-3,9.569835593E-3
6.550808750E0,-1.795940567E-3,8.341502398E-4,-1.291618869E-2,1.306710141E-2
6.560765750E0,-1.567175146E-3,3.497209400E-4,-1.166956499E-2,1.177951993E-2
6.570722750E0,2.245222218E-3,-4.713488743E-4,-9.886737913E-3,1.014942260E-2
6.580678750E0,1.146668219E-3,2.639554441E-5,-5.060024559E-3,5.188390239E-3
6.590635750E0,-1.070109429E-3,-1.282431185E-5,-3.097919747E-3,3.277560894E-3
6.600592750E0,-3.707438009E-3,1.170684583E-3,-4.760265350E-3,6.146195993E-3
6.610548750E0,4.391453695E-5,-7.367413491E-4,-6.228689104E-3,6.272263089E-3
6.620505750E0,-1.857848838E-3,-3.348700702E-4,-1.110253856E-2,1.126188717E-2
6.630462750E0,-6.734116469E-4,-1.211516559E-3,-1.338462532E-2,1.345620491E-2
6.640418750E0,2.153267618E-3,1.224210486E-3,-9.446874261E-3,9.766201209E-3
6.650375750E0,7.029250264E-5,9.069396183E-4,-7.778152823E-3,7.831164783E-3
6.660332750E0,2.768873703E-3,3.806985915E-4,-2.875272185E-3,4.009835799E-3
6.670288750E0,-6.427672924E-4,1.021914184E-3,-1.958964393E-3,2.301086674E-3
6.680245750E0,-9.407749167E-4,1.350548118E-3,-5.767285824E-3,5.997551454E-3
6.690202750E0,-1.256915275E-3,1.696366817E-4,-1.094307937E-2,1.101633327E-2
6.700159750E0,-2.764797304E-3,2.126527019E-3,-1.207519136E-2,1.256886899E-2
6.710115750E0,5.236308789E-4,8.587054908E-4,-1.118329726E-2,1.122843275E-2
6.720072750E0,-8.369780844E-4,8.818749338E-4,-6.487878039E-3,6.600817917E-3
6.730029750E0,7.622618577E-4,-2.699289471E-4,-2.233672887E-3,2.375541905E-3
6.739985750E0,-9.248506976E-4,5.282200873E-4,-2.165496349E-3,2.413242572E-3
6.749942750E0,2.115651965E-3,1.142485067E-3,-3.066442907E-3,3.896707260E-3
6.759899750E0,-2.916923724E-3,5.105175078E-4,-3.902142867E-3,4.898549897E-3
6.769855750E0,-8.912489284E-5,2.254461870E-4,-1.499152184E-2,1.499348179E-2
6.779812750E0,-1.278492622E-3,1.121865585E-3,-1.405888423E-2,1.416140359E-2
6.789769750E0,-8.802927332E-4,2.268725075E-3,-1.097793132E-2,1.124442105E-2
6.799725750E0,1.509095309E-3,-1.584868878E-3,-5.918990821E-3,6.310596671E-3
6.809682750E0,1.029831474E-3,1.005623490E-4,-3.043591976E-3,3.214672264E-3
6.819639750E0,9.019997669E-4,-3.689536825E-4,-4.702474922E-3,4.802395318E-3
6.829595750E0,8.476448711E-4,2.332860604E-4,-1.116842777E-2,1.120297742E-2
6.839552000E0,1.439132961E-3,1.836940646E-5,-1.411974058E-2,1.419290369E-2
6.849509000E0,-1.604608959E-3,-6.962567568E-4,-1.104817167E-2,1.118577850E-2
6.859465000E0,-9.223071393E-4,2.967188135E-3,-7.176470011E-3,7.820267113E-3
6.869422000E0,3.036966082E-4,5.061198026E-4,-7.645836100E-3,7.668585173E-3
6.879379000E0,-1.790879527E-3,9.205080569E-4,-1.238802448E-3,2.364152294E-3
6.889335000E0,6.304938579E-4,-1.610034145E-3,-2.862451598E-3,3.344153347E-3
6.899292000E0,3.215091769E-3,-1.232132316E-3,-8.233781904E-3,8.924692127E-3
6.909249000E0,-1.829120098E-3,9.985547513E-4,-9.115634486E-3,9.350806597E-3
6.919205000E0,7.442924543E-4,-1.587640494E-3,-1.410266943E-2,1.421125817E-2
6.929162000E0,-1.989091747E-3,1.449812204E-3,-1.234415546E-2,1.258716074E-2
6.939119000E0,-1.896413625E-3,2.776864916E-3,-6.346717477E-3,7.182491638E-3
6.949075000E0,1.719426364E-3,1.070164144E-4,-2.616960555E-3,3.133107416E-3
6.959032000E0,-2.835369669E-4,-1.546007581E-3,-3.842813894E-3,4.151837097E-3
6.968989000E0,1.503957901E-3,-9.262748063E-4,-9.504513815E-3,9.667246622E-3
6.978945000E0,-5.373549648E-4,1.156051643E-3,-1.219057478E-2,1.225705182E-2
6.988902000E0,-5.261637270E-4,-1.439264044E-3,-1.113085635E-2,1.123584854E-2
6.998859000E0,4.855711013E-4,7.703602314E-4,-8.491398767E-3,8.540087072E-3
7.008815000E0,-1.948670950E-3,-2.963682637E-4,-5.465490744E-3,5.810055222E-3
7.018772000E0,-8.471875917E-4,7.196273655E-4,-2.291269600E-3,2.546665809E-3
7.028729000E0,1.475319150E-3,-3.470657393E-4,-3.895824775E-3,4.180247828E-3
7.038686000E0,9.565353394E-4,6.715934724E-4,-1.035638712E-2,1.042212799E-2
7.048642000E0,1.786266803E-3,1.840343699E-3,-1.152683981E-2,1.180871077E-2
7.058599000E0,2.557480475E-4,1.878427342E-3,-1.213350706E-2,1.228071211E-2
7.068556000E0,7.438564207E-4,9.257989004E-4,-1.175697893E-2,1.181680919E-2
7.078512000E0,2.224041382E-3,-1.462523825E-3,-6.036508828E-3,6.597330888E-3
7.088469000E0,1.343055395E-3,-7.514040917E-4,-3.966405988E-3,4.254501424E-3
7.098425000E0,2.852478065E-4,1.178322360E-3,-6.028225645E-3,6.148927901E-3
7.108382000E0,4.245203454E-4,-6.500966847E-4,-9.612809867E-3,9.644115136E-3
7.118339000E0,-9.717750363E-4,7.435353473E-4,-1.447148249E-2,1.452311939E-2
7.128296000E0,3.420830471E-4,-1.867252402E-3,-1.180303656E-2,1.195471975E-2
7.138252000E0,1.185107976E-5,-1.615583897E-3,-1.019209065E-2,1.031934899E-2
7.148209000E0,-1.159547828E-3,4.007723182E-4,-7.924180478E-3,8.018591264E-3
7.158166000E0,1.916403184E-3,-1.536144875E-3,-5.590718240E-3,6.106428799E-3
7.168122000E0,-2.301963978E-4,-4.419619218E-4,-6.881326437E-3,6.899345929E-3
7.178079000E0,4.808675731E-4,2.112541348E-3,-7.396116853E-3,7.706919558E-3
7.188036000E0,3.018064424E-3,1.391298138E-3,-1.081446372E-2,1.131357808E-2
7.197992000E0,-1.477351296E-3,-1.280118711E-3,-1.172366925E-2,1.188552445E-2
7.207949000E0,5.880244425E-4,-5.721505731E-4,-9.405365214E-3,9.441081709E-3
7.217906000E0,-2.294314560E-3,1.720711589E-5,-6.438335404E-3,6.834935124E-3
7.227862000E0,9.300892707E-4,2.150394954E-3,-3.859007731E-3,4.514554815E-3
7.237819000E0,1.028359868E-3,-1.988956705E-3,-3.844093531E-3,4.448654613E-3
7.247776000E0,1.004354563E-4,-4.403479397E-5,-5.086299032E-3,5.087481124E-3
7.257732000E0,1.910852385E-3,1.615913585E-3,-1.064671203E-2,1.093686476E-2
7.267689000E0,-2.610464580E-3,1.800574362E-3,-1.357027516E-2,1.393588753E-2
7.277646000E0,-2.924492583E-4,-1.712301746E-4,-1.271060854E-2,1.271512548E-2
7.287602000E0,-3.816352692E-4,-3.476347774E-5,-1.070337743E-2,1.071023540E-2
7.297559000E0,-1.082845498E-3,-1.506116241E-4,-6.885468960E-3,6.971722960E-3
7.307516000E0,4.080038052E-4,1.557791606E-3,-4.007250071E-3,4.318707552E-3
7.317472000E0,-2.692381386E-4,-5.354536697E-4,-5.861341953E-3,5.891903708E-3
7.327429000E0,9.915303672E-4,-1.084959134E-3,-1.042140275E-2,1.052453819E-2
7.337386000E0,4.162875703E-4,-1.954631880E-4,-9.869329631E-3,9.880038895E-3
7.347342000E0,-1.803091727E-4,2.958737314E-4,-1.118527725E-2,1.119064251E-2
7.357299000E0,-4.871054552E-4,-1.386178657E-3,-5.309276283E-3,5.508827247E-3
7.367256000E0,1.464459696E-3,2.787914127E-4,-7.513055578E-3,7.659528117E-3
7.377212000E0,1.363525866E-3,2.857148647E-4,-9.255828336E-3,9.360085147E-3
7.387169000E0,5.680967006E-4,7.762666792E-4,-8.240822703E-3,8.296775436E-3
7.397126000E0,-1.541925827E-3,-1.066374592E-3,-1.001528651E-2,1.018924206E-2
7.407082000E0,4.623506684E-4,2.841297537E-4,-9.065337479E-3,9.081566025E-3
7.417039000E0,-1.371502061E-3,-1.698859967E-3,-7.569704205E-3,7.878297077E-3
7.426996000E0,-1.774405828E-4,-1.641245559E-3,-5.254128948E-3,5.507362631E-3
7.436952000E0,-5.050095497E-4,2.280268818E-4,-6.806487218E-3,6.829004257E-3
7.446909000E0,5.247095833E-4,-1.184449531E-3,-7.511898875E-3,7.622785944E-3
7.456866000E0,-9.275121847E-4,-6.297128275E-4,-9.317256510E-3,9.384459813E-3
7.466822000E0,1.924028853E-3,2.209299244E-3,-8.346017450E-3,8.845275431E-3
7.476779000E0,1.101498492E-4,1.962157898E-3,-9.496502578E-3,9.697719207E-3
7.486736000E0,1.417547930E-3,1.041214913E-3,-7.753212005E-3,7.950211760E-3
7.496692000E0,-1.838965341E-3,-4.783850163E-4,-4.644770175E-3,5.018419645E-3
7.506649000E0,3.225312335E-3,1.096973196E-3,-5.671128631E-3,6.615715366E-3
7.516606000E0,3.724219278E-5,2.993568778E-4,-5.500156432E-3,5.508422851E-3
7.526562000E0,-6.978474557E-4,-4.205154255E-4,-7.279371843E-3,7.324826190E-3
7.536519000E0,-8.483161218E-4,1.273787580E-3,-9.212823585E-3,9.339073479E-3
7.546476000E0,3.372575156E-4,5.326196551E-4,-9.213730693E-3,9.235272579E-3
7.556432000E0,1.186539535E-3,2.866614610E-3,-9.092025459E-3,9.606783142E-3
7.566389000E0,1.476799720E-3,-6.884811446E-4,-5.722332746E-3,5.949792917E-3
7.576346000E0,4.877017345E-4,-8.765002713E-4,-5.614474416E-3,5.703369940E-3
7.586302000E0,3.194510937E-4,5.652662367E-4,-5.679458380E-3,5.716451907E-3
7.596259000E0,1.362611307E-3,1.467810944E-3,-1.050829887E-2,1.069745408E-2
7.606216000E0,1.068391604E-3,-1.760186628E-3,-1.006756909E-2,1.027597514E-2
7.616172000E0,1.199951745E-3,6.318641827E-4,-1.118875854E-2,1.127064568E-2
7.626129000E0,-1.896082656E-3,1.532508992E-3,-6.040848792E-3,6.514258774E-3
7.636086000E0,-6.310809404E-4,-1.210477203E-4,-5.585446954E-3,5.622288980E-3
7.646042000E0,2.160304692E-3,-6.890930235E-4,-7.889620960E-3,8.209012392E-3
7.655999000E0,-8.357515326E-4,-4.514027387E-5,-9.231057018E-3,9.268922911E-3
7.665956000E0,1.016571769E-3,1.000618562E-3,-9.318616241E-3,9.427155685E-3
7.675912000E0,3.225519322E-4,-8.516097441E-4,-1.270749047E-2,1.274007822E-2
7.685869000E0,7.034495939E-4,-2.468060702E-4,-1.101117209E-2,1.103637917E-2
7.695826000E0,-2.004985232E-3,-8.169887587E-4,-7.261708379E-3,7.577588336E-3
7.705782000E0,-6.925645284E-4,-7.743937895E-4,-2.858096734E-3,3.041060392E-3
7.715739000E0,-5.154171959E-5,1.136691310E-3,-3.589401022E-3,3.765438006E-3
7.725696000E0,6.566860247E-4,-5.407230929E-4,-6.266439334E-3,6.323913339E-3
7.735652000E0,-8.032588521E-4,-6.667990237E-5,-1.070353203E-2,1.073383756E-2
7.745609000E0,-9.808321483E-4,-1.259204000E-4,-1.212536544E-2,1.216562266E-2
7.755566000E0,-1.568500884E-4,-6.071534008E-4,-1.277783886E-2,1.279321707E-2
7.765522000E0,1.797252917E-3,7.932912558E-5,-9.169382975E-3,9.344195808E-3
7.775479000E0,1.095776330E-3,-1.064765267E-3,-7.429542020E-3,7.585021125E-3
7.785436000E0,-4.158061463E-3,-6.237793714E-4,-1.460293308E-3,4.450958591E-3
7.795392000E0,-3.148723394E-3,-6.984174252E-5,-1.096237451E-3,3.334827346E-3
7.805349000E0,-3.263348481E-4,-8.186167106E-4,-5.839267746E-3,5.905393768E-3
7.815306000E0,-2.355211182E-4,7.020477206E-4,-1.054347493E-2,1.056944676E-2
7.825262000E0,2.654868877E-4,4.545561969E-4,-1.398242638E-2,1.399233190E-2
7.835219167E0,-2.739357762E-3,-4.756860435E-4,-1.007130742E-2,1.044804246E-2
7.845176167E0,-1.572980662E-3,-1.873925328E-3,-1.017279178E-2,1.046286562E-2
7.855132167E0,8.496969822E-4,-7.922109216E-5,-5.319979042E-3,5.387990159E-3
7.865089167E0,1.214001793E-3,-1.255325042E-3,-3.215666860E-3,3.659256027E-3
7.875046167E0,-2.058756771E-3,-4.382673651E-4,-5.894275382E-3,6.258836953E-3
7.885002167E0,5.593464011E-4,1.113395207E-3,-7.088063285E-3,7.196746377E-3
7.894959167E0,1.119142864E-3,7.975446060E-4,-9.709680453E-3,9.806449543E-3
7.904916167E0,-2.041171538E-4,1.069278456E-3,-1.232146658E-2,1.236946074E-2
7.914872167E0,8.654083358E-4,1.879411750E-3,-1.111905091E-2,1.130992543E-2
7.924829167E0,3.459204454E-4,1.202180982E-3,-8.656654507E-3,8.746574605E-3
7.934786167E0,-1.278559212E-4,-4.433859140E-4,-6.921868771E-3,6.937233274E-3
7.944742167E0,9.622158250E-4,-2.051706426E-3,-6.263837218E-3,6.661157200E-3
7.954699167E0,-3.813488875E-4,1.538501121E-3,-7.718987763E-3,7.880049794E-3
7.964656167E0,-4.146528663E-4,2.057201229E-3,-9.391123429E-3,9.622744575E-3
7.974612167E0,8.127980400E-4,2.686223015E-4,-7.834238932E-3,7.880869129E-3
7.984569167E0,-3.692752216E-5,8.410466835E-4,-8.270211518E-3,8.312949038E-3
7.994526167E0,8.839935181E-4,-2.202233300E-4,-1.290997118E-2,1.294207474E-2
8.004482167E0,-1.970750513E-3,2.303700894E-4,-9.579990059E-3,9.783309128E-3
8.014439167E0,7.946759579E-4,1.044765115E-3,-6.786864251E-3,6.912638453E-3
8.024396167E0,-1.527488348E-3,-2.015336417E-3,-4.315679893E-3,5.001989051E-3
8.034352167E0,-1.954126637E-3,1.796712168E-3,-6.939956918E-3,7.430328900E-3
8.044309167E0,-1.386445714E-3,-5.311192945E-4,-1.106438227E-2,1.116355116E-2
8.054266167E0,-5.382290110E-4,-2.863751724E-4,-1.042602025E-2,1.044383069E-2
8.064222167E0,-6.425003521E-4,-1.759926789E-3,-1.269345172E-2,1.283097290E-2
8.074179167E0,-1.111996826E-4,-7.814811543E-4,-8.617216721E-3,8.653294297E-3
8.084136167E0,6.941652391E-4,-8.231727406E-4,-6.294174120E-3,6.385617166E-3
8.094092167E0,3.404974705E-4,2.143321559E-3,-3.256574273E-3,3.913443730E-3
8.104049167E0,4.618685925E-4,5.141356960E-4,-7.827594876E-3,7.858046809E-3
8.114006167E0,-2.435384318E-3,-1.093880273E-3,-1.039967686E-2,1.073689665E-2
8.123962167E0,1.572575304E-3,4.180064425E-4,-9.751660749E-3,9.886486223E-3
8.133919167E0,2.026377944E-3,1.482283697E-4,-1.213732176E-2,1.230620813E-2
8.143876167E0,7.309277426E-4,-8.756872267E-4,-6.039299071E-3,6.146073279E-3
8.153832167E0,-1.308711944E-4,-1.349464059E-3,-5.726378411E-3,5.884691175E-3
8.163789167E0,1.004591235E-3,9.088311344E-5,-4.309127107E-3,4.425611790E-3
8.173746167E0,-4.710662179E-4,-7.605301216E-4,-5.438309163E-3,5.511398733E-3
8.183702167E0,-6.816219538E-4,7.941862568E-4,-6.249189377E-3,6.336221916E-3
8.193659167E0,1.971418969E-3,-2.921456471E-3,-1.106365025E-2,1.161144942E-2
8.203616167E0,2.245757729E-3,-5.942927673E-4,-1.076803356E-2,1.101576863E-2
8.213572167E0,2.393323230E-4,2.849441022E-3,-9.758163244E-3,1.016849763E-2
8.223529167E0,-3.031253582E-4,2.779692411E-3,-7.856577635E-3,8.339327732E-3
8.233486167E0,-6.570593687E-4,1.090981998E-3,-7.876548916E-3,7.978846506E-3
8.243442167E0,-4.748228239E-4,1.790624112E-3,-6.532328203E-3,6.789926596E-3
8.253399167E0,-6.396725075E-4,-6.754631177E-4,-7.246853784E-3,7.306320627E-3
8.263356167E0,4.410814494E-3,7.523531094E-4,-7.550956681E-3,8.777144553E-3
8.273312167E0,-2.707692329E-5,2.189222723E-4,-8.927809075E-3,8.930533858E-3
8.283269167E0,3.628431587E-4,-5.036825314E-4,-9.064741433E-3,9.085972072E-3
8.293226167E0,1.026769169E-3,3.182931803E-3,-7.953137159E-3,8.627728581E-3
8.303182167E0,1.391102793E-3,4.115691409E-4,-5.232373253E-3,5.429759294E-3
8.313139167E0,-7.495461032E-4,2.166265622E-4,-5.083503202E-3,5.143029382E-3
8.323095167E0,4.880639026E-4,2.100808546E-3,-6.035091355E-3,6.408894646E-3
8.333052167E0,-4.222044954E-4,-3.740666434E-4,-6.633238867E-3,6.657179610E-3
8.343009167E0,-9.969226085E-6,-8.271131665E-4,-7.425192744E-3,7.471124604E-3
8.352965167E0,-5.838803481E-4,9.846361354E-4,-8.280601352E-3,8.359353045E-3
8.362922167E0,2.099039732E-3,2.133287489E-5,-8.432947099E-3,8.690283060E-3
8.372879167E0,-2.962564118E-3,1.974228770E-3,-5.009718239E-3,6.145863831E-3
8.382835167E0,1.610678155E-4,7.413327694E-7,-6.806623191E-3,6.808528670E-3
8.392792167E0,-3.483202076E-3,-1.899690367E-3,-4.301652312E-3,5.851985373E-3
8.402749167E0,-8.433551993E-4,2.967209555E-3,-6.334677339E-3,7.045829796E-3
8.412705167E0,6.112632691E-4,-4.242919385E-5,-7.052399218E-3,7.078967280E-3
8.422662167E0,-5.553034134E-4,7.843868807E-4,-6.362333894E-3,6.434509868E-3
8.432619167E0,1.039663679E-3,-3.240210935E-4,-8.381806314E-3,8.452252204E-3
8.442575167E0,5.046371371E-5,-6.038369611E-4,-9.356344119E-3,9.375944802E-3
8.452532167E0,1.082704985E-3,-1.799063757E-3,-8.600005880E-3,8.852625691E-3
8.462489167E0,-3.397014225E-4,-5.917819217E-4,-1.052333042E-2,1.054542963E-2
8.472445167E0,-9.461031295E-4,-1.166742295E-4,-6.616473198E-3,6.684791813E-3
8.482402167E0,8.995573735E-4,-9.585730731E-5,-4.591410980E-3,4.679684485E-3
8.492359167E0,3.658599453E-4,-6.410060450E-4,-4.090202972E-3,4.156260652E-3
8.502315167E0,-6.468644133E-4,-8.116392419E-4,-7.707839832E-3,7.777402311E-3
8.512272167E0,1.450907555E-3,4.533622414E-4,-7.535001263E-3,7.686801291E-3
8.522229167E0,-2.653860953E-3,1.094758511E-3,-7.317468524E-3,7.860459258E-3
8.532185167E0,-9.411823703E-4,7.829023525E-4,-8.498847485E-3,8.586569100E-3
8.542142167E0,-4.114568001E-4,5.248887464E-4,-8.781373501E-3,8.806663696E-3
8.552099167E0,-3.589407075E-3,-1.632804051E-3,-7.363505661E-3,8.352910142E-3
8.562055167E0,7.194007630E-4,1.563820988E-3,-7.163738832E-3,7.367647358E-3
8.572012167E0,-2.652427647E-3,4.072105512E-4,-9.398931637E-3,9.774513225E-3
8.581969167E0,-5.937912501E-4,2.218166366E-3,-5.996681750E-3,6.421295982E-3
8.591925167E0,-5.807417911E-4,3.342460841E-4,-7.127191871E-3,7.158620359E-3
8.601882167E0,-8.148704655E-4,4.166280851E-4,-6.678005680E-3,6.740426745E-3
8.611839167E0,-2.687072381E-3,2.278098837E-4,-9.025314823E-3,9.419584013E-3
8.621795167E0,7.442053757E-4,2.982341684E-3,-1.106454246E-2,1.148356667E-2
8.631752167E0,-8.861818351E-4,2.043311484E-3,-7.402429357E-3,7.730226417E-3
8.641709167E0,1.598068164E-3,1.746275462E-3,-7.802609354E-3,8.153772905E-3
8.651665167E0,-1.316761598E-3,1.508454792E-3,-6.869703531E-3,7.155565916E-3
8.661622167E0,5.919911782E-4,-3.683287650E-4,-4.938114434E-3,4.987092720E-3
8.671578167E0,-7.326644845E-5,-1.808832400E-3,-7.563192397E-3,7.776832380E-3
8.681535167E0,-6.908894284E-4,4.942556843E-4,-1.067781821E-2,1.071155538E-2
8.691492167E0,3.340071300E-3,2.219185233E-3,-9.635455906E-3,1.043661199E-2
8.701448167E0,-4.959478974E-4,-8.217673749E-4,-1.124001481E-2,1.128092189E-2
8.711405167E0,-2.147181658E-4,7.654763758E-4,-8.871132508E-3,8.906685688E-3
8.721362167E0,1.357036992E-3,-2.725329250E-4,-4.631973803E-3,4.834356721E-3
8.731318167E0,-7.654260844E-5,1.906199381E-3,-6.261829287E-3,6.545988151E-3
8.741275167E0,-3.924872726E-5,-2.128328197E-3,-6.649011746E-3,6.981452469E-3
8.751232167E0,2.393282717E-3,2.786268480E-3,-7.873533294E-3,8.688131026E-3
8.761188167E0,-9.319917299E-4,8.772723377E-4,-8.948678151E-3,9.039748668E-3
8.771145167E0,1.766323112E-3,-5.326056853E-4,-1.139692031E-2,1.154527430E-2
8.781102167E0,4.295064602E-3,-5.901381373E-4,-7.699152455E-3,8.835880911E-3
8.791058167E0,-5.321812350E-4,8.157445118E-4,-3.290820867E-3,3.431932102E-3
8.801015167E0,1.070783357E-3,1.386562362E-4,-5.245110020E-3,5.355089324E-3
8.810972167E0,1.119252993E-3,3.929883242E-4,-6.584411487E-3,6.690414166E-3
8.820928167E0,-8.197674761E-4,1.151062548E-3,-8.536806330E-3,8.652977870E-3
8.830885167E0,-1.450670534E-3,7.952647284E-4,-1.159518026E-2,1.171260416E-2
8.840842125E0,1.889801002E-3,-1.327522099E-3,-9.413704276E-3,9.692857729E-3
8.850798125E0,1.365424599E-3,1.513271593E-3,-6.787028164E-3,7.086474903E-3
8.860755125E0,-1.177016995E-3,-5.475450307E-4,-7.963296026E-3,8.068411130E-3
8.870712125E0,-8.579703281E-4,-5.539366975E-4,-4.085201770E-3,4.210918243E-3
8.880668125E0,-5.847332068E-4,-8.197035640E-4,-2.079507336E-3,2.310449657E-3
8.890625125E0,1.255511073E-3,-7.552551106E-4,-8.791472763E-3,8.912727511E-3
8.900582125E0,2.476802096E-3,1.583788544E-3,-7.195085287E-3,7.772527714E-3
8.910538125E0,-1.422864618E-3,-5.986718461E-4,-9.420685470E-3,9.546322141E-3
8.920495125E0,2.103938023E-4,-5.573183298E-4,-7.880596444E-3,7.903079753E-3
8.930451125E0,-2.545941388E-4,1.358027570E-3,-4.134861752E-3,4.359603052E-3
8.940408125E0,2.977245953E-3,1.862604171E-3,-2.324741334E-3,4.211616083E-3
8.950365125E0,8.144927560E-4,1.106265932E-3,-5.494967103E-3,5.664087413E-3
8.960321125E0,9.578012978E-4,1.761907712E-3,-7.416192442E-3,7.682552470E-3
8.970278125E0,-8.275818545E-4,1.272951253E-3,-7.791429758E-3,7.937989310E-3
8.980235125E0,2.261216519E-3,6.746919826E-4,-8.585263044E-3,8.903653798E-3
8.990191125E0,2.902110573E-4,-4.486292601E-4,-7.051549852E-3,7.071763994E-3
9.000148125E0,5.609736545E-4,-4.018004984E-5,-4.481412470E-3,4.516565466E-3
9.010105125E0,-8.302617352E-4,-1.097454689E-3,-4.765305668E-3,4.960028171E-3
9.020061125E0,2.022235654E-3,5.668532103E-4,-5.968376994E-3,6.327107044E-3
9.030018125E0,-4.615693353E-3,1.353017986E-3,-1.019588113E-2,1.127347661E-2
9.039975125E0,2.112419344E-3,5.976762623E-4,-9.158564731E-3,9.418006177E-3
9.049931125E0,1.892708475E-3,-6.188554689E-4,-7.330039516E-3,7.595709761E-3
9.059888125E0,1.300713746E-3,1.845478080E-3,-5.051242188E-3,5.532873867E-3
9.069845125E0,-6.604380906E-4,-7.838942111E-5,-4.052823409E-3,4.107030674E-3
9.079801125E0,-6.163083017E-4,1.211957075E-3,-9.112181142E-3,9.213062522E-3
9.089758125E0,3.320433898E-4,-8.914070204E-4,-7.710294798E-3,7.768751841E-3
9.099715125E0,7.787180366E-4,9.682625532E-4,-5.701726303E-3,5.835547702E-3
9.109671125E0,2.158501651E-3,1.340039074E-3,-5.569899455E-3,6.121977951E-3
9.119628125E0,1.531608519E-3,-1.867676154E-3,-6.021076813E-3,6.487480625E-3
9.129585125E0,-1.306522172E-3,2.641845495E-4,-7.276488468E-3,7.397572446E-3
9.139541125E0,1.355090877E-3,-4.897704348E-4,-6.272006780E-3,6.435387744E-3
9.149498125E0,-4.848870449E-4,2.855692059E-3,-5.432844162E-3,6.156775801E-3
9.159454125E0,1.147333300E-3,8.688326925E-4,-2.912968397E-3,3.249096618E-3
9.169411125E0,4.698251141E-4,7.018521428E-4,-4.852015525E-3,4.924975809E-3
9.179368125E0,7.365993224E-4,7.845833898E-5,-5.360666662E-3,5.411606170E-3
9.189324125E0,-1.931089209E-3,7.765926421E-5,-8.887492120E-3,9.095199431E-3
9.199281125E0,2.738507465E-5,6.236126646E-4,-6.709620357E-3,6.738593921E-3
9.209238125E0,7.720049471E-4,1.321360469E-3,-2.786783502E-3,3.179331284E-3
9.219194125E0,-5.381321535E-5,-6.186924875E-4,-3.801057115E-3,3.851455757E-3
9.229151125E0,2.234218409E-4,9.130593389E-5,-3.956319764E-3,3.963675084E-3
9.239108125E0,7.576944190E-4,-1.805070788E-3,-7.612412795E-3,7.860102413E-3
9.249064125E0,3.343091346E-3,4.748618230E-4,-5.358310416E-3,6.333501719E-3
9.259021125E0,-3.789956681E-4,2.176468261E-3,-5.588144064E-3,6.008993750E-3
9.268978125E0,1.621570904E-3,-1.002813689E-3,-6.961803883E-3,7.218160486E-3
9.278934125E0,7.399680326E-4,1.235227101E-3,-9.320354089E-3,9.430924611E-3
9.288891125E0,-2.521605464E-3,9.119194001E-4,-7.807413116E-3,8.255046376E-3
9.298848125E0,-3.157406580E-3,1.617958769E-4,-9.012319148E-3,9.550774347E-3
9.308804125E0,-2.258589491E-3,-6.699096411E-4,-6.333712488E-3,6.757656347E-3
9.318761125E0,3.602099605E-4,-1.054700464E-3,-5.117176101E-3,5.237140014E-3
9.328718125E0,2.225245116E-4,4.372028634E-4,-5.807200447E-3,5.827884739E-3
9.338674125E0,2.792800078E-4,9.981431067E-4,-4.790315405E-3,4.901164011E-3
9.348631125E0,-6.645442918E-4,1.658607274E-3,-8.271863684E-3,8.462642969E-3
9.358587125E0,-1.360724680E-3,-1.494357362E-3,-6.869630888E-3,7.160761420E-3
9.368544125E0,-2.241964685E-3,2.347518690E-3,-8.102675900E-3,8.728723067E-3
9.378501125E0,-2.014459111E-3,-2.337433398E-4,-4.794470966E-3,5.205730813E-3
9.388457125E0,2.758191898E-3,1.679471694E-3,-3.966759890E-3,5.115020210E-3
9.398414125E0,1.025728881E-3,1.193967648E-3,-4.319157451E-3,4.597042481E-3
9.408371125E0,-7.135816850E-4,1.295022666E-4,-5.729570985E-3,5.775288160E-3
9.418327125E0,-1.407994190E-3,1.016266644E-3,-8.836705238E-3,9.005698473E-3
9.428284125E0,2.255183877E-3,-1.147780567E-4,-8.402876556E-3,8.700997801E-3
9.438241125E0,1.166619128E-3,2.080259845E-3,-8.021587506E-3,8.368652659E-3
9.448197125E0,-4.286143230E-4,1.825928688E-3,-6.912911311E-3,7.162825462E-3
9.458154125E0,2.532834187E-4,-2.813130617E-3,-6.317362189E-3,6.920037673E-3
9.468111125E0,-1.928111888E-3,-5.809124559E-5,-5.986865610E-3,6.289956270E-3
9.478067125E0,-2.578365849E-3,-3.172596917E-4,-8.699776605E-3,9.079357749E-3
9.488024125E0,-9.562342893E-4,1.088464633E-4,-4.984134808E-3,5.076202454E-3
9.497981125E0,1.446973416E-3,-1.519185491E-3,-5.826201290E-3,6.192437169E-3
9.507937125E0,-1.651348080E-3,5.341134965E-5,-6.313558668E-3,6.526164747E-3
9.517894125E0,-4.662972642E-4,-2.007950097E-4,-6.030574441E-3,6.051907126E-3
9.527851125E0,-1.871979330E-4,1.230454072E-4,-8.591733873E-3,8.594653814E-3
9.537807125E0,-1.883289660E-3,1.638196409E-6,-5.621422082E-3,5.928504774E-3
9.547764125E0,-3.533036215E-4,-2.336883917E-3,-9.339194745E-3,9.633608274E-3
9.557720125E0,-6.746732397E-4,-1.492478885E-3,-7.876671851E-3,8.045162313E-3
9.567677125E0,-6.344594294E-4,2.239941619E-3,-8.358437568E-3,8.676598170E-3
9.577634125E0,-1.785459463E-4,-1.300617121E-3,-6.992883980E-3,7.115048131E-3
9.587590125E0,2.089934656E-3,-2.220366150E-4,-4.695110023E-3,5.144043668E-3
9.597547125E0,-6.698656362E-4,-1.553489827E-3,-4.518948495E-3,4.825240524E-3
9.607504125E0,-1.389185432E-3,8.468171582E-4,-2.061383799E-3,2.626069045E-3
9.617460125E0,3.703543916E-4,1.230578870E-3,-4.356250167E-3,4.541850091E-3
9.627417125E0,2.038292121E-3,5.157869309E-4,-6.739512086E-3,7.059865019E-3
9.637374125E0,-3.466029186E-3,1.007181592E-3,-8.488349617E-3,9.223874039E-3
9.647330125E0,6.558874156E-5,8.487235755E-4,-7.489662617E-3,7.537882973E-3
9.657287125E0,-6.155080628E-4,2.431152388E-4,-6.209019572E-3,6.244187636E-3
9.667244125E0,-6.709480658E-6,2.204000019E-3,-3.405243158E-3,4.056271942E-3
9.677200125E0,-1.789619098E-3,-1.333354972E-3,-4.569794983E-3,5.085626626E-3
9.687157125E0,-2.001606859E-3,-5.415966734E-4,-4.782579839E-3,5.212756171E-3
9.697114125E0,-1.955030020E-3,6.528021768E-4,-5.175955594E-3,5.571248457E-3
9.707070125E0,-1.393369399E-3,1.413134858E-3,-6.244946271E-3,6.552692755E-3
9.717027125E0,-1.161064371E-3,4.097307101E-4,-7.345875725E-3,7.448344776E-3
9.726983125E0,-1.661073184E-4,-1.750359312E-3,-4.196954891E-3,4.550360394E-3
9.736940125E0,1.222597202E-3,2.522449940E-4,-7.174521685E-3,7.282316449E-3
9.746897125E0,3.605319653E-4,9.398730472E-4,-3.109209239E-3,3.268107516E-3
9.756853125E0,3.110251855E-3,-1.491000876E-4,-6.214547902E-3,6.951007342E-3
9.766810125E0,1.669748104E-3,8.205575868E-4,-7.197257131E-3,7.433833715E-3
9.776767125E0,-1.775143901E-3,-1.670442522E-3,-9.866375476E-3,1.016301526E-2
9.786723125E0,-5.061475094E-4,2.561586909E-3,-7.997371256E-3,8.412838986E-3
9.796680125E0,1.029523090E-3,-1.726094633E-3,-7.256381214E-3,7.529567637E-3
9.806637125E0,-1.720989821E-3,1.830823720E-3,-3.042727709E-3,3.946126375E-3
9.816593125E0,-1.449126285E-4,1.020858064E-3,-2.299800515E-3,2.520363717E-3
9.826550125E0,9.626960382E-4,-1.208207570E-3,-4.822079092E-3,5.063496417E-3
9.836507250E0,-6.257896312E-4,1.102047041E-3,-2.662818879E-3,2.949020977E-3
9.846463250E0,-3.786484012E-4,2.420844510E-3,-7.055439055E-3,7.468807335E-3
9.856420250E0,-4.745782353E-4,3.935322165E-4,-6.681920961E-3,6.710302514E-3
9.866376250E0,2.636792604E-3,-1.127133146E-3,-7.219878957E-3,7.768510572E-3
9.876333250E0,-3.582970239E-4,1.273245551E-3,-4.832383245E-3,5.010135609E-3
9.886290250E0,3.275053576E-3,7.858872414E-4,-4.215326160E-3,5.395606483E-3
9.896246250E0,-1.437792322E-3,-1.723025925E-3,-4.545809701E-3,5.069561218E-3
9.906203250E0,-1.856441144E-3,-9.898571298E-4,-3.982817754E-3,4.504334370E-3
9.916160250E0,-1.244015177E-3,4.294402897E-4,-4.825182259E-3,5.001437449E-3
9.926116250E0,-1.956943423E-3,-1.054738648E-3,-7.664911449E-3,7.980787473E-3
9.936073250E0,1.146750175E-3,2.218642272E-3,-8.023519069E-3,8.403229602E-3
9.946030250E0,-2.503440483E-4,-1.276023686E-4,-6.248258054E-3,6.254572985E-3
9.955986250E0,-2.347189002E-4,2.037175000E-5,-3.235733137E-3,3.244299139E-3
9.965943250E0,1.744276029E-3,-2.641190775E-3,-1.005603001E-3,3.321087919E-3
9.975900250E0,-1.824457198E-3,-1.755209640E-3,-4.113415256E-3,4.830071430E-3
9.985856250E0,-4.132481990E-4,8.605476469E-4,-6.880173460E-3,6.946085456E-3
9.995813250E0,-2.569647040E-4,1.010220498E-3,-7.407821715E-3,7.480802021E-3
1.000577025E1,4.319950240E-4,2.070956863E-3,-5.547069013E-3,5.936788414E-3
1.001572625E1,8.435000200E-4,1.561315730E-4,-7.611744106E-3,7.659929352E-3
1.002568325E1,9.428359335E-4,3.405454569E-3,-1.612706110E-3,3.884183494E-3
1.003563925E1,-3.229554277E-4,2.393927425E-3,-1.181228086E-3,2.688956771E-3
1.004559625E1,-5.298829637E-4,5.174642429E-4,-3.527197987E-4,8.203392312E-4
1.005555325E1,-4.324929323E-4,-7.162624970E-4,-4.721879959E-3,4.795438713E-3
1.006550925E1,2.942797262E-3,-2.403907478E-3,-6.249468774E-3,7.314006210E-3
1.007546625E1,2.167858882E-3,1.678338274E-3,-7.431389764E-3,7.920983861E-3
1.008542325E1,1.826707972E-3,1.145705581E-3,-5.860390142E-3,6.244491645E-3
1.009537925E1,-9.742134716E-4,2.337993123E-3,-5.267489702E-3,5.844805513E-3
1.010533625E1,1.549930545E-3,2.262625843E-3,-4.221666604E-3,5.034305247E-3
1.011529325E1,-7.595273200E-5,3.192748874E-3,-3.253445029E-3,4.558982206E-3
1.012524925E1,-1.656538923E-3,1.056094654E-3,-2.715751529E-3,3.351829872E-3
1.013520625E1,1.704798196E-3,3.956267610E-4,-6.929716095E-3,7.147294774E-3
1.014516325E1,-3.046014812E-3,1.103495248E-3,-6.644757465E-3,7.392476565E-3
1.015511925E1,2.103797393E-3,1.023776829E-3,-4.186594859E-3,4.796004481E-3
1.016507625E1,3.077614820E-4,-2.678558230E-4,-6.473718211E-3,6.486562368E-3
1.017503225E1,1.082265633E-3,1.674197614E-3,-4.787020385E-3,5.185537650E-3
1.018498925E1,2.427960979E-3,6.094658747E-4,-5.170248449E-3,5.744380923E-3
1.019494625E1,-3.451688448E-3,-1.672124490E-3,-4.839889705E-3,6.175328802E-3
1.020490225E1,1.310842461E-3,-7.828949019E-4,-1.018272340E-2,1.029655711E-2
1.021485925E1,-1.678545028E-3,9.904541075E-4,-6.197053939E-3,6.496305894E-3
1.022481625E1,1.764389570E-3,-2.341065556E-5,-7.507063448E-3,7.711654831E-3
1.023477225E1,-7.402743213E-4,-7.144333795E-4,-3.312809393E-3,3.468879819E-3
1.024472925E1,-7.256269455E-4,-1.603662036E-3,-1.086672768E-3,2.068604384E-3
1.025468625E1,2.014710801E-3,-1.281682402E-3,-1.454398036E-3,2.795897537E-3
1.026464225E1,-3.096961882E-4,-2.047000453E-4,-1.377433538E-3,1.426582276E-3
1.027459925E1,-1.866901759E-3,-4.714950919E-4,-2.052310854E-3,2.814180101E-3
1.028455525E1,-8.365246467E-4,9.791292250E-4,-4.517067224E-3,4.697059062E-3
1.029451225E1,5.415256135E-3,-1.383804716E-3,-6.058245897E-3,8.242709376E-3
1.030446925E1,2.217598492E-3,1.028486528E-3,-4.853166640E-3,5.434036625E-3
1.031442525E1,-5.871772300E-4,-2.618107013E-3,-3.927111626E-3,4.756203019E-3
1.032438225E1,-1.241249498E-3,-8.036950603E-4,-2.864509821E-3,3.223669118E-3