"Time (s)","Gyroscope x (rad/s)","Gyroscope y (rad/s)","Gyroscope z (rad/s)","Absolute (rad/s)"
1.098112500E-2,-3.677104833E-4,1.347716898E-4,5.601454154E-2,5.601591058E-2
2.093712500E-2,1.464278088E-3,1.490320079E-3,5.799140781E-2,5.802903191E-2
3.089412500E-2,-3.899974981E-4,2.571423538E-3,5.562815070E-2,5.568891692E-2
4.085012500E-2,-2.347154543E-3,2.384736203E-3,5.698982254E-2,5.708796698E-2
5.080612500E-2,1.087582903E-3,1.827832311E-3,5.508697778E-2,5.512802308E-2
6.076312500E-2,6.303180708E-4,1.492007636E-3,5.413543060E-2,5.415965504E-2
7.071912500E-2,7.388379890E-5,-3.678603098E-4,5.433119461E-2,5.433249017E-2
8.067512500E-2,-2.243903000E-4,1.108329743E-3,5.197536200E-2,5.198766201E-2
9.063212500E-2,-1.034664921E-3,1.066322438E-3,5.476053432E-2,5.478068723E-2
1.005881250E-1,4.838695750E-4,4.194406793E-4,5.825247243E-2,5.825599201E-2
1.105451250E-1,3.611145075E-4,1.858375967E-3,5.916454643E-2,5.919482679E-2
1.205011250E-1,-2.364897169E-3,-2.301481552E-3,6.166871637E-2,6.175694402E-2
1.304571250E-1,2.549081808E-3,8.425666019E-4,5.748843402E-2,5.755108845E-2
1.404141250E-1,-2.241678769E-3,1.517144963E-3,5.818085745E-2,5.824378959E-2
1.503701250E-1,8.123823209E-4,1.019556075E-4,5.351952091E-2,5.352578330E-2
1.603271250E-1,-1.137051499E-3,-1.253327355E-3,5.383377522E-2,5.386036641E-2
1.702831250E-1,2.448399318E-4,-3.238692880E-4,5.387766659E-2,5.387919631E-2
1.802391250E-1,-2.566333860E-4,8.378019556E-4,5.708144978E-2,5.708817462E-2
1.901961250E-1,-8.150100475E-4,1.201050356E-3,5.838584900E-2,5.840388794E-2
2.001521250E-1,4.454640439E-4,5.376059562E-5,5.775228143E-2,5.775402444E-2
2.101091250E-1,-6.318214582E-4,-8.895043284E-4,5.688731000E-2,5.689777197E-2
2.200651250E-1,5.418336950E-4,1.311598346E-3,5.697785690E-2,5.699552659E-2
2.300211250E-1,8.825078257E-4,9.676450863E-4,5.405028909E-2,5.406615307E-2
2.399781250E-1,1.626553712E-4,7.170420140E-4,5.526495725E-2,5.526984807E-2
2.499341250E-1,1.344946795E-3,7.963990793E-4,5.529072508E-2,5.531281419E-2
2.598901250E-1,-2.247124678E-3,-9.833909571E-4,5.303103477E-2,5.308773187E-2
2.698471250E-1,-1.585459104E-3,2.544915304E-3,5.595308170E-2,5.603336172E-2
2.798032500E-1,1.349428203E-4,7.528737187E-4,5.559169129E-2,5.559695287E-2
2.897602500E-1,1.823173603E-3,1.070868224E-3,5.670275167E-2,5.674216040E-2
2.997162500E-1,2.332663862E-4,-1.626648009E-3,5.909533799E-2,5.911818137E-2
3.096722500E-1,-2.363211010E-3,-1.739612781E-3,5.738771707E-2,5.746269302E-2
3.196292500E-1,6.664012326E-4,-1.007029787E-4,5.532749742E-2,5.533160221E-2
3.295852500E-1,-3.465141635E-4,8.555958048E-4,5.264971405E-2,5.265780575E-2
3.395422500E-1,1.999665983E-4,1.426044852E-3,5.380526185E-2,5.382452780E-2
3.494982500E-1,6.393641233E-4,-8.604601026E-4,5.690893903E-2,5.691903478E-2
3.594542500E-1,-1.817135722E-3,-2.323867753E-3,5.752732232E-2,5.760290928E-2
3.694112500E-1,-2.771356143E-3,-7.405001670E-4,5.780185014E-2,5.787298709E-2
3.793672500E-1,7.978123613E-4,-2.281937748E-3,5.664630234E-2,5.669785987E-2
3.893242500E-1,1.563986181E-3,2.518942580E-3,6.053188071E-2,6.060445286E-2
3.992802500E-1,-2.678162884E-3,4.920102656E-4,5.251523107E-2,5.258577874E-2
4.092362500E-1,-1.175495679E-3,1.448644325E-4,5.597097427E-2,5.598350414E-2
4.191932500E-1,-2.178175841E-3,-4.141330719E-4,5.287691206E-2,5.292337654E-2
4.291492500E-1,-1.247283071E-3,1.004054211E-3,5.691907927E-2,5.694159662E-2
4.391062500E-1,4.486177349E-4,2.710075118E-3,5.675529689E-2,5.682173431E-2
4.490622500E-1,9.108451195E-4,9.245919064E-4,5.597514659E-2,5.599019151E-2
4.590182500E-1,-9.744066047E-4,5.655977875E-4,5.591017008E-2,5.592152079E-2
4.689752500E-1,1.570012653E-3,1.442880370E-3,5.283851177E-2,5.288152011E-2
4.789312500E-1,-4.923391389E-4,1.144340262E-3,5.325848982E-2,5.327305745E-2
4.888872500E-1,-5.922002019E-4,-5.906429142E-4,5.520446599E-2,5.521080170E-2
4.988442500E-1,-4.747548373E-4,-2.176822163E-3,5.823487788E-2,5.827748235E-2
5.088002500E-1,-7.070398424E-4,-1.249661669E-3,5.567291379E-2,5.569142564E-2
5.187572500E-1,-8.351379074E-4,-6.001163274E-4,5.955473706E-2,5.956361558E-2
5.287132500E-1,9.832800133E-4,1.329233870E-3,5.655335635E-2,5.657752042E-2
5.386692500E-1,3.875308903E-4,1.733501442E-3,5.250694975E-2,5.253698678E-2
5.486262500E-1,-1.051317668E-4,1.803040504E-5,5.168386549E-2,5.168397556E-2
5.585822500E-1,1.311137341E-3,-6.719026715E-5,5.147161335E-2,5.148835379E-2
5.685392500E-1,1.431264449E-3,9.586038068E-4,5.518313870E-2,5.521001934E-2
5.784952500E-1,-1.963733230E-3,2.284059301E-3,5.800982192E-2,5.808797306E-2
5.884512500E-1,-4.705609754E-4,1.431779936E-3,5.307899415E-2,5.310038646E-2
5.984082500E-1,-1.437910832E-4,5.449475721E-4,4.916255176E-2,4.916578220E-2
6.083642500E-1,-2.242366783E-3,1.497090794E-3,4.694304615E-2,4.702041122E-2
6.183212500E-1,-3.794854274E-4,-7.388992235E-4,4.820085689E-2,4.820801372E-2
6.282772500E-1,3.845907049E-4,2.084817737E-3,5.149516091E-2,5.153878124E-2
6.382332500E-1,2.037620870E-4,1.094387844E-3,5.422410369E-2,5.423552917E-2
6.481902500E-1,-1.213948941E-3,1.430958509E-3,5.415247753E-2,5.418498073E-2
6.581462500E-1,2.848703414E-3,1.085280441E-3,5.290052667E-2,5.298828802E-2
6.681032500E-1,-6.847793702E-5,-4.790453240E-4,5.090024322E-2,5.090254349E-2
6.780592500E-1,-1.519101788E-3,-1.730481163E-4,4.844560847E-2,4.846972865E-2
6.880152500E-1,2.299489221E-3,3.808286972E-3,4.787086695E-2,4.807713181E-2
6.979722500E-1,-1.908038859E-3,1.643669792E-3,5.385072529E-2,5.390958057E-2
7.079282500E-1,4.254636588E-4,1.086471602E-4,5.532613397E-2,5.532787655E-2
7.178852500E-1,1.723488444E-3,1.344886608E-3,5.886707455E-2,5.890765314E-2
7.278412500E-1,1.360625261E-3,3.685344011E-3,5.676428229E-2,5.690005980E-2
7.377972500E-1,3.090896644E-5,-1.113938168E-3,5.142144486E-2,5.143351831E-2
7.477542500E-1,-8.316624444E-4,1.769813709E-3,4.592065886E-2,4.596227598E-2
7.577102500E-1,1.845997758E-4,-3.063874319E-4,4.860352725E-2,4.860484350E-2
7.676662500E-1,1.731470460E-3,2.462513745E-3,5.029463023E-2,5.038463847E-2
7.776232500E-1,1.983671682E-3,1.850252971E-3,5.342170596E-2,5.349053241E-2
7.875792500E-1,1.946522389E-5,1.367542893E-3,5.521778017E-2,5.523471553E-2
7.975362500E-1,3.342508571E-4,-1.930687577E-4,5.577784777E-2,5.577918340E-2
8.074922500E-1,-1.367004588E-3,-1.500835642E-4,5.198388919E-2,5.200207652E-2
8.174482500E-1,-2.018680098E-3,-1.164748333E-3,4.956307635E-2,4.961784200E-2
8.274052500E-1,-8.416274795E-4,7.972428575E-4,4.759790003E-2,4.761201551E-2
8.373612500E-1,-2.053099219E-3,3.998996690E-4,5.181022361E-2,5.185242913E-2
8.473182500E-1,1.297359122E-3,2.817473374E-3,5.226481706E-2,5.235677988E-2
8.572742500E-1,-2.765689278E-4,1.566054299E-3,5.270716920E-2,5.273115495E-2
8.672302500E-1,1.930543105E-3,-9.291041642E-4,5.228082091E-2,5.232470225E-2
8.771872500E-1,-1.142320689E-4,9.167324752E-4,5.450855568E-2,5.451638368E-2
8.871432500E-1,-5.416311324E-4,1.553595997E-3,5.016359687E-2,5.019057158E-2
8.971002500E-1,-8.934345096E-4,2.089655027E-4,5.028770119E-2,5.029607125E-2
9.070562500E-1,6.629385753E-4,-1.023058780E-3,5.074389651E-2,5.075853791E-2
9.170122500E-1,-5.931069609E-5,-4.701856524E-4,5.083018169E-2,5.083239088E-2
9.269692500E-1,-5.123702576E-4,1.069191843E-3,5.309467018E-2,5.310790615E-2
9.369252500E-1,-1.136348932E-3,1.359210350E-3,5.493784696E-2,5.496640583E-2
9.468822500E-1,-7.605587598E-4,-4.151519388E-4,5.307337642E-2,5.308044918E-2
9.568382500E-1,-9.563011117E-4,-4.652198404E-4,5.333889276E-2,5.334949317E-2
9.667942500E-1,1.559358556E-3,2.525914460E-4,5.373064801E-2,5.375386439E-2
9.767512500E-1,-3.124342766E-3,1.322915778E-3,4.918649420E-2,4.930337550E-2
9.867072500E-1,1.236762619E-4,1.007849351E-4,4.705416411E-2,4.705443458E-2
9.966642500E-1,-2.032951452E-3,7.980009541E-4,5.061481148E-2,5.066190717E-2
1.006620250E0,2.261584159E-4,-4.826290533E-4,5.318711698E-2,5.318978747E-2
1.016576250E0,-5.480507389E-5,-4.426809028E-4,5.321081728E-2,5.321268688E-2
1.026533250E0,1.415455947E-3,5.845455453E-4,5.208244920E-2,5.210495872E-2
1.036489250E0,2.047829330E-4,2.428619191E-4,5.025792122E-2,5.025892521E-2
1.046446250E0,-1.023688004E-3,9.065102786E-4,5.178660154E-2,5.180465035E-2
1.056402250E0,-1.743540284E-3,1.511314884E-3,4.890319705E-2,4.895760091E-2
1.066358250E0,-1.638430986E-3,-3.961743787E-4,5.313175544E-2,5.315848800E-2
1.076315250E0,4.444272490E-4,1.470701769E-3,5.383748934E-2,5.385940714E-2
1.086271250E0,-1.086783595E-4,1.263685524E-3,4.904811084E-2,4.906450743E-2
1.096228250E0,-2.241337672E-3,-5.022566766E-4,5.034666881E-2,5.039903686E-2
1.106184250E0,-3.034886904E-3,1.008356921E-3,5.273203552E-2,5.282892098E-2
1.116140250E0,7.646452868E-4,3.307730891E-3,5.046489090E-2,5.057895787E-2
1.126097250E0,1.520291320E-3,8.004168049E-4,5.261640623E-2,5.264445040E-2
1.136053250E0,-2.756478731E-3,3.460813314E-4,4.994099587E-2,5.001820684E-2
1.146010250E0,1.100416761E-3,6.348825991E-6,4.951562732E-2,4.952785385E-2
1.155966250E0,-2.601909917E-3,1.441526227E-3,5.500147492E-2,5.508184979E-2
1.165922250E0,-1.674748142E-3,1.030420884E-3,5.508914590E-2,5.512422829E-2
1.175879250E0,3.393599764E-5,6.242888048E-4,5.322066694E-2,5.322433915E-2
1.185835250E0,-8.376027690E-4,6.260266528E-4,5.045899749E-2,5.046983173E-2
1.195792250E0,8.385104593E-5,2.814140171E-4,5.047284439E-2,5.047369856E-2
1.205748250E0,6.924649933E-4,3.504324704E-4,4.843872413E-2,4.844494097E-2
1.215704250E0,1.355592045E-3,-1.502329484E-3,5.118843913E-2,5.122841911E-2
1.225661250E0,4.983106628E-4,5.698185414E-4,5.381933600E-2,5.382465916E-2
1.235617250E0,3.046989441E-4,-4.126215354E-4,5.144006386E-2,5.144262113E-2
1.245574250E0,-2.890954725E-3,7.731597871E-4,5.320337042E-2,5.328746588E-2
1.255530250E0,-2.457924653E-3,1.273301430E-3,5.222758651E-2,5.230089371E-2
1.265486250E0,-1.560103265E-3,1.488880254E-3,5.094607919E-2,5.099170199E-2
1.275443250E0,1.791485003E-3,-1.517562196E-3,5.273252726E-2,5.278476906E-2
1.285398875E0,-3.168196883E-3,-9.696315974E-4,5.155408755E-2,5.166044522E-2
1.295354875E0,-6.786742015E-4,-5.331393331E-4,5.373362079E-2,5.374055117E-2
1.305311875E0,-7.042336510E-4,3.567897715E-3,5.496348441E-2,5.508366779E-2
1.315267875E0,-3.391895909E-3,-7.847733796E-4,5.531795323E-2,5.542740095E-2
1.325224875E0,5.271056434E-4,2.354754135E-3,5.337812379E-2,5.343263803E-2
1.335180875E0,-1.325593330E-4,3.691017628E-4,5.190912634E-2,5.191060783E-2
1.345136875E0,1.474751160E-3,3.434177488E-4,4.903925955E-2,4.906263144E-2
1.355093875E0,-2.299214248E-3,1.304552890E-3,4.948746413E-2,4.955802004E-2
1.365049875E0,3.126772353E-4,1.186503097E-3,4.799710959E-2,4.801279086E-2
1.375006875E0,-1.088944497E-3,2.059753984E-3,4.899233580E-2,4.904770487E-2
1.384962875E0,-6.533677224E-4,-3.215149045E-4,4.710060731E-2,4.710623600E-2
1.394918875E0,-4.602884874E-4,-3.042044118E-4,4.751126841E-2,4.751447181E-2
1.404875875E0,1.036041416E-3,-1.158298925E-3,4.598604888E-2,4.601229976E-2
1.414831875E0,-1.967358403E-4,1.154914498E-4,4.841405153E-2,4.841458901E-2
1.424788875E0,-1.245281892E-3,-1.336920075E-3,4.691807553E-2,4.695363558E-2
1.434744875E0,-1.170567703E-5,2.204551362E-3,4.561392590E-2,4.566717005E-2
1.444700875E0,1.317527611E-3,-3.524487838E-4,4.580194876E-2,4.582225015E-2
1.454657875E0,-2.738999669E-3,-1.341813244E-3,4.578197747E-2,4.588346155E-2
1.464613875E0,2.899748506E-4,2.120163292E-3,4.622955620E-2,4.627905622E-2
1.474570875E0,-1.254392206E-3,2.294866368E-3,4.884929955E-2,4.891925979E-2
1.484526875E0,1.336669317E-3,6.379764527E-4,4.794840515E-2,4.797127531E-2
1.494482875E0,1.058368944E-3,-3.820136189E-4,4.650763422E-2,4.652124375E-2
1.504439875E0,-8.215548005E-4,-6.306124851E-4,4.338262230E-2,4.339498291E-2
1.514395875E0,-1.301919110E-5,-3.762803972E-4,4.519117624E-2,4.519274462E-2
1.524352875E0,-2.187361242E-3,-8.208863437E-4,4.672066495E-2,4.677904378E-2
1.534308875E0,1.790602342E-3,-1.061636023E-3,5.004375428E-2,5.008703096E-2
1.544264875E0,-7.583538536E-5,1.965174451E-3,4.840108380E-2,4.844102161E-2
1.554221875E0,-1.085421536E-5,-1.442606561E-3,4.557893053E-2,4.560175588E-2
1.564177875E0,-7.127211429E-4,2.571092919E-3,4.265940189E-2,4.274275448E-2
1.574134875E0,-1.248016488E-3,3.766482696E-4,4.397447407E-2,4.399379251E-2
1.584090875E0,-1.500239014E-3,9.373044595E-4,4.604002461E-2,4.607399617E-2
1.594046875E0,-1.138581545E-3,2.701648511E-3,5.033064261E-2,5.041595837E-2
1.604003875E0,-5.587829510E-4,6.012255326E-4,4.558796436E-2,4.559535288E-2
1.613959875E0,-1.918326714E-3,1.886200160E-3,4.947058856E-2,4.954368639E-2
1.623916875E0,2.897408791E-3,3.817211837E-5,4.457601905E-2,4.467010084E-2
1.633872875E0,-1.597207971E-3,-8.800858632E-4,4.329822958E-2,4.333661626E-2
1.643828875E0,-6.916762795E-4,9.089587256E-4,4.518349469E-2,4.519792931E-2
1.653785875E0,1.774144592E-3,-2.236841246E-4,4.586392641E-2,4.589877307E-2
1.663741875E0,-9.953891858E-4,3.234765492E-3,4.482180253E-2,4.494939921E-2
1.673698875E0,-6.499770097E-4,-4.366692156E-4,4.710812494E-2,4.711463239E-2
1.683654875E0,-2.947303001E-4,1.546568237E-3,4.610425606E-2,4.613113012E-2
1.693611875E0,-2.247093711E-3,-1.655779779E-4,4.295719787E-2,4.301624920E-2
1.703567875E0,-1.025860198E-3,2.286117524E-5,4.433579743E-2,4.434767012E-2
1.713523875E0,-6.024176255E-4,-2.401947044E-3,4.291234165E-2,4.298373324E-2
1.723480875E0,-1.026582206E-3,-4.589324817E-4,4.409960657E-2,4.411394099E-2
1.733436875E0,2.522676950E-4,5.224421620E-4,4.777023941E-2,4.777376224E-2
1.743392875E0,-6.543467753E-4,8.837087080E-4,4.693973809E-2,4.695261572E-2
1.753349875E0,-6.985552609E-4,-3.517316654E-4,4.484862834E-2,4.485544737E-2
1.763305875E0,7.219094550E-4,-7.070675492E-4,4.383688793E-2,4.384853294E-2
1.773262875E0,-2.090388909E-3,-9.347591549E-5,4.389228299E-2,4.394213206E-2
1.783218875E0,9.636760806E-4,6.346320733E-4,4.116140306E-2,4.117757316E-2
1.793174875E0,6.241230294E-4,-1.869536936E-4,4.493696615E-2,4.494168898E-2
1.803131875E0,8.713556454E-4,3.894893453E-4,4.276505113E-2,4.277570058E-2
1.813087875E0,-9.228159906E-4,1.175804064E-4,4.364895821E-2,4.365887043E-2
1.823044875E0,3.033082467E-4,-1.201466657E-3,4.259155691E-2,4.260957918E-2
1.833000875E0,8.756215684E-4,9.628841653E-4,4.137103260E-2,4.139149909E-2
1.842956875E0,7.562008686E-4,6.832983345E-4,4.517042264E-2,4.518191915E-2
1.852913875E0,-3.617942566E-4,-2.464111894E-4,4.248782247E-2,4.249007734E-2
1.862869875E0,-1.967105083E-3,7.602386177E-5,4.246575758E-2,4.251136141E-2
1.872826875E0,-1.564168837E-3,4.113651812E-5,4.462425038E-2,4.465167453E-2
1.882782875E0,-1.981305657E-3,1.876810566E-3,4.248286784E-2,4.257043633E-2
1.892738875E0,-1.820717007E-3,9.292578325E-4,4.031345621E-2,4.036524844E-2
1.902695875E0,-8.071785560E-4,5.128253251E-4,4.378410801E-2,4.379455036E-2
1.912651875E0,1.404310460E-3,-1.583348960E-3,4.433911294E-2,4.438959358E-2
1.922608875E0,-2.028336748E-4,1.002173871E-3,4.646715522E-2,4.647840367E-2
1.932564875E0,-2.193453256E-4,-5.808090791E-4,4.551400989E-2,4.551824412E-2
1.942520875E0,1.816618373E-3,-1.387344673E-3,4.406780750E-2,4.412704936E-2
1.952477875E0,-1.014854410E-3,1.830019988E-3,4.172582179E-2,4.177826118E-2
1.962433875E0,-8.706386434E-4,-1.795035787E-3,4.093750194E-2,4.098608581E-2
1.972390875E0,-1.200338011E-3,-8.461512625E-4,4.296842963E-2,4.299351960E-2
1.982346875E0,5.293277791E-4,3.108391538E-4,4.259870946E-2,4.260313201E-2
1.992303875E0,1.561302692E-3,-1.449510455E-3,4.586880282E-2,4.591825147E-2
2.002259875E0,1.565830666E-3,-5.768919364E-4,3.980764374E-2,3.984260446E-2
2.012215875E0,3.330534091E-4,2.174153924E-3,4.301222414E-2,4.306842573E-2
2.022172875E0,-2.073621377E-3,2.585234120E-3,4.230226576E-2,4.243188695E-2
2.032128875E0,-9.281958919E-4,-2.044271678E-4,4.260746390E-2,4.261806328E-2
2.042085875E0,-1.438939944E-3,-7.085325196E-4,4.294395819E-2,4.297390036E-2
2.052041875E0,-1.190772746E-4,1.375124790E-3,4.393571988E-2,4.395739561E-2
2.061997875E0,9.926158236E-4,2.605281770E-5,4.453250393E-2,4.454357273E-2
2.071954875E0,7.143154508E-4,-1.904619858E-4,4.194364697E-2,4.195016142E-2
2.081910875E0,2.854188904E-3,1.305411570E-3,3.948045895E-2,3.960501398E-2
2.091867875E0,5.955620436E-4,-1.701829955E-3,3.746524453E-2,3.750860524E-2
2.101823875E0,8.505862206E-5,3.199893981E-4,3.535741568E-2,3.535896593E-2
2.111779875E0,8.480543038E-4,1.386319287E-3,3.890341520E-2,3.893734444E-2
2.121736875E0,-4.014800070E-4,5.829241127E-4,4.214106873E-2,4.214701247E-2
2.131692875E0,1.892833272E-3,-1.387814991E-3,4.325134680E-2,4.331498410E-2
2.141649875E0,-3.008298809E-4,7.653422654E-4,4.499547556E-2,4.500298955E-2
2.151605875E0,-7.804651977E-4,2.707932144E-4,4.469932988E-2,4.470696307E-2
2.161561875E0,7.162862457E-4,1.963580027E-3,4.186124355E-2,4.191339194E-2
2.171518875E0,-4.134128802E-3,-1.728078350E-4,3.431544453E-2,3.456400753E-2
2.181474875E0,-2.200084273E-3,5.236454308E-4,3.571327031E-2,3.578480475E-2
2.191431875E0,1.909018029E-4,1.303152181E-3,3.889894485E-2,3.892123533E-2
2.201387875E0,6.594012957E-4,3.366079181E-4,4.171979055E-2,4.172635904E-2
2.211343875E0,-1.647162368E-3,-7.281238213E-4,4.507111385E-2,4.510707940E-2
2.221300875E0,2.723729704E-3,2.114306204E-3,4.321829230E-2,4.335561997E-2
2.231256875E0,-2.430316526E-4,-2.950227819E-3,3.822380304E-2,3.833825802E-2
2.241213875E0,1.069402089E-3,7.415246218E-4,3.914955258E-2,3.917117495E-2
2.251169875E0,3.735179780E-4,1.698732376E-6,3.657720610E-2,3.657911323E-2
2.261125875E0,-1.366571058E-3,3.255952150E-3,3.938454390E-2,3.954252191E-2
2.271082875E0,3.501026658E-4,-4.554288462E-4,4.121120647E-2,4.121520988E-2
2.281039250E0,-9.361051489E-4,-1.411596313E-3,4.149851203E-2,4.153306391E-2
2.290996250E0,-4.918898921E-4,4.355721176E-4,4.060901329E-2,4.061432800E-2
2.300952250E0,2.372962423E-3,-5.506202579E-4,4.002577811E-2,4.009983849E-2
2.310908250E0,-5.248230882E-4,-1.896581613E-3,4.076054692E-2,4.080802184E-2
2.320865250E0,7.810234092E-5,1.041240059E-3,3.942034394E-2,3.943417042E-2
2.330821250E0,-9.299040539E-4,1.834360883E-4,3.681630641E-2,3.682850510E-2
2.340778250E0,-1.450927230E-4,1.739526168E-3,3.573344648E-2,3.577605624E-2
2.350734250E0,-4.625414731E-4,1.602905802E-3,3.714439273E-2,3.718183915E-2
2.360690250E0,-8.067138260E-4,-2.351730131E-3,3.991224617E-2,3.998960885E-2
2.370647250E0,-1.091938349E-3,8.914675564E-4,3.790395707E-2,3.793015957E-2
2.380603250E0,2.161372686E-3,3.986926749E-4,4.025230929E-2,4.031226725E-2
2.390560250E0,2.387475222E-3,-1.668718643E-3,3.944537416E-2,3.955277743E-2
2.400516250E0,1.638007816E-4,1.920836046E-3,3.406903520E-2,3.412353442E-2
2.410472250E0,-2.073787153E-3,1.231609844E-3,4.011787102E-2,4.019031016E-2
2.420429250E0,-1.882988261E-3,9.065186605E-4,3.979988769E-2,3.985471717E-2
2.430385250E0,-1.143428497E-3,9.352816269E-4,4.125104100E-2,4.127748253E-2
2.440342250E0,1.096760388E-5,-1.077137887E-3,4.052238166E-2,4.053669649E-2
2.450298250E0,-2.238871064E-3,-1.034793444E-3,3.821208701E-2,3.829160397E-2
2.460254250E0,1.356323250E-3,3.228386864E-3,3.441086039E-2,3.458857336E-2
2.470211250E0,-3.148147138E-3,-1.588739455E-3,3.802743182E-2,3.819058122E-2
2.480167250E0,1.095067244E-3,-7.751286030E-4,4.199709371E-2,4.201851826E-2
2.490124250E0,-1.629346400E-3,2.304018475E-3,3.959652036E-2,3.969694819E-2
2.500080250E0,3.535076976E-4,1.497337595E-3,4.337146878E-2,4.339874758E-2
2.510037250E0,-7.426494267E-4,-6.398493424E-4,4.196691513E-2,4.197836229E-2
2.519993250E0,-2.866555471E-3,1.889001578E-5,3.885077685E-2,3.895639048E-2
2.529949250E0,-1.469994080E-3,1.917295158E-4,3.673090041E-2,3.676080368E-2
2.539906250E0,1.999270171E-5,2.142529935E-3,3.515755013E-2,3.522277907E-2
2.549862250E0,-7.163713453E-4,9.763315320E-4,3.817011788E-2,3.818932194E-2
2.559819250E0,9.253667668E-5,-1.680218615E-3,3.988439217E-2,3.991987521E-2
2.569775250E0,-2.867300529E-3,-2.815267071E-4,4.264901578E-2,4.274621874E-2
2.579731250E0,3.114945022E-3,2.347381786E-3,4.305484891E-2,4.323115888E-2
2.589688250E0,-6.286604330E-4,1.089837402E-3,4.195868969E-2,4.197754876E-2
2.599644250E0,-7.570236921E-4,1.520725898E-3,4.102234542E-2,4.105750256E-2
2.609601250E0,-1.671553124E-3,1.242158934E-3,3.515726328E-2,3.521888996E-2
2.619557250E0,-1.710301032E-3,1.301545650E-3,3.605075926E-2,3.611476697E-2
2.629513250E0,1.487889211E-3,7.854253054E-4,3.785238788E-2,3.788976082E-2
2.639470250E0,-1.183536369E-4,7.632430643E-4,4.193856567E-2,4.194567723E-2
2.649426250E0,-4.165456630E-5,3.246199340E-4,4.138569534E-2,4.138698940E-2
2.659383250E0,-1.762178028E-3,6.244294345E-4,4.010038823E-2,4.014394499E-2
2.669339250E0,-7.107062265E-5,-1.420877874E-3,3.887347132E-2,3.889949508E-2
2.679295250E0,2.463723067E-4,-1.783136278E-3,3.535111994E-2,3.539692013E-2
2.689252250E0,-3.661550581E-3,2.096024342E-3,3.491090238E-2,3.516491683E-2
2.699208250E0,-3.249600763E-3,-5.656434223E-4,3.925905377E-2,3.939737504E-2
2.709165250E0,-1.273801783E-3,6.399694830E-4,4.289293662E-2,4.291661850E-2
2.719121250E0,8.179752622E-4,1.114461571E-3,4.293953627E-2,4.296178399E-2
2.729077250E0,-7.740623550E-4,1.495293342E-3,3.921058029E-2,3.924671555E-2
2.739034250E0,-1.099201385E-3,1.579244621E-3,3.494821489E-2,3.500114257E-2
2.748990250E0,-4.573795013E-4,-8.150283247E-5,3.393434733E-2,3.393752742E-2
2.758947250E0,1.223264728E-3,2.094114199E-3,3.570695221E-2,3.578921803E-2
2.768903250E0,6.741208490E-4,4.216488451E-4,3.744865954E-2,3.745709983E-2
2.778859250E0,1.268709661E-3,1.298946328E-3,4.207351059E-2,4.211267243E-2
2.788816250E0,-2.941481536E-3,1.712534577E-3,4.157123715E-2,4.171034459E-2
2.798772250E0,-2.193484921E-3,-9.475927800E-5,3.828437999E-2,3.834728291E-2
2.808729250E0,1.944534830E-3,-4.391055554E-4,3.589498997E-2,3.595030367E-2
2.818685250E0,-2.217827365E-3,3.846362233E-4,3.690859303E-2,3.697716786E-2
2.828641250E0,-1.155492617E-3,7.713278756E-4,3.860369697E-2,3.862868791E-2
2.838598250E0,-3.719050437E-4,5.244556814E-5,3.613015264E-2,3.613210475E-2
2.848554250E0,-7.791023236E-4,8.197026327E-4,3.956429660E-2,3.958045576E-2
2.858511250E0,-1.146470197E-3,6.256224588E-4,4.010571539E-2,4.012697602E-2
2.868467250E0,-3.419292625E-4,5.297483876E-4,4.075153172E-2,4.075640915E-2
2.878424250E0,-2.068099566E-3,-1.687801443E-3,3.815601394E-2,3.824927593E-2
2.888380250E0,-1.110426849E-3,-4.166746512E-4,3.587874398E-2,3.589834167E-2
2.898336250E0,1.523494953E-3,-1.263357699E-4,3.501963988E-2,3.505299095E-2
2.908293250E0,1.710981480E-3,-8.720206097E-4,4.048018157E-2,4.052570762E-2
2.918249250E0,-2.045926638E-3,2.440375276E-3,3.991416842E-2,4.004100508E-2
2.928206250E0,-3.401720896E-4,1.176439226E-3,3.898259625E-2,3.900182735E-2
2.938162250E0,-3.273554612E-4,-1.012948342E-3,4.109292477E-2,4.110671104E-2
2.948118250E0,1.578402705E-3,-1.602837816E-3,3.762522340E-2,3.769241144E-2
2.958075250E0,-2.631806303E-3,6.173923612E-4,3.751257807E-2,3.760985365E-2
2.968031250E0,6.084620254E-4,-2.207038924E-4,3.487338871E-2,3.487939472E-2
2.977988250E0,-4.129360896E-4,2.133017406E-4,3.487581387E-2,3.487891063E-2
2.987944250E0,8.323580259E-4,3.375805449E-3,3.822953254E-2,3.838731614E-2
2.997900250E0,-4.604295827E-4,1.011491753E-3,4.194703698E-2,4.196175667E-2
3.007857250E0,-2.183761215E-3,-1.679099165E-3,4.148684442E-2,4.157819677E-2
3.017813250E0,-1.055347966E-3,7.747570053E-4,4.277764261E-2,4.279767184E-2
3.027770250E0,-6.737171207E-4,1.110048965E-3,4.120664299E-2,4.122709703E-2
3.037726250E0,-1.730795251E-3,1.993387006E-3,3.897149116E-2,3.906080346E-2
3.047682250E0,1.480177976E-3,-6.428761408E-4,3.884259611E-2,3.887610435E-2
3.057639250E0,8.606814081E-4,-2.398397774E-4,4.128281772E-2,4.129248521E-2
3.067595250E0,1.937930007E-3,3.069071099E-4,3.974856809E-2,3.979696508E-2
3.077552250E0,2.294908976E-3,1.212750562E-3,3.774084896E-2,3.783000200E-2
3.087508250E0,-8.497517556E-4,-1.550811343E-3,3.743138909E-2,3.747313682E-2
3.097464250E0,-2.603325993E-3,1.720525324E-3,3.888178244E-2,3.900680094E-2
3.107421250E0,-1.776414458E-3,7.617874071E-4,3.862798214E-2,3.867631022E-2
3.117377250E0,1.741216634E-3,1.987018622E-3,4.019705951E-2,4.028378919E-2
3.127334250E0,-8.207443170E-4,1.582751051E-3,3.924604505E-2,3.928652154E-2
3.137290250E0,-8.482439443E-5,-1.818627119E-3,3.913073614E-2,3.917306614E-2
3.147247250E0,-8.384988178E-4,-1.553376205E-3,3.703589365E-2,3.707793786E-2
3.157203250E0,7.176445797E-5,1.188249327E-3,3.898026794E-2,3.899844068E-2
3.167159250E0,-8.701956831E-4,2.406645566E-3,3.963034227E-2,3.971288471E-2
3.177116250E0,1.821430633E-4,8.935900405E-4,3.732466325E-2,3.733580274E-2
3.187072250E0,-3.824471496E-4,8.970517665E-4,3.785782680E-2,3.787038444E-2
3.197029250E0,3.323950805E-4,-1.661693677E-4,3.517444432E-2,3.517640732E-2
3.206985250E0,8.599672001E-4,-1.120645553E-3,3.673452139E-2,3.676167096E-2
3.216941250E0,-1.000695862E-3,-4.732506350E-4,3.595112637E-2,3.596816433E-2
3.226898250E0,-6.672530435E-5,9.906888008E-4,3.365414962E-2,3.366879421E-2
3.236854250E0,-2.010506578E-4,2.569111064E-3,3.457888588E-2,3.467477616E-2
3.246811250E0,-1.496145967E-3,1.163494773E-3,3.619809076E-2,3.624767507E-2
3.256767250E0,2.808575518E-4,-1.130748540E-3,3.481794149E-2,3.483742991E-2
3.266723250E0,-2.728248015E-3,-2.990433946E-3,3.510849178E-2,3.534108413E-2
3.276680250E0,2.782076132E-3,-4.381584004E-4,3.552934527E-2,3.564079553E-2
3.286636208E0,-6.510945968E-5,-9.308429435E-4,3.538819775E-2,3.540049785E-2
3.296593208E0,2.515375381E-4,2.117482014E-3,3.456659615E-2,3.463230530E-2
3.306549208E0,-7.242446300E-4,-1.028510742E-3,3.568458930E-2,3.570675395E-2
3.316506208E0,1.919602626E-3,-1.798212528E-3,3.593458235E-2,3.603071816E-2
3.326462208E0,-7.049425039E-4,4.585506395E-4,3.697907180E-2,3.698863290E-2
3.336418208E0,1.497882186E-4,1.032428816E-3,3.367789835E-2,3.369405263E-2
3.346375208E0,6.882823072E-5,8.076587692E-4,3.190689534E-2,3.191719004E-2
3.356331208E0,-5.432721227E-4,-1.649854705E-3,2.998233028E-2,3.003260385E-2
3.366288208E0,8.881768445E-4,-2.014974132E-3,3.640614450E-2,3.647267931E-2
3.376244208E0,8.094827645E-4,-2.039348707E-3,3.388255835E-2,3.395352656E-2
3.386200208E0,-7.282244042E-5,1.757786609E-3,3.643173724E-2,3.647419081E-2
3.396157208E0,1.336799585E-3,1.150677912E-3,3.449761122E-2,3.454267322E-2
3.406113208E0,-3.468508366E-4,-2.285726368E-4,3.449042141E-2,3.449292276E-2
3.416070208E0,-7.825456560E-4,-6.455378607E-4,3.242281079E-2,3.243867686E-2
3.426026208E0,-1.727435272E-3,-1.326138154E-4,3.291362897E-2,3.295919584E-2
3.435982208E0,-1.812939765E-3,1.778170466E-3,2.953241393E-2,2.964139189E-2
3.445939208E0,2.827016870E-4,7.965294644E-4,3.184803203E-2,3.185924549E-2
3.455895208E0,-2.201848663E-3,-4.579713568E-4,3.304858878E-2,3.312502220E-2
3.465852208E0,-1.031655818E-3,-7.810126990E-4,3.417723626E-2,3.420172178E-2
3.475808208E0,-1.904782373E-3,1.699976623E-3,3.529701754E-2,3.538922949E-2
3.485764208E0,1.763455803E-3,-9.133834392E-4,3.367115557E-2,3.372967185E-2
3.495721208E0,-3.068170045E-4,9.717866778E-4,3.304829448E-2,3.306400270E-2
3.505677208E0,-7.824574132E-4,-1.153416000E-3,3.207064793E-2,3.210092002E-2
3.515634208E0,-2.045149449E-3,-1.049333252E-3,3.409598395E-2,3.417337938E-2
3.525590208E0,-1.841417514E-3,-2.270924859E-3,2.931107953E-2,2.945653241E-2
3.535547208E0,4.141881363E-4,3.922563046E-4,3.163611144E-2,3.164125414E-2
3.545503208E0,2.160489094E-4,8.244877681E-4,3.369553387E-2,3.370631187E-2
3.555459208E0,9.535407880E-4,-4.196939990E-4,3.149815276E-2,3.151537737E-2
3.565416208E0,-2.868095180E-3,-7.414035499E-4,3.131119534E-2,3.145101911E-2
3.575372208E0,-8.464567363E-4,5.741678178E-4,3.299377114E-2,3.300962120E-2
3.585329208E0,2.567715943E-3,-5.118688568E-4,2.862618491E-2,2.874567163E-2
3.595285208E0,4.463051446E-4,5.798591301E-4,3.109297715E-2,3.110158602E-2
3.605241208E0,-1.746807946E-3,6.006313488E-4,2.821303345E-2,2.827343900E-2
3.615198208E0,1.389427111E-3,-9.975014254E-4,3.116400167E-2,3.121090382E-2
3.625154208E0,-1.010347391E-3,2.856625244E-3,3.337895125E-2,3.351619752E-2
3.635111208E0,6.719608791E-5,1.618362963E-3,3.141347691E-2,3.145520856E-2
3.645067208E0,-2.723569050E-4,1.862840727E-3,3.543804586E-2,3.548801838E-2
3.655023208E0,-1.073480118E-3,1.095423475E-3,3.187198192E-2,3.190886309E-2
3.664980208E0,-1.693464117E-3,-1.298449934E-5,3.378786147E-2,3.383027596E-2
3.674936208E0,-1.215654658E-3,5.742432550E-4,3.165845573E-2,3.168699088E-2
3.684893208E0,1.163879759E-3,-1.919274218E-3,3.225979581E-2,3.233778990E-2
3.694849208E0,2.221119590E-3,7.194811478E-4,3.045193665E-2,3.054130762E-2
3.704806208E0,-1.305704704E-3,-5.721524358E-4,3.147193044E-2,3.150420018E-2
3.714762208E0,-6.255726330E-4,7.390175015E-4,3.253925219E-2,3.255365450E-2
3.724718208E0,-3.032803768E-3,-2.637338825E-3,3.341702744E-2,3.365785462E-2
3.734675208E0,-2.806785051E-4,-4.058778286E-4,3.295182437E-2,3.295551921E-2
3.744631208E0,6.993648130E-4,-1.554765739E-3,3.286021203E-2,3.290440612E-2
3.754588208E0,1.569422078E-3,-4.135072231E-6,3.107710555E-2,3.111670921E-2
3.764544208E0,-1.571776345E-3,-1.357287169E-3,3.059746698E-2,3.066786094E-2
3.774500208E0,-3.891938133E-3,1.719165593E-3,3.359664232E-2,3.386498321E-2
3.784457208E0,1.739848638E-3,-2.484101802E-3,2.963598818E-2,2.979076418E-2
3.794413208E0,-7.009725086E-4,-6.529688835E-4,3.121408075E-2,3.122877788E-2
3.804370208E0,7.070407737E-4,7.678279653E-4,3.177494183E-2,3.179208069E-2
3.814326208E0,2.070441842E-3,1.131704077E-3,2.883880585E-2,2.893517248E-2
3.824283208E0,-1.798066078E-3,2.579214051E-4,3.281303868E-2,3.286327848E-2
3.834239208E0,2.680165926E-4,-6.142416969E-4,3.243601322E-2,3.244293574E-2
3.844195208E0,8.640319575E-4,7.237307727E-4,3.151988611E-2,3.154003103E-2
3.854152208E0,-2.824210096E-4,-7.003815845E-4,3.137855977E-2,3.138764580E-2
3.864108208E0,8.206602652E-4,-4.035990685E-3,2.570922114E-2,2.603702663E-2
3.874065208E0,-1.622664975E-3,6.434647366E-4,3.103620186E-2,3.108525237E-2
3.884021208E0,6.609956035E-4,-7.549608126E-4,3.163860738E-2,3.165451560E-2
3.893977208E0,-1.361777540E-4,2.169688232E-3,3.403216973E-2,3.410153469E-2
3.903934208E0,9.626426036E-4,-1.364592463E-3,3.088085353E-2,3.092597465E-2
3.913890208E0,9.168016259E-4,-1.151333563E-3,2.934826724E-2,2.938514734E-2
3.923847208E0,-1.838828903E-4,2.876698039E-3,2.627684362E-2,2.643447967E-2
3.933803208E0,-2.140642609E-4,1.940850168E-3,2.842577547E-2,2.849276108E-2
3.943760208E0,-4.723907914E-4,2.761370502E-3,3.005722910E-2,3.018750307E-2
3.953716208E0,6.492156535E-5,1.001431607E-3,3.180095553E-2,3.181678571E-2
3.963672208E0,-6.325601134E-4,6.757276133E-4,3.255675733E-2,3.256991231E-2
3.973629208E0,-8.664131165E-4,-1.140228473E-3,3.482003510E-2,3.484947112E-2
3.983585208E0,1.769583789E-3,-1.134103164E-3,2.806439251E-2,2.814298747E-2
3.993542208E0,7.356503047E-4,-5.818735808E-4,2.522748709E-2,2.524491757E-2
4.003498208E0,-1.635894645E-3,-1.280421391E-3,2.279841900E-2,2.289287092E-2
4.013454208E0,-9.005272295E-4,-4.678322002E-4,2.497160062E-2,2.499221186E-2
4.023411208E0,2.896394581E-4,-2.007177100E-4,3.123402223E-2,3.123601004E-2
4.033367208E0,-1.636861591E-3,-2.314327285E-4,3.408650309E-2,3.412656692E-2
4.043324208E0,7.141770329E-4,1.785378903E-3,3.421460092E-2,3.426859412E-2
4.053280208E0,1.514808508E-3,9.880121797E-5,3.237033635E-2,3.240591122E-2
4.063236208E0,8.825741243E-4,2.058088779E-3,2.796972543E-2,2.805922677E-2
4.073193208E0,-8.595604450E-4,1.091367565E-3,2.566111088E-2,2.569868749E-2
4.083149208E0,1.931432402E-3,-2.542516217E-3,2.630292997E-2,2.649601753E-2
4.093106208E0,1.985839335E-4,4.690457135E-4,2.897330001E-2,2.897777688E-2
4.103062208E0,-4.674734548E-3,2.013679594E-3,3.257309645E-2,3.296838882E-2
4.113019208E0,1.427901210E-3,-1.075381413E-3,3.283405304E-2,3.288267608E-2
4.122975208E0,-6.070202217E-4,3.834981471E-4,3.020258620E-2,3.021111977E-2
4.132931208E0,3.577063326E-4,-5.703419447E-5,2.649544179E-2,2.649791770E-2
4.142888208E0,-9.076995775E-5,1.812504604E-3,2.412016690E-2,2.418834147E-2
4.152844208E0,-2.357681049E-3,-3.671525046E-4,2.397958934E-2,2.409801166E-2
4.162801208E0,-1.887632767E-3,1.636343077E-3,3.023562208E-2,3.033864892E-2
4.172757208E0,1.181364991E-3,-4.264600575E-4,3.313947842E-2,3.316327066E-2
4.182713208E0,6.860169815E-4,-1.549514942E-3,3.425135091E-2,3.429324503E-2
4.192670208E0,8.341546636E-4,1.742943190E-3,3.108914569E-2,3.114913554E-2
4.202626208E0,1.382706687E-4,-1.323686913E-3,2.668161690E-2,2.671478891E-2
4.212583208E0,-3.170797136E-4,2.229865640E-5,2.376304194E-2,2.376516777E-2
4.222539208E0,-1.333075576E-3,-2.954849042E-3,2.701582387E-2,2.720961159E-2
4.232496208E0,-1.762219472E-3,4.390096292E-4,3.351607919E-2,3.356524558E-2
4.242452208E0,-1.918280730E-3,-3.290465102E-4,3.358665109E-2,3.364299636E-2
4.252408208E0,1.370130340E-3,1.783044077E-3,2.978211269E-2,2.986688366E-2
4.262365208E0,8.303077193E-4,-1.969615929E-3,2.800019458E-2,2.808166117E-2
4.272321208E0,2.029000083E-3,3.089224920E-4,2.770829201E-2,2.778419911E-2
4.282277750E0,-8.943518624E-4,-1.013070345E-3,2.880098671E-2,2.883267265E-2
4.292233750E0,4.310440272E-4,3.172950819E-4,3.166013211E-2,3.166465601E-2
4.302189750E0,-2.334648743E-3,2.202813514E-3,3.311022371E-2,3.326544583E-2
4.312146750E0,-3.110882826E-3,-3.155888990E-4,3.281431645E-2,3.296295728E-2
4.322102750E0,1.088389428E-3,-2.603244036E-3,2.884860709E-2,2.898626575E-2
4.332059750E0,-1.857917057E-3,-2.003658563E-3,2.361200377E-2,2.376958615E-2
4.342015750E0,-1.718633808E-3,4.373947158E-4,2.331825718E-2,2.338559673E-2
4.351972750E0,-2.097944031E-3,8.308012038E-4,2.691993862E-2,2.701434240E-2
4.361928750E0,6.634879392E-4,6.222752854E-4,3.071947023E-2,3.073293501E-2
4.371884750E0,4.061962012E-3,8.499175310E-4,3.565322980E-2,3.589393668E-2
4.381841750E0,-1.960776746E-3,-4.350580275E-4,3.459515795E-2,3.465341072E-2
4.391797750E0,1.669272315E-4,2.597756684E-4,3.213649616E-2,3.213797961E-2
4.401754750E0,-9.625193197E-4,-3.237221390E-4,2.790526673E-2,2.792373812E-2
4.411710750E0,2.072421601E-3,6.679445505E-5,2.271803468E-2,2.281246354E-2
4.421666750E0,7.584993728E-5,-1.506600529E-3,2.707603201E-2,2.711802183E-2
4.431623750E0,-9.793958161E-4,1.240011305E-3,3.154186532E-2,3.158142036E-2
4.441579750E0,-1.756506274E-3,-2.039549872E-4,3.321326151E-2,3.326030145E-2
4.451536750E0,-9.377992246E-4,1.897445880E-3,3.563759848E-2,3.570039487E-2
4.461492750E0,-1.082245726E-4,9.275218472E-4,3.179252520E-2,3.180623631E-2
4.471449750E0,1.701993984E-3,3.714247607E-3,2.851604670E-2,2.880724455E-2
4.481405750E0,7.667113096E-7,8.598715067E-4,2.446085215E-2,2.447596101E-2
4.491361750E0,-4.642282147E-4,-1.536170021E-4,2.604012564E-2,2.604471634E-2
4.501318750E0,-2.593159210E-3,-1.244979911E-3,2.571042627E-2,2.587084206E-2
4.511274750E0,-2.141697332E-4,-1.645412296E-3,3.171845153E-2,3.176182327E-2
4.521231750E0,2.103046747E-3,9.445119649E-4,3.383992985E-2,3.391836907E-2
4.531187750E0,5.238573067E-5,-4.319995642E-4,3.227137402E-2,3.227430788E-2
4.541144750E0,-9.089242667E-5,1.073218882E-3,3.006307781E-2,3.008236539E-2
4.551100750E0,-7.981141098E-4,1.203366555E-3,2.687467635E-2,2.691344099E-2
4.561056750E0,-5.531033967E-4,2.065673470E-5,2.481712028E-2,2.482329167E-2
4.571013750E0,5.649958039E-4,-1.041397452E-3,2.438095585E-2,2.440972628E-2
4.580969750E0,5.380979273E-4,1.079544425E-3,2.788940445E-2,2.791547682E-2
4.590926750E0,-8.554381784E-4,-6.292946637E-5,3.168573231E-2,3.169734005E-2
4.600882750E0,-2.928442555E-3,6.718365476E-4,3.600803763E-2,3.613316916E-2
4.610838750E0,5.458801752E-4,9.332131594E-5,2.917988226E-2,2.918513702E-2
4.620795750E0,9.367545135E-5,2.051740885E-4,2.852527425E-2,2.852616592E-2
4.630751750E0,-4.944815300E-4,-2.750763670E-4,2.478731051E-2,2.479376820E-2
4.640708750E0,-1.661137212E-4,-5.834698677E-4,2.622701600E-2,2.623403132E-2
4.650664750E0,1.412790036E-3,3.917245194E-4,3.188413382E-2,3.191782281E-2
4.660621750E0,-2.120692050E-3,-4.996350035E-4,3.684960306E-2,3.691395692E-2
4.670577750E0,1.442704583E-3,-1.076092012E-3,3.509511426E-2,3.514123526E-2
4.680533750E0,-1.125115436E-3,-8.923346177E-4,3.202395514E-2,3.205613589E-2
4.690490750E0,9.579063626E-4,-5.560610443E-4,2.728349715E-2,2.730597014E-2
4.700446750E0,-1.667704200E-3,1.462082379E-3,2.244719490E-2,2.255649532E-2
4.710403750E0,-1.762275351E-3,2.788733691E-4,2.487387881E-2,2.493778722E-2
4.720359750E0,-1.034966204E-3,-1.114513725E-5,2.825050056E-2,2.826945456E-2
4.730316750E0,2.628052607E-5,-8.859559894E-4,3.111314029E-2,3.112576275E-2
4.740272750E0,-1.240585232E-3,6.239581853E-5,3.350839019E-2,3.353140555E-2
4.750228750E0,7.477777544E-4,9.288396686E-4,3.496941552E-2,3.498974044E-2
4.760185750E0,-1.049855957E-3,3.549279645E-4,2.847662568E-2,2.849818207E-2
4.770141750E0,-1.526909182E-3,7.815733552E-4,2.978797257E-2,2.983731922E-2
4.780098750E0,-1.050203340E-3,-1.031290740E-4,2.681615204E-2,2.683690691E-2
4.790054750E0,-2.426516498E-3,2.334797755E-4,2.865535393E-2,2.875885610E-2
4.800010750E0,-3.046500264E-3,-4.687961191E-4,2.903192490E-2,2.919509543E-2
4.809967750E0,-5.879292730E-4,7.066968828E-5,3.168684244E-2,3.169237509E-2
4.819923750E0,-2.523514675E-3,-2.611605451E-4,3.144076467E-2,3.154295506E-2
4.829880750E0,8.282857016E-5,9.748218581E-4,3.048950434E-2,3.050519649E-2
4.839836750E0,1.270370558E-4,-2.001260407E-3,2.779571712E-2,2.786795780E-2
4.849793750E0,-4.262635484E-4,1.885171048E-3,2.889689058E-2,2.896145465E-2
4.859749750E0,-3.339229152E-3,2.191700973E-3,3.018585965E-2,3.044897580E-2
4.869705750E0,-3.802501597E-4,1.310302876E-3,3.035605326E-2,3.038669863E-2
4.879662750E0,5.236268044E-4,-1.916383393E-3,3.081837669E-2,3.088234208E-2
4.889618750E0,1.388890902E-3,1.158490777E-3,2.803264186E-2,2.809092609E-2
4.899575750E0,-1.466877293E-4,-9.105196223E-4,2.770480886E-2,2.772015507E-2
4.909531750E0,2.069627168E-3,2.360019833E-3,2.871344984E-2,2.888451578E-2
4.919488750E0,2.136701951E-4,2.115542069E-3,2.549022809E-2,2.557875879E-2
4.929444750E0,1.249962137E-3,-4.697609693E-4,2.968437597E-2,2.971439479E-2
4.939400750E0,-1.141089015E-4,-9.155748412E-4,3.417020664E-2,3.418266110E-2
4.949357750E0,1.015424845E-3,8.493196219E-4,3.423728049E-2,3.426286337E-2
4.959313750E0,-3.039049916E-4,1.067965291E-3,3.249318153E-2,3.251214779E-2
4.969270750E0,-2.251835540E-4,7.011257112E-4,3.009880707E-2,3.010781413E-2
4.979226750E0,6.997323362E-4,-1.938600093E-3,2.864897996E-2,2.872301949E-2
4.989183750E0,6.779748946E-5,-1.719190739E-3,2.945115790E-2,2.950137141E-2
4.999139750E0,2.228420228E-3,-9.958762676E-4,2.961760387E-2,2.971800944E-2
5.009095750E0,-2.847363940E-3,1.616179943E-3,3.189991415E-2,3.206749197E-2
5.019052750E0,-2.843376715E-4,-1.844331622E-3,3.211802989E-2,3.217219687E-2
5.029008750E0,1.278666314E-4,-7.955143228E-4,2.801456675E-2,2.802615106E-2
5.038965750E0,5.859301891E-4,6.055748090E-4,3.107613698E-2,3.108755900E-2
5.048921750E0,3.386202734E-4,7.896916941E-4,3.087986261E-2,3.089181431E-2
5.058877750E0,-4.613932688E-4,-1.882212237E-4,2.704491094E-2,2.704950126E-2
5.068834750E0,-2.909775125E-3,-3.434717655E-4,2.942414582E-2,2.956966556E-2
5.078790750E0,-2.896725433E-3,8.128723130E-4,3.057329729E-2,3.072097471E-2
5.088747750E0,-1.380566973E-4,-1.300814562E-3,3.052195907E-2,3.054997812E-2
5.098703750E0,9.943193290E-4,-2.696393058E-4,3.113714606E-2,3.115418496E-2
5.108660750E0,-2.000688110E-4,1.854840666E-4,3.084615991E-2,3.084736638E-2
5.118616750E0,-4.388155881E-3,9.452840313E-4,2.898620814E-2,2.933171895E-2
5.128572750E0,3.152294084E-6,4.518637434E-4,2.631313726E-2,2.631701699E-2
5.138529750E0,-5.257516168E-4,-1.406223513E-3,2.873528004E-2,2.877447129E-2
5.148485750E0,-2.847658470E-5,-3.144694492E-4,2.866740152E-2,2.866914041E-2
5.158442750E0,1.579446252E-4,6.397413090E-4,3.052042797E-2,3.052754066E-2
5.168398750E0,-1.311480999E-3,9.201448411E-4,2.936137468E-2,2.940505011E-2
5.178355750E0,-2.730474807E-5,-1.595010981E-4,3.013822064E-2,3.013865507E-2
5.188311750E0,4.890365526E-4,2.450719476E-3,2.865697443E-2,2.876573250E-2
5.198267750E0,-9.237704799E-4,1.954839565E-3,2.967856079E-2,2.975721291E-2
5.208224750E0,1.502844971E-4,1.644724980E-4,2.794753760E-2,2.794842562E-2
5.218180750E0,-1.174638048E-3,7.756678388E-4,2.806045488E-2,2.809573923E-2
5.228137750E0,-3.956621513E-4,-4.995539784E-4,2.839351073E-2,2.840066116E-2
5.238093750E0,-4.547843710E-4,-1.068672165E-3,2.789683267E-2,2.792099859E-2
5.248050750E0,-1.763100503E-3,5.544805899E-4,3.132952377E-2,3.138399324E-2
5.258006750E0,2.130441135E-3,2.263793722E-4,3.556581214E-2,3.563028235E-2
5.267962750E0,-8.684529457E-4,1.557417214E-3,3.189884871E-2,3.194865112E-2
5.277919750E0,1.519869780E-3,-2.077265643E-3,2.825005352E-2,2.836706825E-2
5.287876458E0,1.623302698E-3,-2.033812925E-3,2.956056595E-2,2.967488106E-2
5.297833458E0,-1.335847192E-4,-3.088956699E-3,2.873738110E-2,2.890322769E-2
5.307789458E0,1.329657272E-3,8.494043723E-4,3.046299145E-2,3.050382475E-2
5.317745458E0,1.652432373E-3,4.536584020E-4,2.902781591E-2,2.907834994E-2
5.327702458E0,-1.876234077E-3,1.982003450E-4,2.794434875E-2,2.800796610E-2
5.337658458E0,-1.410180936E-3,1.456543803E-3,2.321057767E-2,2.329894946E-2
5.347615458E0,-2.923908178E-4,-1.613581553E-3,2.362702042E-2,2.368386015E-2
5.357571458E0,-1.780032413E-3,-1.493739896E-3,2.474927902E-2,2.485812918E-2
5.367528458E0,1.814753981E-3,1.321850345E-3,2.788710594E-2,2.797733544E-2
5.377484458E0,4.655966768E-4,-8.523538709E-4,2.943573147E-2,2.945174994E-2
5.387440458E0,-1.405238174E-3,1.877391711E-3,2.776551992E-2,2.786437493E-2
5.397397458E0,-2.905130386E-3,-7.679266855E-4,2.651223913E-2,2.668198489E-2
5.407353458E0,1.905699959E-3,-5.992408842E-4,2.346007526E-2,2.354497639E-2
5.417310458E0,-2.252559643E-3,9.451247752E-5,2.174233645E-2,2.185891470E-2
5.427266458E0,-1.990026794E-4,-5.137836561E-4,2.423582226E-2,2.424208441E-2
5.437223458E0,-1.893039560E-3,7.568104193E-4,3.012273833E-2,3.019164993E-2
5.447179458E0,-2.940882696E-3,1.678401604E-4,2.753001824E-2,2.768716066E-2
5.457135458E0,7.566498825E-4,1.365995966E-3,2.735931054E-2,2.740383800E-2
5.467092458E0,1.650850754E-4,3.257161006E-4,2.742809802E-2,2.743052871E-2
5.477048458E0,7.054279558E-5,-1.106798649E-3,2.563339472E-2,2.565737524E-2
5.487005458E0,4.002845380E-4,5.811648443E-4,2.996482328E-2,2.997313154E-2
5.496961458E0,-1.723586349E-3,1.503417268E-3,2.574131638E-2,2.584272397E-2
5.506918458E0,-9.736702777E-4,2.455422655E-4,2.270988747E-2,2.273207676E-2
5.516874458E0,-1.150770579E-3,-1.949967816E-3,2.592671663E-2,2.602539687E-2
5.526830458E0,1.609881641E-3,-9.665284306E-4,2.476429939E-2,2.483538646E-2
5.536787458E0,-5.174514372E-4,-1.262405887E-3,2.382393554E-2,2.386296983E-2
5.546743458E0,9.592007846E-4,1.013317145E-3,2.788313106E-2,2.791802062E-2
5.556700458E0,3.794305958E-4,1.610664651E-3,2.550599724E-2,2.555961861E-2
5.566656458E0,2.589359647E-4,-1.645786688E-4,2.591241151E-2,2.591422784E-2
5.576613458E0,-2.742288634E-4,4.045385867E-4,2.508283779E-2,2.508759862E-2
5.586569458E0,-1.069299644E-3,-4.474362358E-4,2.214245498E-2,2.217277415E-2
5.596525458E0,3.911779495E-4,1.687088050E-3,2.524264157E-2,2.530198094E-2
5.606482458E0,-1.572773326E-4,-5.904650316E-4,2.563273534E-2,2.564001767E-2
5.616438458E0,-2.012448385E-5,-1.353993081E-3,2.643567696E-2,2.647033658E-2
5.626395458E0,-5.478074308E-4,1.832180656E-3,2.848637104E-2,2.855048711E-2
5.636351458E0,-1.307074679E-3,-2.890266478E-4,2.716384083E-2,2.719680550E-2
5.646308458E0,2.411267953E-3,4.698196426E-4,2.622297779E-2,2.633779618E-2
5.656264458E0,-9.744085837E-4,-9.789392352E-4,2.517955378E-2,2.521740912E-2
5.666220458E0,-1.954548992E-3,-2.210671082E-3,2.570936084E-2,2.587814837E-2
5.676177458E0,1.071601058E-3,7.787272334E-4,2.541721240E-2,2.545170782E-2
5.686133458E0,-1.498113154E-3,-1.162600704E-3,2.614098787E-2,2.620967818E-2
5.696090458E0,-7.950386498E-4,5.894927308E-4,2.786378935E-2,2.788136197E-2
5.706046458E0,-1.121812966E-4,-2.614443190E-3,2.668417990E-2,2.681218669E-2
5.716003458E0,2.100905636E-3,-1.480202191E-3,2.546232194E-2,2.559169087E-2
5.725959458E0,3.163843649E-3,1.954876818E-3,2.291912213E-2,2.321890629E-2
5.735915458E0,1.840252546E-3,-1.347975805E-3,2.226398513E-2,2.238054070E-2
5.745872458E0,1.542769023E-3,4.780385643E-5,2.345858514E-2,2.350930961E-2
5.755828458E0,-8.926917799E-4,-1.379384659E-3,2.305031940E-2,2.310880406E-2
5.765785458E0,2.119517885E-4,-1.488691196E-4,2.721035853E-2,2.721159122E-2
5.775741458E0,6.068428047E-5,4.458148032E-4,2.687932178E-2,2.688308712E-2
5.785698458E0,1.103621442E-3,7.962509990E-4,2.465756983E-2,2.469509558E-2
5.795654458E0,-1.678316854E-3,3.629541025E-4,2.324050292E-2,2.330385074E-2
5.805610458E0,-6.239335053E-4,-3.001298755E-4,2.313767374E-2,2.314803052E-2
5.815567458E0,-2.044463763E-3,5.230531096E-4,2.230650187E-2,2.240610279E-2
5.825523458E0,5.436799256E-4,-1.444648951E-4,2.812227234E-2,2.812789824E-2
5.835480458E0,-3.375601955E-4,6.012199447E-4,2.949300036E-2,2.950105901E-2
5.845436458E0,5.707379896E-4,-5.976855755E-5,2.713479102E-2,2.714085845E-2
5.855393458E0,-1.022098586E-3,-1.630987972E-4,2.315656096E-2,2.317968080E-2
5.865349458E0,1.442311332E-4,-2.394514158E-4,1.964407042E-2,1.964605920E-2
5.875305458E0,-5.657109432E-5,1.341933385E-3,2.039854228E-2,2.044271295E-2
5.885262458E0,7.792540127E-4,1.070856117E-3,2.340930328E-2,2.344673644E-2
5.895218458E0,-4.261843860E-3,-8.143959567E-4,2.678858489E-2,2.713770134E-2
5.905175458E0,-1.075211912E-5,-2.363063395E-4,2.812157571E-2,2.812257060E-2
5.915131458E0,-4.887895193E-4,-7.652100176E-4,2.571221069E-2,2.572823818E-2
5.925088458E0,1.338523347E-3,5.118359346E-3,2.513225377E-2,2.568305719E-2
5.935044458E0,-3.089248203E-3,2.666125074E-4,2.019901574E-2,2.043562510E-2
5.945001458E0,1.059839269E-3,5.127862096E-4,1.979316026E-2,1.982814671E-2
5.954957458E0,2.239619615E-3,-5.021449178E-4,2.242782712E-2,2.254496562E-2
5.964913458E0,1.096016029E-3,1.201996580E-3,2.794548497E-2,2.799278794E-2
5.974870458E0,4.818910966E-4,7.234262303E-4,2.703947946E-2,2.705344736E-2
5.984826458E0,5.589887733E-4,6.827544421E-4,2.476199344E-2,2.477771057E-2
5.994783458E0,-1.380325062E-3,-8.046207950E-4,2.483496442E-2,2.488630487E-2
6.004739458E0,2.107098699E-3,-6.121937186E-4,2.287669480E-2,2.298168425E-2
6.014696458E0,1.518568024E-5,2.048569731E-3,2.245697752E-2,2.255022633E-2
6.024652458E0,2.155994065E-3,-1.277410425E-3,2.710547298E-2,2.722107186E-2
6.034608458E0,-1.963761169E-4,-1.804715954E-3,2.974892408E-2,2.980426223E-2
6.044565458E0,1.156760613E-3,9.316010401E-4,2.811823413E-2,2.815743358E-2
6.054521458E0,-1.167113660E-3,1.609375700E-3,2.422735840E-2,2.430878729E-2
6.064478458E0,-2.571846126E-3,3.236262128E-4,2.031232789E-2,2.047705523E-2
6.074434458E0,-2.520713257E-3,2.368073910E-4,1.940046251E-2,1.956496917E-2
6.084391458E0,2.604576293E-4,8.086673915E-6,2.141110972E-2,2.141269537E-2
6.094347458E0,1.553688548E-3,-1.181466505E-4,2.607510239E-2,2.612161694E-2
6.104303458E0,4.580926616E-4,-9.919861332E-4,3.010178357E-2,3.012160785E-2
6.114260458E0,6.501004100E-5,-5.432432517E-4,2.353336290E-2,2.353972193E-2
6.124216458E0,3.568222746E-5,2.098956145E-3,2.227951586E-2,2.237819736E-2
6.134173458E0,-4.442194477E-4,-5.785860121E-4,2.193756402E-2,2.194968810E-2
6.144129458E0,-2.793113235E-4,1.121816225E-3,2.024948969E-2,2.028246335E-2
6.154086458E0,-5.458937958E-4,3.436369821E-3,2.183140442E-2,2.210694136E-2
6.164042458E0,2.211899031E-3,-2.109611407E-3,2.582370490E-2,2.600397455E-2
6.173998458E0,1.882199664E-3,1.608161256E-3,2.543168515E-2,2.555189754E-2
6.183955458E0,3.843227169E-4,-1.845050603E-3,2.583032101E-2,2.589898452E-2
6.193911458E0,-1.882568467E-4,-8.564852178E-4,2.404014766E-2,2.405613658E-2
6.203868458E0,-6.138649769E-4,-4.120413214E-4,2.071470395E-2,2.072789347E-2
6.213824458E0,-1.632257830E-3,-3.813300282E-5,2.320236340E-2,2.325973747E-2
6.223781458E0,3.878783900E-4,-4.610829055E-4,2.361148223E-2,2.361916892E-2
6.233737458E0,3.665732220E-4,-4.981011152E-4,2.685920894E-2,2.686632810E-2
6.243693458E0,-6.372169591E-4,-1.227664761E-3,2.573554218E-2,2.577268588E-2
6.253650458E0,5.031485343E-4,7.619829848E-4,2.574034035E-2,2.575653117E-2
6.263606458E0,1.086818520E-4,1.507270150E-3,2.104056627E-2,2.109476484E-2
6.273563458E0,-6.897337735E-4,9.477408603E-4,2.415379882E-2,2.418222369E-2
6.283518458E0,1.841547433E-3,9.047705680E-5,2.236771956E-2,2.244358174E-2
6.293475458E0,3.325993428E-3,5.152514204E-4,2.539706230E-2,2.561910400E-2
6.303431458E0,2.308875322E-3,-1.305154525E-3,2.593233436E-2,2.606761015E-2
6.313388458E0,4.406679654E-4,-1.022326760E-3,2.428517118E-2,2.431067419E-2
6.323344458E0,4.492592998E-4,-1.290359534E-3,2.559449896E-2,2.563094299E-2
6.333300458E0,1.893348526E-4,-1.501814462E-3,2.316169813E-2,2.321110843E-2
6.343257458E0,3.312681336E-3,8.583758026E-4,2.414218336E-2,2.438351255E-2
6.353213458E0,1.369106467E-3,-1.354178414E-3,2.267451584E-2,2.275614028E-2
6.363170458E0,-1.416294603E-3,1.476093195E-3,2.384927869E-2,2.393685099E-2
6.373126458E0,1.017301925E-3,-1.137265936E-3,2.729940414E-2,2.734201426E-2
6.383083458E0,-1.015977468E-4,1.684712246E-3,2.373901010E-2,2.379893228E-2
6.393039458E0,1.746902242E-3,-2.743396908E-5,2.612733096E-2,2.618568012E-2
6.402995458E0,1.130356686E-3,2.830498852E-3,2.210440487E-2,2.231354173E-2
6.412952458E0,2.515134402E-4,-7.794154808E-4,2.681287378E-2,2.682537880E-2
6.422908458E0,-1.040106872E-3,1.389437355E-3,2.607700229E-2,2.613469737E-2
6.432865458E0,-1.727734925E-3,-2.061752602E-3,2.806451917E-2,2.819313973E-2
6.442821458E0,4.262733273E-4,6.439499557E-4,2.690094337E-2,2.691202584E-2
6.452778458E0,-1.776160672E-3,-4.998780787E-4,2.214373648E-2,2.222047907E-2
6.462734458E0,-1.622403506E-4,4.291133955E-4,2.072592452E-2,2.073100112E-2
6.472690458E0,-1.891430933E-3,-1.452409662E-3,2.191315964E-2,2.204254001E-2
6.482647458E0,2.362518338E-3,-7.939618081E-4,2.136373520E-2,2.150862734E-2
6.492603458E0,-1.884158235E-3,-7.185935974E-4,2.750392258E-2,2.757774803E-2
6.502560458E0,2.627720358E-3,1.644613221E-4,3.131037205E-2,3.142087459E-2
6.512516458E0,-5.861022510E-5,7.162680849E-4,2.939262986E-2,2.940141434E-2
6.522473458E0,8.543485310E-4,-9.469455108E-4,2.608823031E-2,2.611938701E-2
6.532429458E0,-1.196818193E-3,1.019000076E-3,2.246952429E-2,2.252443688E-2
6.542386458E0,8.001152892E-4,-1.812260598E-5,1.976208761E-2,1.977828657E-2
6.552342458E0,1.180681051E-3,-7.305182517E-4,2.146597952E-2,2.151083311E-2
6.562298458E0,-1.743337605E-3,1.908278093E-3,2.541258186E-2,2.554368940E-2
6.572255458E0,-4.066971596E-4,-6.683301181E-4,2.842115611E-2,2.843192189E-2
6.582211458E0,3.435770515E-3,-6.355214864E-4,2.721581981E-2,2.743919194E-2
6.592168458E0,-6.148973480E-4,2.107001841E-3,2.166739106E-2,2.177827796E-2
6.602124458E0,-1.873318572E-3,2.012485638E-3,2.265722677E-2,2.282343852E-2
6.612081458E0,-4.152376205E-4,1.181579195E-3,2.403061837E-2,2.406323276E-2
6.622037458E0,1.752351061E-3,-1.470545307E-3,2.513769269E-2,2.524156951E-2
6.631993458E0,-1.869281754E-3,-6.220620126E-4,2.759233117E-2,2.766257246E-2
6.641950458E0,-4.628391471E-4,-6.307167932E-4,2.542639524E-2,2.543842760E-2
6.651906458E0,-1.895353198E-3,1.989305019E-5,2.491639927E-2,2.498839155E-2
6.661863458E0,1.571792644E-3,-5.879532546E-5,1.932347938E-2,1.938738880E-2
6.671819458E0,1.632246422E-3,-6.382986903E-4,1.887819916E-2,1.895937913E-2
6.681776458E0,-7.347187493E-4,8.169980720E-4,2.093361318E-2,2.096242969E-2
6.691732458E0,3.917985596E-4,6.279135123E-4,2.263111249E-2,2.264321165E-2
6.701688458E0,4.607037408E-4,-7.382612675E-4,2.505272999E-2,2.506783911E-2
6.711645458E0,1.941784285E-5,4.713470116E-4,2.489320561E-2,2.489767521E-2
6.721601458E0,3.532547038E-3,2.407897264E-4,2.497555315E-2,2.522528739E-2
6.731558458E0,-5.552987568E-5,-1.952589490E-3,2.532735467E-2,2.540257042E-2
6.741514458E0,-1.963708317E-3,7.451940328E-4,2.335479856E-2,2.344905286E-2
6.751471458E0,-1.306706807E-3,-2.109182067E-3,2.276224270E-2,2.289707022E-2
6.761427458E0,4.435550654E-4,-2.981927246E-4,2.183534205E-2,2.184188230E-2
6.771384458E0,7.713901578E-4,1.646181569E-3,2.490916103E-2,2.497541311E-2
6.781340458E0,2.689245390E-3,4.608267918E-4,2.663252130E-2,2.677191799E-2
6.791296458E0,2.448633313E-5,-2.731401473E-4,2.669138089E-2,2.669278964E-2
6.801253458E0,1.146644354E-5,1.420609653E-3,2.625281364E-2,2.629122453E-2
6.811209458E0,6.950998213E-4,-1.725116745E-3,2.531830966E-2,2.538653178E-2
6.821166458E0,3.431309946E-3,-1.014064066E-3,2.005588263E-2,2.037254628E-2
6.831122458E0,-2.441226505E-3,5.729142576E-4,2.372252569E-2,2.385468597E-2
6.841079458E0,-2.530454658E-4,-1.817801036E-3,2.452385798E-2,2.459243873E-2
6.851035458E0,7.240683772E-4,-1.170652919E-3,2.372251451E-2,2.376241566E-2
6.860991458E0,1.764283748E-3,2.707680687E-4,2.580652758E-2,2.586818274E-2
6.870948458E0,-4.948757123E-4,-6.384355947E-4,2.504007146E-2,2.505309723E-2
6.880904458E0,-1.185776899E-3,-1.466964372E-3,2.524267137E-2,2.531305018E-2
6.890861458E0,7.319264114E-6,-9.490363300E-5,2.406395972E-2,2.406414797E-2
6.900817458E0,-4.924908280E-4,-1.797882840E-3,2.538624778E-2,2.545459696E-2
6.910774458E0,3.514648415E-4,-3.983918577E-4,2.262135223E-2,2.262758980E-2
6.920730458E0,2.738412004E-4,2.525169402E-4,2.625900134E-2,2.626164324E-2
6.930687458E0,1.223790809E-3,-1.824748702E-3,2.320967987E-2,2.331344272E-2
6.940643458E0,2.302951179E-5,-4.030019045E-5,2.669416741E-2,2.669420776E-2
6.950599458E0,7.719104178E-4,-2.008375712E-3,2.446723357E-2,2.456165583E-2
6.960556458E0,-2.540508285E-4,4.069292918E-4,2.443019673E-2,2.443490630E-2
6.970512458E0,2.495396882E-3,-2.325740643E-3,2.054943889E-2,2.083063883E-2
6.980469458E0,-1.419469947E-3,1.315590926E-3,2.461317554E-2,2.468914913E-2
6.990425458E0,-1.484184759E-3,1.291530207E-4,2.566778287E-2,2.571098136E-2
7.000382458E0,1.456608297E-3,-2.218075097E-4,2.639820427E-2,2.643929074E-2
7.010338458E0,5.116057582E-3,-2.421045676E-3,2.395369112E-2,2.461330587E-2
7.020294458E0,-3.947906662E-4,-2.416986972E-3,2.307938784E-2,2.320896010E-2
7.030251458E0,1.292055589E-3,-9.967228398E-4,2.402348071E-2,2.407883904E-2
7.040207458E0,1.483332948E-3,-5.420781672E-4,2.239471674E-2,2.245033325E-2
7.050164458E0,-3.886029590E-4,5.010822788E-4,2.184557170E-2,2.185477290E-2
7.060120458E0,1.997016370E-4,3.530550748E-4,2.381948009E-2,2.382293350E-2
7.070077458E0,2.223970369E-3,3.613810986E-5,2.354491130E-2,2.364973992E-2
7.080033458E0,2.735082060E-3,7.253531367E-4,2.349347994E-2,2.366327134E-2
7.089990458E0,-6.402081344E-4,1.713385805E-3,2.511401474E-2,2.518053403E-2
7.099946458E0,-2.320647473E-3,1.944025047E-3,2.393986285E-2,2.413051328E-2
7.109902458E0,-1.043928089E-3,4.696995020E-4,2.402721718E-2,2.405447087E-2
7.119859458E0,2.169554122E-3,7.180487737E-4,2.030129731E-2,2.042951863E-2
7.129815458E0,-3.340259893E-3,-1.471868716E-3,2.196950093E-2,2.227066916E-2
7.139772458E0,-6.203469820E-5,-1.164978370E-3,2.122860402E-2,2.126063620E-2
7.149728458E0,-3.121057525E-4,3.713993356E-4,2.224247158E-2,2.224776144E-2
7.159685458E0,3.592278808E-4,2.621738240E-4,2.207026258E-2,2.207474281E-2
7.169641458E0,3.366203047E-3,-2.803122625E-4,2.112058178E-2,2.138898952E-2
7.179598458E0,-6.251765881E-4,-1.057408750E-3,2.313420549E-2,2.316679569E-2
7.189554458E0,-1.910813153E-4,3.561973572E-4,2.148091048E-2,2.148471326E-2
7.199510458E0,-1.884667203E-3,-1.702964306E-3,1.904394105E-2,1.921259349E-2
7.209467458E0,-1.991992351E-3,3.330223262E-4,1.961891726E-2,1.972259749E-2
7.219423458E0,-3.586647334E-3,-6.179604679E-4,1.887983084E-2,1.922742642E-2
7.229380458E0,-7.053732406E-4,5.844570696E-4,2.299308032E-2,2.301132078E-2
7.239336458E0,-7.027555257E-4,-4.065725952E-4,2.509973943E-2,2.511286694E-2
7.249293458E0,3.005430102E-3,-1.318971626E-3,2.283019572E-2,2.306491130E-2
7.259249458E0,2.238864312E-3,-8.323881775E-4,2.175831422E-2,2.188902970E-2
7.269206458E0,6.417665863E-4,-5.668709055E-4,1.623252407E-2,1.625509288E-2
7.279162458E0,7.448965916E-4,5.439314991E-4,1.480419189E-2,1.483289688E-2
7.289119375E0,-1.230370020E-3,-1.977588981E-4,1.800930873E-2,1.805237158E-2
7.299076375E0,-7.443244103E-4,-1.779921353E-3,2.045576647E-2,2.054654523E-2
7.309032375E0,-1.202387968E-3,-1.787911169E-3,2.384836972E-2,2.394550274E-2
7.318989375E0,3.293327289E-3,-1.006843522E-4,2.498472109E-2,2.520104026E-2
7.328945375E0,1.387835597E-3,-1.170742325E-3,2.192128822E-2,2.199635430E-2
7.338902375E0,-3.438347485E-4,6.370749325E-4,1.846879348E-2,1.848297648E-2
7.348858375E0,1.248202985E-3,1.293544658E-3,1.546953991E-2,1.557362943E-2
7.358814375E0,8.017981891E-4,1.122659072E-3,1.801830903E-2,1.807104601E-2
7.368771375E0,-3.809116315E-4,-2.180726267E-3,1.946467161E-2,1.959015318E-2
7.378727375E0,2.925975714E-4,-2.154444344E-3,2.221026272E-2,2.231642923E-2
7.388684375E0,-2.317789476E-4,-1.307083294E-4,2.216898650E-2,2.217058341E-2
7.398640375E0,1.467673108E-3,-1.125657000E-3,2.054300159E-2,2.062610197E-2
7.408597375E0,2.328406787E-3,-5.269786343E-4,1.735466346E-2,1.751809146E-2
7.418553375E0,1.432015561E-4,1.327274367E-3,1.717528328E-2,1.722708680E-2
7.428510375E0,2.340152860E-4,1.433534548E-3,1.815798879E-2,1.821599136E-2
7.438466375E0,-1.683261245E-3,-1.928806305E-4,2.012012154E-2,2.019133136E-2
7.448422375E0,1.217453857E-3,-8.469531313E-4,2.218167856E-2,2.223120301E-2
7.458379375E0,1.237870427E-3,-4.053404555E-4,2.154522762E-2,2.158456525E-2
7.468335375E0,9.201553185E-4,-9.696641937E-4,1.738031209E-2,1.743164314E-2
7.478292375E0,3.951354884E-4,-5.044788122E-4,1.849089935E-2,1.850199962E-2
7.488248375E0,2.868473530E-5,6.606541574E-4,1.893191785E-2,1.894346325E-2
7.498205375E0,-1.823295606E-3,8.249850944E-4,2.057950571E-2,2.067658247E-2
7.508161375E0,6.994558498E-5,1.851101406E-3,2.028043196E-2,2.036485672E-2
7.518118375E0,2.428214066E-3,9.523574263E-4,2.175147831E-2,2.190730511E-2
7.528074375E0,1.780000748E-3,-1.185095869E-3,2.109421045E-2,2.120232462E-2
7.538030375E0,1.428817865E-3,-1.945032738E-3,2.111973986E-2,2.125718901E-2
7.547987375E0,-1.128615811E-3,1.298366114E-4,2.008190751E-2,2.011401602E-2
7.557943375E0,2.040122170E-3,-1.982326619E-3,1.960767806E-2,1.981294415E-2
7.567900375E0,6.574089639E-4,1.841439866E-3,1.917464659E-2,1.927407998E-2
7.577856375E0,8.959124098E-4,2.326536924E-5,2.017414570E-2,2.019404256E-2
7.587813375E0,-1.808793750E-3,-6.838040426E-4,1.736424491E-2,1.747158619E-2
7.597769375E0,-4.600272514E-4,-1.132782549E-3,1.878342405E-2,1.882317296E-2
7.607726375E0,-1.202783082E-3,-1.050490886E-3,1.860179380E-2,1.867021560E-2
7.617682375E0,-7.475966122E-4,-9.336750954E-4,1.975787431E-2,1.979404575E-2
7.627638375E0,3.514899872E-4,-1.544337720E-3,1.964095980E-2,1.970471583E-2
7.637595375E0,1.575518399E-3,-1.838630065E-3,2.266371250E-2,2.279268925E-2
7.647551375E0,2.406957326E-3,-4.942668602E-4,2.146742493E-2,2.160759303E-2
7.657508375E0,-2.664370462E-3,3.987262025E-4,1.938740909E-2,1.957369367E-2
7.667464375E0,9.783010464E-4,1.028031111E-3,1.936983317E-2,1.942174961E-2
7.677421375E0,2.518288558E-3,-6.839195266E-4,1.435704157E-2,1.459226390E-2
7.687377375E0,8.290454280E-4,1.985100098E-3,1.783699542E-2,1.796625572E-2
7.697334375E0,1.084980438E-3,-2.448502928E-4,1.939653605E-2,1.942840048E-2
7.707290375E0,-4.894803278E-4,-3.010435030E-4,2.035260946E-2,2.036072027E-2
7.717246375E0,-1.885975245E-3,-2.464270219E-4,2.123866230E-2,2.132365835E-2
7.727203375E0,-6.763671990E-4,3.884704784E-4,2.133294195E-2,2.134719640E-2
7.737159375E0,3.408750053E-3,-8.496083319E-5,1.648993418E-2,1.683878631E-2
7.747116375E0,7.692910731E-4,8.306335658E-4,1.610004902E-2,1.613980605E-2
7.757072375E0,1.065989956E-3,-4.113996401E-4,1.865960658E-2,1.869455808E-2
7.767029375E0,-9.497567080E-4,5.063256249E-4,2.028253675E-2,2.031107334E-2
7.776985375E0,2.232611179E-3,-4.271697253E-5,2.400775999E-2,2.411138563E-2
7.786942375E0,9.412443032E-4,-1.369770616E-3,2.396861464E-2,2.402616699E-2
7.796898375E0,-3.038304858E-4,-6.821779534E-4,1.840930805E-2,1.842444850E-2
7.806854375E0,2.428040141E-3,-6.579430774E-4,1.517409831E-2,1.538120696E-2
7.816811375E0,1.055515721E-3,-1.781146042E-3,1.204162836E-2,1.221832264E-2
7.826767375E0,-2.100183628E-4,-7.478399202E-4,1.511571556E-2,1.513566085E-2
7.836724375E0,-2.434423659E-4,6.954651326E-4,1.580789313E-2,1.582505675E-2
7.846680375E0,-6.767387968E-4,9.332504123E-5,2.363279462E-2,2.364266623E-2
7.856637375E0,2.223446965E-3,9.139133617E-4,2.336056903E-2,2.348393365E-2
7.866593375E0,-1.098047476E-3,2.419976518E-4,2.192566171E-2,2.195447364E-2
7.876550375E0,-2.166974125E-3,2.158626914E-3,1.476716250E-2,1.508060129E-2
7.886506375E0,-1.000243472E-3,-3.219360486E-3,1.525878161E-2,1.562674583E-2
7.896462375E0,1.917418558E-4,-1.125326380E-3,1.832998171E-2,1.836549357E-2
7.906419375E0,-6.772475317E-4,-2.027872019E-3,1.996755973E-2,2.008169242E-2
7.916375375E0,1.145395450E-3,-2.206212841E-3,2.225299180E-2,2.239140348E-2
7.926332375E0,-2.210724633E-4,7.645431906E-4,2.110835910E-2,2.112335729E-2
7.936288375E0,1.521438826E-4,-1.022554934E-3,1.523348689E-2,1.526852610E-2
7.946245375E0,-1.711003482E-3,-1.069959253E-3,1.682179794E-2,1.694240926E-2
7.956201375E0,-4.551373422E-5,-9.066797793E-5,1.489876583E-2,1.489911123E-2
7.966158375E0,-4.207531456E-4,2.187400125E-3,2.099980414E-2,2.111761176E-2
7.976114375E0,-1.507226378E-3,2.138128504E-3,2.273103595E-2,2.288106903E-2
7.986070375E0,3.524590284E-4,1.896047033E-3,2.174859494E-2,2.183393239E-2
7.996027375E0,-2.450620988E-3,9.066509083E-4,2.048994973E-2,2.065588534E-2
8.005983375E0,1.856423914E-4,-1.924363896E-4,1.728963107E-2,1.729169851E-2
8.015940375E0,2.212970518E-3,9.414032102E-4,1.406727731E-2,1.427136187E-2
8.025896375E0,2.632704563E-4,4.670945928E-4,1.875470951E-2,1.876237239E-2
8.035853375E0,-1.676490065E-4,3.797793761E-4,2.080377191E-2,2.080791350E-2
8.045809375E0,-1.522132661E-3,9.379778057E-4,2.188634872E-2,2.195925661E-2
8.055766375E0,1.315505127E-3,-8.108094335E-6,1.903461665E-2,1.908002229E-2
8.065722375E0,-1.174816862E-3,-1.018512994E-4,1.918322220E-2,1.921943242E-2
8.075679375E0,-4.103251267E-4,2.844436094E-4,1.807325706E-2,1.808015198E-2
8.085635375E0,1.018007752E-4,-1.505999826E-3,1.887673512E-2,1.893698835E-2
8.095591375E0,6.514065899E-5,-1.048834994E-3,1.689420268E-2,1.692685388E-2
8.105548375E0,-2.549714409E-4,2.358732745E-4,1.798769459E-2,1.799104787E-2
8.115504375E0,-3.589573316E-5,-6.938446313E-5,2.194786072E-2,2.194799974E-2
8.125461375E0,2.080252161E-3,-2.132534981E-3,2.061095089E-2,2.082513988E-2
8.135417375E0,-4.037262406E-4,-2.454092726E-3,1.930066943E-2,1.946025196E-2
8.145374375E0,-1.059396425E-3,6.482237950E-4,1.948069781E-2,1.952024851E-2
8.155330375E0,8.088705363E-4,-3.220699728E-5,1.791611314E-2,1.793439207E-2
8.165287375E0,1.189968898E-3,3.795176744E-4,1.971348003E-2,1.975300874E-2
8.175243375E0,-2.074453514E-4,1.563468948E-3,2.176094428E-2,2.181802385E-2
8.185199375E0,-2.035439014E-3,-1.591843553E-3,2.134921774E-2,2.150502444E-2
8.195156375E0,2.267787000E-3,-2.158350311E-3,2.043300867E-2,2.067145803E-2
8.205112375E0,2.234763931E-3,-8.573960513E-4,1.743935049E-2,1.760284759E-2
8.215069375E0,1.434821170E-4,-1.818643883E-3,1.865007356E-2,1.873908473E-2
8.225025375E0,3.152559511E-4,-6.942572072E-4,1.894648373E-2,1.896182020E-2
8.234982375E0,1.833281713E-3,-5.678823218E-4,1.934598386E-2,1.944094915E-2
8.244938375E0,9.592322167E-4,-9.841350839E-4,2.116545662E-2,2.121002599E-2
8.254895375E0,3.539703786E-3,2.527981997E-4,1.974933967E-2,2.006563797E-2
8.264851375E0,6.776045775E-4,6.213793531E-4,2.009235322E-2,2.011337660E-2
8.274808375E0,4.482283257E-4,4.921816289E-4,1.828199998E-2,1.829411584E-2
8.284763708E0,-8.503289428E-4,-9.762849659E-4,1.749903336E-2,1.754686183E-2
8.294719708E0,-1.568500884E-3,8.851885796E-4,1.829931885E-2,1.838773570E-2
8.304676708E0,2.702676691E-3,7.099527866E-4,1.755310223E-2,1.777413548E-2
8.314632708E0,2.692806069E-3,-6.714649498E-5,2.108607441E-2,2.125742805E-2
8.324589708E0,1.357230940E-3,1.315250993E-4,1.905967295E-2,1.910838841E-2
8.334545708E0,6.677112542E-4,-1.201899722E-4,1.867618039E-2,1.868849908E-2
8.344502708E0,-1.270004781E-3,7.410766557E-4,2.061203122E-2,2.066441235E-2
8.354458708E0,-1.258947887E-3,1.212322153E-3,2.103603259E-2,2.110851349E-2
8.364415708E0,-3.842101432E-5,-8.652098477E-4,1.931536198E-2,1.933476849E-2
8.374371708E0,-8.485931903E-5,2.637067810E-3,2.138623223E-2,2.154837016E-2
8.384327708E0,2.752002329E-4,4.021916538E-5,2.206906304E-2,2.207081548E-2
8.394284708E0,2.148076892E-4,-9.190086275E-4,2.017581090E-2,2.019787278E-2
8.404240708E0,1.948525663E-3,2.679619938E-4,2.135452628E-2,2.144491428E-2
8.414197708E0,-1.582596451E-5,3.359410912E-4,2.154203132E-2,2.154465642E-2
8.424153708E0,7.357180584E-4,-2.622045577E-4,1.992549375E-2,1.994079571E-2
8.434110708E0,-2.587777795E-3,1.402730122E-3,1.650424674E-2,1.676467734E-2
8.444066708E0,2.184074372E-3,-1.678813249E-3,1.586641744E-2,1.610378207E-2
8.454023708E0,6.670977455E-4,2.094055526E-3,1.299806684E-2,1.318255778E-2
8.463979708E0,-1.728415489E-3,-5.954708904E-4,1.589319110E-2,1.599798515E-2
8.473936708E0,7.918858901E-4,-6.552971900E-5,1.820211485E-2,1.821945011E-2
8.483892708E0,1.615069108E-3,1.358462498E-3,1.721647754E-2,1.734534426E-2
8.493848708E0,1.164214336E-3,-1.583332196E-4,1.921872422E-2,1.925460530E-2
8.503805708E0,1.852363348E-4,9.135883301E-4,1.616354287E-2,1.619040068E-2
8.513761708E0,4.204958677E-4,-3.532255068E-4,1.766404882E-2,1.767258345E-2
8.523718708E0,2.332911827E-3,-5.518971011E-4,1.685737818E-2,1.702698644E-2
8.533674708E0,4.147051368E-4,5.217539147E-4,1.825759932E-2,1.826976028E-2
8.543631708E0,2.141690347E-4,4.839366302E-4,1.805306971E-2,1.806082470E-2
8.553587708E0,2.288036048E-3,-5.286550149E-4,1.489248872E-2,1.507649844E-2
8.563544708E0,4.861413036E-4,-1.653041691E-3,1.780278981E-2,1.788597789E-2
8.573500708E0,-1.196096651E-3,2.036196180E-3,1.624444127E-2,1.641519462E-2
8.583457708E0,3.264165483E-3,-1.024841331E-3,1.713473350E-2,1.747295533E-2
8.593413708E0,2.033486729E-3,8.895630017E-4,1.753295213E-2,1.767288321E-2
8.603369708E0,1.991013996E-4,-8.537424728E-4,1.953005791E-2,1.954972326E-2
8.613326708E0,-1.499413513E-3,-9.431019425E-4,1.600366086E-2,1.610139258E-2
8.623282708E0,-7.494674064E-4,-9.423028678E-4,1.534799114E-2,1.539514430E-2
8.633239708E0,1.238341443E-3,1.303576864E-3,1.379458606E-2,1.391126906E-2
8.643195708E0,-1.683412585E-3,-2.381270751E-4,1.481297985E-2,1.491022986E-2
8.653152708E0,-9.763080161E-4,-9.833928198E-4,1.673086733E-2,1.678815536E-2
8.663108708E0,9.198626503E-4,7.601268589E-5,1.625682414E-2,1.628300513E-2
8.673065708E0,-2.712341957E-4,1.872379333E-3,1.713164523E-2,1.723579533E-2
8.683021708E0,2.298449865E-3,-9.942799807E-6,1.821501926E-2,1.835946342E-2
8.692977708E0,3.492764663E-4,-2.625722438E-3,1.975432038E-2,1.993112105E-2
8.702934708E0,1.667274861E-3,-7.671024650E-4,1.793165505E-2,1.802532952E-2
8.712890708E0,-2.419675700E-3,-1.666070893E-3,1.715721563E-2,1.740691445E-2
8.722847708E0,-1.090225531E-3,4.847254604E-5,1.687305421E-2,1.690830860E-2
8.732803708E0,5.948813632E-4,1.881919801E-3,1.667048410E-2,1.678691592E-2
8.742760708E0,1.309407409E-3,1.214532182E-3,1.610269770E-2,1.620143541E-2
8.752716708E0,1.272761147E-3,9.723762050E-4,1.735744998E-2,1.743119348E-2
8.762673708E0,1.086073578E-3,-2.249814570E-4,2.167416736E-2,2.170252758E-2
8.772629708E0,-1.168258721E-3,9.154044092E-4,1.859089360E-2,1.865004339E-2
8.782586708E0,-2.396143973E-4,-1.593293622E-3,1.605129987E-2,1.613196290E-2
8.792542708E0,-2.498856746E-3,-3.924807534E-4,1.240486279E-2,1.266013219E-2
8.802498708E0,2.828149591E-4,1.142831519E-3,1.412846148E-2,1.417742826E-2
8.812455708E0,-6.863519084E-4,-3.515183926E-5,1.767937094E-2,1.769272369E-2
8.822411708E0,-1.507936977E-3,-1.073518768E-3,1.848684251E-2,1.857928046E-2
8.832368708E0,-1.520604128E-3,2.860194072E-4,1.752489433E-2,1.759306583E-2
8.842324708E0,-1.463346183E-3,-3.510089591E-4,1.797097549E-2,1.803387228E-2
8.852281708E0,2.430226188E-3,1.249329187E-3,1.589054987E-2,1.612378361E-2
8.862237708E0,3.440629691E-3,4.631644115E-4,1.448626444E-2,1.489645298E-2
8.872194708E0,1.759142615E-4,3.497265279E-4,1.312088221E-2,1.312672101E-2
8.882150708E0,-2.177008428E-4,-5.099419504E-4,1.386710256E-2,1.387818316E-2
8.892107708E0,-4.285927862E-4,6.508938968E-4,1.568917930E-2,1.570852322E-2
8.902063708E0,-1.058175694E-4,-1.390951686E-3,1.679838821E-2,1.685620926E-2
8.912019708E0,2.839390654E-4,1.859664917E-3,1.843932271E-2,1.853503701E-2
8.921976708E0,-1.889466774E-3,1.940891147E-3,1.689042896E-2,1.710624838E-2
8.931932708E0,-2.546204021E-3,-3.963522613E-5,1.790040731E-2,1.808063350E-2
8.941889708E0,1.975843683E-3,-5.506956950E-4,1.343854517E-2,1.359417965E-2
8.951845708E0,-1.581611810E-3,5.443338305E-4,1.338013262E-2,1.348427766E-2
8.961802708E0,2.678114455E-3,-5.387729034E-4,1.464619860E-2,1.489878206E-2
8.971758708E0,7.424666546E-5,-5.034636706E-4,1.771128550E-2,1.771859538E-2
8.981715708E0,7.871749112E-4,2.364228480E-3,1.801675186E-2,1.818825357E-2
8.991671708E0,1.736407285E-3,2.556120045E-3,1.728876308E-2,1.756275003E-2
9.001628708E0,-9.435317479E-4,-1.748346724E-3,1.333236694E-2,1.347957628E-2
9.011584708E0,-5.690776743E-5,-1.052143052E-3,1.380460709E-2,1.384476148E-2
9.021541708E0,1.408895943E-3,1.873072237E-3,1.256357506E-2,1.278032886E-2
9.031497708E0,1.005927101E-3,2.033083700E-3,1.583684236E-2,1.599846538E-2
9.041453708E0,1.813131152E-3,4.194742069E-4,1.551353559E-2,1.562476207E-2
9.051410708E0,2.091019414E-4,-7.119672373E-4,1.913654059E-2,1.915092183E-2
9.061366708E0,7.121731760E-4,-2.251416445E-4,1.573967934E-2,1.575739144E-2
9.071323708E0,2.908816794E-3,1.918600872E-3,1.779154688E-2,1.812957211E-2
9.081279708E0,6.483256584E-4,-1.133115031E-3,1.403409243E-2,1.409468077E-2
9.091236708E0,1.693051308E-3,-1.019738615E-3,1.362907514E-2,1.377163675E-2
9.101192708E0,-2.825534204E-3,-2.753855661E-4,1.280828938E-2,1.311913707E-2
9.111149708E0,-1.177253202E-3,-8.746450767E-4,1.472736523E-2,1.480020998E-2
9.121105708E0,3.040394979E-3,-9.710518643E-4,1.533296704E-2,1.566163535E-2
9.131062708E0,2.242509509E-3,-2.807048149E-3,1.703876629E-2,1.741344093E-2
9.141018708E0,-3.316160291E-5,-2.485495061E-4,1.880471036E-2,1.880638211E-2
9.150974708E0,-2.334884368E-3,-6.956383586E-4,1.895086840E-2,1.910683152E-2
9.160931708E0,2.373051830E-3,-3.095678985E-3,1.323599368E-2,1.379877285E-2
9.170887708E0,1.263527665E-3,9.085871279E-4,1.125519723E-2,1.136228398E-2
9.180844708E0,-1.926887780E-4,1.489155926E-3,1.132470742E-2,1.142382215E-2
9.190800708E0,-1.566677121E-3,7.211761549E-4,1.489917561E-2,1.499866682E-2
9.200757708E0,-2.888925374E-4,1.392559148E-3,1.871974394E-2,1.877369151E-2
9.210713708E0,9.947128128E-4,-4.435423762E-4,1.988540962E-2,1.991521276E-2
9.220670708E0,-3.368677571E-4,-2.352762967E-3,1.815728471E-2,1.831218068E-2
9.230626708E0,8.453100454E-4,1.043299213E-3,1.386025921E-2,1.392515018E-2
9.240583708E0,1.127338735E-3,2.448838204E-4,1.119816303E-2,1.125742937E-2
9.250539708E0,-1.315209549E-3,-5.812011659E-5,1.017290354E-2,1.025773467E-2
9.260495708E0,-2.265092917E-4,-9.042061865E-4,1.197107136E-2,1.200730798E-2
9.270452708E0,3.371633124E-3,-1.306103542E-3,1.644347981E-2,1.683632515E-2
9.280408708E0,1.261876780E-3,8.646305650E-5,1.842806488E-2,1.847142074E-2
9.290365833E0,2.877004677E-3,-7.723318413E-4,2.011511102E-2,2.033448657E-2
9.300321833E0,1.334161498E-4,5.912063643E-4,1.720187441E-2,1.721254798E-2
9.310278833E0,-7.302297745E-4,1.059686765E-4,1.522407308E-2,1.524194430E-2
9.320234833E0,-1.276177820E-3,5.272813141E-4,1.398197562E-2,1.404999279E-2
9.330191833E0,-7.657597307E-4,-6.492575631E-4,1.428201050E-2,1.431725348E-2
9.340147833E0,1.485144021E-3,1.094024628E-5,1.597338542E-2,1.604228208E-2
9.350104833E0,1.154068974E-3,-1.203896478E-3,2.037268132E-2,2.044082645E-2
9.360060833E0,-4.558118526E-4,2.525867894E-4,2.028693259E-2,2.029362457E-2
9.370017833E0,4.890908021E-4,-5.400562659E-4,1.759993285E-2,1.761500800E-2
9.379973833E0,-1.297623850E-3,-1.311041415E-3,1.748994738E-2,1.758695302E-2
9.389930833E0,1.151444158E-3,-2.949200571E-4,1.367669925E-2,1.372825203E-2
9.399886833E0,-1.535047777E-4,-9.580468759E-4,1.478963345E-2,1.482142622E-2
9.409842833E0,1.784043852E-4,-6.968760863E-4,1.516410336E-2,1.518115592E-2
9.419799833E0,2.173644723E-3,-7.107248530E-4,1.818359643E-2,1.832683935E-2
9.429755833E0,-3.662006930E-5,-1.901214942E-3,1.728802547E-2,1.739229093E-2
9.439712833E0,1.985784620E-3,9.861849248E-4,1.606003940E-2,1.621236463E-2
9.449668833E0,-5.692169070E-4,2.397011966E-3,1.649489626E-2,1.667786788E-2
9.459625833E0,-4.333956167E-4,1.262239181E-3,1.426689699E-2,1.432918104E-2
9.469581833E0,2.054017968E-4,-1.206447370E-3,1.406379789E-2,1.411694430E-2
9.479538833E0,-4.084568936E-4,-1.054380089E-3,1.438950002E-2,1.443385830E-2
9.489494833E0,-1.415727427E-3,-7.355408743E-4,1.485633850E-2,1.494175686E-2
9.499451833E0,-9.832300711E-4,-2.119852230E-3,1.610775664E-2,1.627637364E-2
9.509407833E0,1.912730280E-3,-6.905794144E-4,1.747658476E-2,1.759450062E-2
9.519363833E0,7.177698426E-4,3.887992352E-4,1.402778924E-2,1.405152053E-2
9.529320833E0,1.091830432E-3,1.030219719E-4,1.644640788E-2,1.648293176E-2
9.539276833E0,7.120636292E-4,-1.252107322E-4,1.543626934E-2,1.545319137E-2
9.549233833E0,-9.139450267E-4,2.550749108E-3,1.485067606E-2,1.509583373E-2
9.559189833E0,6.669072900E-4,-1.561171375E-3,1.515907049E-2,1.525383360E-2
9.569146833E0,6.317970110E-4,-8.904216811E-4,1.546084136E-2,1.549934301E-2
9.579102833E0,2.062239219E-4,-1.915738918E-3,1.711386815E-2,1.722199370E-2
9.589059833E0,1.408728771E-3,7.379623130E-4,1.723985374E-2,1.731304890E-2
9.599015833E0,5.522562424E-4,6.633941084E-4,1.399638876E-2,1.402298032E-2
9.608972833E0,2.061166102E-3,6.231833249E-4,1.417290792E-2,1.433555308E-2
9.618928833E0,-7.455393206E-4,-1.148351468E-3,1.083623245E-2,1.092238407E-2
9.628885833E0,-1.342831645E-3,4.858318716E-4,1.530187950E-2,1.536836834E-2
9.638841833E0,-7.518762723E-4,3.697173670E-4,1.969049871E-2,1.970831673E-2
9.648797833E0,-8.063679561E-4,-1.102792099E-3,2.144661546E-2,2.149008363E-2
9.658754833E0,1.215237658E-3,-1.045534387E-3,1.754134893E-2,1.761445052E-2
9.668710833E0,2.353797434E-3,3.811633214E-4,1.742447168E-2,1.758686615E-2
9.678667833E0,6.416512188E-4,-2.609033138E-3,1.279722899E-2,1.307623188E-2
9.688623833E0,2.685166197E-3,-9.059999138E-4,1.380435750E-2,1.409224039E-2
9.698580833E0,-1.409177668E-3,2.580611035E-3,1.692131907E-2,1.717487624E-2
9.708536833E0,2.083318075E-3,-1.124513336E-3,1.928599924E-2,1.943076198E-2
9.718493833E0,9.128587553E-4,-2.522939816E-3,1.798877120E-2,1.818775483E-2
9.728449833E0,2.053220524E-3,1.288793050E-3,1.576337218E-2,1.594868661E-2
9.738406833E0,1.049208688E-3,-3.905957565E-4,1.483046636E-2,1.487266406E-2
9.748362833E0,1.624559984E-3,-1.547372900E-3,1.266616210E-2,1.286332851E-2
9.758319833E0,-2.461527940E-3,-2.744996920E-3,1.199371368E-2,1.254764104E-2
9.768275833E0,-4.859289620E-4,-1.724683680E-3,1.633726805E-2,1.643523618E-2
9.778232833E0,5.087616155E-4,8.173845708E-5,2.026782557E-2,2.027437479E-2
9.788188833E0,2.842091490E-3,1.515319571E-3,1.752341911E-2,1.781695526E-2
9.798144833E0,6.231456064E-4,2.148980275E-4,1.752048358E-2,1.753287873E-2
9.808101833E0,1.206751680E-3,7.351003587E-4,1.079692692E-2,1.088899688E-2
9.818057833E0,-1.849758439E-3,1.889846288E-3,1.319403946E-2,1.345644094E-2
9.828014833E0,1.179663115E-3,7.945355028E-4,1.440315694E-2,1.447321048E-2
9.837970833E0,-1.947420649E-3,-1.926980913E-4,1.825169474E-2,1.835630520E-2
9.847927833E0,-2.650947543E-3,-3.151129931E-4,2.112271264E-2,2.129074467E-2
9.857883833E0,2.121703234E-3,-1.068254933E-3,1.771759614E-2,1.787612951E-2
9.867840833E0,-7.156897336E-4,-4.290761426E-4,1.416150481E-2,1.418606839E-2
9.877796833E0,-1.782552106E-3,1.328503713E-4,1.460758597E-2,1.471654542E-2
9.887753833E0,5.869499873E-4,3.050630912E-4,1.263873279E-2,1.265603178E-2
9.897709833E0,2.068466507E-3,9.130621329E-4,1.701776683E-2,1.716731267E-2
9.907666833E0,6.853383966E-4,-1.031095162E-4,2.186549455E-2,2.187647531E-2
9.917622833E0,4.962539533E-4,-1.860795543E-3,1.983803511E-2,1.993129361E-2
9.927578833E0,4.129046574E-4,4.332596436E-4,1.895280927E-2,1.896225682E-2
9.937535833E0,1.053128508E-3,-3.766072914E-4,1.338094100E-2,1.342760198E-2
9.947491833E0,-6.953794509E-4,-1.661144197E-4,1.225649938E-2,1.227733373E-2
9.957448833E0,-8.264069911E-4,-1.996709034E-4,1.403043047E-2,1.405616577E-2
9.967404833E0,1.086839475E-4,1.148746349E-3,1.749340445E-2,1.753141836E-2
9.977361833E0,-8.641686291E-4,-2.019616775E-3,1.834188402E-2,1.847296264E-2
9.987317833E0,1.223099884E-3,1.980456524E-3,1.868548244E-2,1.882990800E-2
9.997274833E0,2.085165121E-3,-9.452924132E-4,1.862636209E-2,1.876653553E-2
1.000723083E1,5.491526099E-4,-5.247732624E-4,1.292958483E-2,1.295187706E-2
1.001718783E1,1.043701661E-3,-9.186547250E-4,1.220467314E-2,1.228361861E-2
1.002714383E1,1.647626748E-3,4.441039637E-4,1.164435223E-2,1.176872300E-2
1.003710083E1,2.140311524E-3,-6.941314787E-4,1.458528265E-2,1.475781901E-2
1.004705683E1,2.029295778E-3,3.050845116E-4,1.642442867E-2,1.655212902E-2
1.005701383E1,1.597597497E-3,-3.915978596E-4,1.974672079E-2,1.981511162E-2
1.006696983E1,5.777503829E-4,5.923919380E-4,1.958872005E-2,1.960618976E-2
1.007692583E1,-2.649734262E-3,-2.145450562E-4,1.751970872E-2,1.772025155E-2
1.008688283E1,-4.421984777E-4,1.692423597E-3,1.267127320E-2,1.279144252E-2
1.009683883E1,-1.660860842E-3,-5.736602470E-4,1.591100916E-2,1.600774055E-2
1.010679583E1,8.139903657E-4,1.726448536E-4,1.686658338E-2,1.688709630E-2
1.011675183E1,-1.341572264E-3,6.701229140E-4,1.692570373E-2,1.699200776E-2
1.012670883E1,8.413004689E-4,-1.815985888E-5,1.904385909E-2,1.906244175E-2
1.013666483E1,-2.263607457E-4,-2.690292895E-4,1.727445796E-2,1.727803559E-2
1.014662183E1,2.879780252E-3,2.917749807E-4,1.590450481E-2,1.616575207E-2
1.015657783E1,-1.096052816E-3,-1.858194359E-3,1.134090871E-2,1.154428120E-2
1.016653483E1,-3.739150241E-3,-1.965071075E-3,1.136659086E-2,1.212609321E-2
1.017649083E1,-7.417623419E-4,-1.806879416E-3,1.506252587E-2,1.518863753E-2
1.018644783E1,8.244590135E-4,-2.550808713E-4,1.620073244E-2,1.622370274E-2
1.019640383E1,1.427398762E-3,6.080493331E-4,1.547395438E-2,1.555154190E-2
1.020635983E1,6.562741473E-4,-2.751487307E-3,1.369658485E-2,1.398562886E-2
1.021631683E1,1.625132049E-3,1.683475450E-3,1.620261744E-2,1.637070419E-2
1.022627283E1,-1.823725412E-3,8.449219167E-4,1.471715793E-2,1.485377410E-2
1.023622983E1,-7.560639642E-4,-2.629524097E-4,1.427027956E-2,1.429271336E-2
1.024618583E1,1.979965949E-3,-8.683344349E-4,1.583129913E-2,1.597824464E-2
1.025614283E1,1.186077716E-3,-5.468912423E-4,1.644835249E-2,1.650012636E-2
1.026609883E1,1.489451388E-3,-6.065284833E-4,1.621140167E-2,1.629097561E-2
1.027605583E1,1.209553098E-3,2.930881456E-4,1.719996333E-2,1.724493137E-2
1.028601196E1,-1.710648648E-3,2.053116448E-3,1.412962005E-2,1.438011713E-2
1.029596896E1,3.269462381E-3,-1.887829043E-3,1.582365856E-2,1.626780418E-2
1.030592496E1,5.955564557E-4,1.090129837E-3,1.541917026E-2,1.546912674E-2
1.031588196E1,4.754478578E-4,-4.505096003E-4,1.445537060E-2,1.447020210E-2
1.032583796E1,-1.138524152E-3,3.328807652E-4,1.874677092E-2,1.878426114E-2
1.033579496E1,1.919912174E-4,-7.129432634E-4,2.099981159E-2,2.101278743E-2
1.034575096E1,-1.788218506E-4,1.217310317E-3,1.528111473E-2,1.533056714E-2
1.035570796E1,-8.475417271E-4,2.372057177E-3,1.641988009E-2,1.661196691E-2
1.036566396E1,-5.865439307E-4,-9.086327627E-4,1.493370533E-2,1.497281544E-2
1.037561996E1,1.034808811E-4,-4.119537771E-4,1.384420693E-2,1.385072127E-2
1.038557696E1,1.703937771E-3,7.882388309E-4,1.357836276E-2,1.370754025E-2
1.039553296E1,-1.038159244E-4,-8.687656373E-5,1.188512519E-2,1.188589610E-2
1.040548996E1,-1.861619763E-3,1.910546795E-3,1.346144825E-2,1.372320685E-2
1.041544596E1,9.107310325E-4,-1.298028976E-3,1.593499258E-2,1.601369098E-2
1.042540296E1,6.338193780E-4,-7.328065112E-4,1.579108462E-2,1.582078019E-2
1.043535896E1,-2.751173452E-4,1.921033487E-3,1.610800251E-2,1.622448163E-2
1.044531596E1,1.135975937E-3,1.925029792E-3,1.678540930E-2,1.693358044E-2
1.045527196E1,3.215812612E-4,-1.355718821E-3,1.581415161E-2,1.587541430E-2
1.046522896E1,-4.048459232E-6,-5.955975503E-4,1.782582700E-2,1.783577476E-2
1.047518496E1,-2.097026678E-3,-1.771915704E-3,1.515228301E-2,1.539898979E-2
1.048514196E1,-2.665078267E-3,3.072770312E-3,1.690809801E-2,1.739046687E-2
1.049509796E1,-6.400106940E-4,-2.460746095E-3,1.580101997E-2,1.600428433E-2
1.050505496E1,9.445154574E-4,-1.720668748E-3,1.707795262E-2,1.719038325E-2
1.051501096E1,3.006068524E-3,-3.031742759E-3,1.534103975E-2,1.592405139E-2
1.052496796E1,7.427302189E-4,-6.592171267E-4,1.670591906E-2,1.673540997E-2
1.053492396E1,1.997611718E-3,8.582519367E-4,1.201849058E-2,1.221356479E-2
1.054487996E1,-5.592231173E-4,2.181295305E-3,1.701025292E-2,1.715865625E-2
1.055483696E1,3.010744229E-3,4.038028419E-5,1.649625972E-2,1.676880425E-2
1.056479296E1,3.104636678E-3,-4.782555625E-4,1.729848236E-2,1.758138189E-2
1.057474996E1,3.163492540E-3,-1.497181132E-3,1.823351532E-2,1.856637599E-2
1.058470596E1,-4.280551802E-4,2.663759515E-3,1.592671499E-2,1.615360939E-2
1.059466296E1,-2.376956400E-3,1.147621311E-3,1.359272003E-2,1.384662393E-2
1.060461896E1,5.432032049E-5,-1.949722879E-3,1.056211814E-2,1.074070341E-2
1.061457596E1,-1.566213323E-3,-9.236065671E-4,1.264045015E-2,1.277055415E-2
1.062453196E1,1.811914146E-3,8.748332039E-4,1.461628824E-2,1.475412648E-2
1.063448896E1,-1.772967167E-3,-9.094849229E-4,1.672311127E-2,1.684140808E-2
1.064444496E1,-7.077252958E-4,-2.936323173E-3,1.890459284E-2,1.914435947E-2
1.065440196E1,-4.411430564E-4,-3.040718846E-3,1.625314727E-2,1.654102097E-2
1.066435796E1,9.166542441E-5,1.079870388E-3,1.136950403E-2,1.142103956E-2
1.067431496E1,-9.866484907E-4,-4.345085472E-5,1.327819005E-2,1.331486741E-2
1.068427096E1,-6.147348322E-4,-2.462482080E-4,1.218112558E-2,1.219911298E-2
1.069422796E1,5.155105609E-4,5.016196519E-5,1.461525261E-2,1.462442738E-2
1.070418396E1,-1.328907441E-3,7.304782048E-4,1.696446538E-2,1.703210730E-2
1.071413996E1,-1.727316296E-3,1.414378174E-3,1.862680912E-2,1.876012007E-2
1.072409696E1,3.291166853E-3,2.206601202E-4,1.613189280E-2,1.646567446E-2
1.073405296E1,-3.118235618E-4,-1.687495038E-3,1.357924938E-2,1.368725273E-2
1.074400996E1,-1.521379454E-3,-4.751347005E-4,1.091561466E-2,1.103136401E-2
1.075396596E1,-2.330980264E-3,-9.065670893E-4,1.204372942E-2,1.230068093E-2
1.076392296E1,-5.780239590E-4,-1.151065342E-3,1.291326433E-2,1.297734406E-2
1.077387896E1,-5.870754831E-5,-1.799278893E-3,1.262244582E-2,1.275017606E-2
1.078383596E1,-1.756594284E-3,-2.352902666E-4,1.656437665E-2,1.665891830E-2
1.079379196E1,-3.299652599E-5,-9.325062856E-4,1.609405875E-2,1.612108507E-2
1.080374896E1,-4.634167999E-4,2.615418285E-3,1.306389645E-2,1.333118743E-2
1.081370496E1,-1.184334513E-3,-4.977785982E-3,1.347348839E-2,1.441235203E-2
1.082366196E1,6.665266119E-4,-9.234976023E-4,9.702373296E-3,9.768989360E-3
1.083361796E1,1.990916673E-3,8.962405846E-4,1.319298148E-2,1.337242524E-2
1.084357496E1,-2.486612648E-4,4.537459463E-4,1.756370440E-2,1.757132409E-2
1.085353096E1,2.229844686E-4,-1.966535114E-3,1.874588802E-2,1.885007428E-2
1.086348796E1,2.620851155E-4,-6.997594610E-4,1.629403234E-2,1.631115697E-2
1.087344396E1,2.789424965E-3,-1.020936295E-3,1.437282935E-2,1.467656043E-2
1.088340096E1,-9.282950778E-4,1.916131936E-3,1.247900724E-2,1.265934102E-2
1.089335696E1,-2.631919226E-3,9.456761181E-4,1.250990108E-2,1.281869444E-2
1.090331296E1,1.834705239E-3,-9.071938694E-4,1.549476758E-2,1.562936231E-2
1.091326996E1,2.841380192E-3,-1.877916045E-3,1.460686699E-2,1.499868572E-2
1.092322596E1,1.760629239E-3,-1.686866395E-3,1.510526612E-2,1.530079731E-2
1.093318296E1,1.830936642E-3,-3.526229411E-4,9.640991688E-3,9.819643204E-3
1.094313896E1,4.543153336E-4,-8.018659428E-4,1.442486793E-2,1.445427986E-2
1.095309596E1,2.250883728E-3,-9.398171678E-4,1.314362139E-2,1.336804088E-2
1.096305196E1,5.719020264E-4,7.543815300E-4,1.246464998E-2,1.250054649E-2
1.097300896E1,-6.448961794E-4,-1.900790259E-3,1.213068888E-2,1.229562960E-2
1.098296496E1,-1.512223389E-3,-9.792037308E-4,1.442212239E-2,1.453421046E-2
1.099292196E1,1.967462711E-3,-5.254009739E-4,1.363808662E-2,1.378928433E-2
1.100287796E1,1.500223530E-3,-1.926561818E-4,1.009393111E-2,1.020662688E-2
1.101283496E1,2.686661668E-3,1.591661014E-3,1.536006108E-2,1.567427868E-2
1.102279096E1,1.664333977E-4,1.050150022E-4,1.250541955E-2,1.250696791E-2
1.103274796E1,-8.418392390E-4,1.180637628E-4,1.261700690E-2,1.264561171E-2
1.104270396E1,1.161361812E-3,-1.268540509E-3,1.169916242E-2,1.182490413E-2
1.105266096E1,-2.146936022E-4,-3.665285185E-4,1.319825649E-2,1.320509034E-2
1.106261696E1,-4.918291233E-4,-2.258429304E-4,1.609019935E-2,1.609929862E-2
1.107257396E1,7.747701602E-4,-2.042707056E-4,1.329841092E-2,1.332252710E-2
1.108252996E1,-2.913484816E-3,6.114365533E-4,1.208477467E-2,1.244604465E-2
1.109248696E1,2.997667296E-3,5.925279111E-4,1.422702149E-2,1.455146862E-2
1.110244296E1,-1.660056645E-3,1.381952316E-3,1.408293098E-2,1.424761472E-2
1.111239896E1,1.524905674E-4,6.157616153E-4,1.265814155E-2,1.267402712E-2
1.112235596E1,-1.615640707E-3,-1.589446329E-3,1.542760059E-2,1.559318744E-2
1.113231196E1,-7.003124338E-4,1.326715574E-3,1.769661531E-2,1.776009023E-2
1.114226896E1,1.065519289E-3,9.869886562E-4,1.585423574E-2,1.592062401E-2
1.115222496E1,5.256965524E-4,1.160893589E-3,1.172979549E-2,1.179881913E-2
1.116218196E1,8.279172471E-4,-1.034270041E-3,1.409794763E-2,1.416005963E-2
1.117213796E1,1.228722977E-3,-9.908610955E-4,1.115089282E-2,1.126205916E-2
1.118209496E1,5.167762283E-4,-1.655275933E-3,1.446827874E-2,1.457182506E-2
1.119205096E1,1.026545651E-4,3.370083869E-5,1.366613433E-2,1.366656142E-2
1.120200796E1,-2.542985603E-4,-1.680805348E-3,1.526882872E-2,1.536316715E-2
1.121196396E1,-2.236722503E-4,-2.574562095E-3,1.229487732E-2,1.256353484E-2
1.122192096E1,3.865684848E-4,-9.157480672E-4,1.069677249E-2,1.074285676E-2
1.123187696E1,-3.513935953E-4,-6.065554917E-4,1.156496629E-2,1.158619145E-2
1.124183396E1,4.466788378E-4,9.396597743E-4,1.478476077E-2,1.482132361E-2
1.125178996E1,-2.368016168E-3,-1.936553977E-3,1.369366422E-2,1.403118604E-2
1.126174696E1,-1.111533958E-3,6.815083325E-4,1.538175717E-2,1.543691728E-2
1.127170296E1,-1.781851752E-3,-6.063962355E-4,1.645314321E-2,1.656045390E-2
1.128165996E1,-1.189535717E-3,-2.715467475E-3,1.252685487E-2,1.287287271E-2
1.129161583E1,1.958406065E-4,1.466320828E-4,1.296547800E-2,1.296778602E-2
1.130157283E1,1.902093645E-4,5.390066653E-4,1.232784614E-2,1.234108983E-2
1.131152883E1,4.085886758E-4,1.215183176E-3,1.085937768E-2,1.093479303E-2
1.132148483E1,-7.014949806E-4,2.118800767E-3,1.526330411E-2,1.542562363E-2
1.133144183E1,4.657683894E-4,2.044231631E-3,1.770355552E-2,1.782727409E-2
1.134139783E1,1.820372185E-3,9.501334280E-4,1.451758295E-2,1.466208455E-2
1.135135483E1,-8.007108700E-4,3.423998132E-4,1.354073361E-2,1.356870820E-2
1.136131083E1,1.321723568E-3,1.442701556E-3,9.588032961E-3,9.785638305E-3
1.137126783E1,-2.104433253E-3,-1.038299873E-3,1.004103944E-2,1.031160409E-2
1.138122383E1,3.979098983E-5,-5.395431072E-5,1.089058444E-2,1.089079078E-2
1.139118083E1,-5.479687825E-4,1.631560735E-3,1.447520033E-2,1.457716312E-2
1.140113683E1,8.902647533E-4,1.290256158E-3,1.441498846E-2,1.449997326E-2
1.141109383E1,-2.559598070E-4,-6.892709062E-4,1.638785750E-2,1.640434342E-2
1.142104983E1,1.069304766E-3,-1.744279638E-3,1.293778047E-2,1.309855288E-2
1.143100683E1,4.008513642E-4,-1.225495711E-3,1.278651133E-2,1.285135766E-2
1.144096283E1,1.490316703E-3,-1.424033195E-3,1.118774712E-2,1.137605380E-2
1.145091983E1,7.326473715E-4,-1.293271780E-3,9.066004306E-3,9.187042949E-3
1.146087583E1,-3.107081167E-3,2.296842635E-3,1.364160702E-2,1.417825382E-2
1.147083283E1,2.937754616E-4,-1.601893455E-4,1.317368820E-2,1.317793707E-2
1.148078883E1,-1.165508060E-3,-8.824355900E-4,1.353240758E-2,1.361114090E-2
1.149074583E1,-1.527698012E-3,-4.123877734E-4,1.437050477E-2,1.445736256E-2
1.150070183E1,1.120411209E-3,1.989162527E-3,1.552693918E-2,1.569388190E-2
1.151065883E1,-8.340827189E-4,-3.793625161E-3,1.464863122E-2,1.515485672E-2
1.152061483E1,1.948237652E-3,-1.208087429E-3,1.326740161E-2,1.346399089E-2
1.153057183E1,1.814813353E-3,5.101840943E-4,1.054352149E-2,1.071072737E-2
1.154052783E1,3.248766996E-3,-1.135046594E-3,9.730607271E-3,1.032121774E-2
1.155048483E1,3.139635082E-4,-1.262612641E-3,1.320816204E-2,1.327208756E-2
1.156044083E1,4.685283639E-4,-1.194351353E-3,1.367921755E-2,1.373924986E-2
1.157039683E1,1.307690400E-3,-3.487970680E-4,1.735891029E-2,1.741159040E-2
1.158035383E1,-2.463618293E-4,-6.962828338E-4,1.694234088E-2,1.695843208E-2
1.159030983E1,-1.614427660E-3,-1.367526129E-4,1.494922861E-2,1.503677206E-2
1.160026683E1,-3.110712627E-3,-2.282205969E-4,1.356126368E-2,1.391533292E-2
1.161022283E1,-3.540014150E-3,1.068471931E-3,1.119238138E-2,1.178739723E-2
1.162017983E1,-6.460179575E-4,2.620834857E-3,1.154069975E-2,1.185216711E-2
1.163013583E1,-1.406084280E-3,6.394423544E-4,1.236601546E-2,1.246211451E-2
1.164009283E1,7.974168984E-4,5.961954594E-4,1.535378769E-2,1.538603650E-2
1.165004883E1,1.579918899E-4,1.708883792E-4,1.646113023E-2,1.646277537E-2
1.166000583E1,-9.704511613E-4,5.545094609E-5,1.679404452E-2,1.682215152E-2
1.166996183E1,-1.453282079E-3,-1.147764735E-3,1.425312459E-2,1.437292432E-2
1.167991883E1,8.865772979E-4,6.399406120E-4,1.103994250E-2,1.109395663E-2
1.168987483E1,-5.193054676E-4,-4.282528535E-4,1.144660637E-2,1.146638025E-2
1.169983183E1,1.589104068E-4,9.964201599E-4,1.238541678E-2,1.242644979E-2
1.170978783E1,1.260393765E-3,-7.655275986E-4,9.835973382E-3,9.945903545E-3
1.171974483E1,1.178384176E-3,-1.835506409E-4,1.467793807E-2,1.472630796E-2
1.172970083E1,6.015434628E-4,-4.037410952E-3,1.207150146E-2,1.274298589E-2
1.173965783E1,-2.217695350E-3,-2.081347629E-4,1.494074985E-2,1.510587630E-2
1.174961383E1,-5.553502124E-4,-4.339702427E-4,1.310556754E-2,1.312450550E-2
1.175957083E1,1.029858715E-3,-1.050406136E-3,1.334128529E-2,1.342214048E-2
1.176952683E1,-9.126509540E-4,-7.697092369E-4,1.370853558E-2,1.376042630E-2
1.177948383E1,4.817475565E-5,2.230599523E-3,1.177747175E-2,1.198694022E-2
1.178943983E1,-1.772095682E-3,4.827668890E-4,1.334261149E-2,1.346843229E-2
1.179939683E1,5.537193501E-4,2.061007544E-4,1.168210059E-2,1.169703197E-2
1.180935283E1,1.295675989E-3,-2.442679368E-3,1.320143417E-2,1.348789542E-2
1.181930883E1,2.790605649E-4,8.255047724E-4,1.530428603E-2,1.532907381E-2
1.182926583E1,-1.393138431E-3,-2.818377689E-4,1.393462345E-2,1.400692678E-2
1.183922183E1,-1.757167047E-3,-1.034149900E-4,1.313306764E-2,1.325050174E-2
1.184917883E1,-2.378216246E-3,1.709665172E-3,1.213571429E-2,1.248416713E-2
1.185913483E1,-1.758594532E-3,3.335417714E-3,1.446782798E-2,1.495111074E-2
1.186909183E1,-1.629431266E-3,-1.855615526E-3,1.533655077E-2,1.553409620E-2
1.187904783E1,-7.547973655E-5,9.721582755E-4,1.500234753E-2,1.503400214E-2
1.188900483E1,9.066940984E-4,-2.131490037E-3,1.186221465E-2,1.208625171E-2
1.189896083E1,2.391489921E-3,-2.097341232E-3,1.328650862E-2,1.366196822E-2
1.190891783E1,-1.256774412E-3,-1.878696494E-3,1.246785000E-2,1.267107991E-2
1.191887383E1,5.809521535E-4,1.102350652E-3,1.239455864E-2,1.245703681E-2
1.192883083E1,3.497898579E-4,-1.130443066E-3,1.387687400E-2,1.392723542E-2
1.193878683E1,6.542233750E-4,-1.217182726E-4,1.288004592E-2,1.289722476E-2
1.194874383E1,3.599440679E-4,1.132364385E-3,1.447980478E-2,1.452847395E-2
1.195869983E1,-6.048134528E-4,5.523571745E-4,1.458812505E-2,1.461110161E-2
1.196865683E1,5.989352940E-4,-3.182301298E-4,1.467840746E-2,1.469406817E-2
1.197861283E1,8.777256589E-4,5.933176726E-5,1.388379186E-2,1.391163539E-2
1.198856983E1,2.471520565E-5,8.106091991E-4,1.402680576E-2,1.405023053E-2
1.199852583E1,1.685174648E-4,-2.120248973E-4,1.096194610E-2,1.096529138E-2
1.200848283E1,-1.058933325E-3,-3.023063764E-4,1.036193594E-2,1.042029008E-2
1.201843883E1,2.344096778E-3,-1.849918626E-3,1.058452949E-2,1.099769308E-2
1.202839583E1,1.699079061E-3,2.022583969E-3,1.366394758E-2,1.391693857E-2
1.203835183E1,1.469210954E-3,1.150907017E-3,1.588300988E-2,1.599228472E-2
1.204830883E1,1.785061788E-3,-9.513925761E-4,1.700180396E-2,1.712170936E-2
1.205826483E1,-3.355769441E-4,8.256295696E-4,1.561929286E-2,1.564469832E-2
1.206822183E1,-1.590990927E-3,-1.371027902E-4,1.083013043E-2,1.094722679E-2
1.207817783E1,-1.368325436E-3,2.237012610E-3,9.100724012E-3,9.470993478E-3
1.208813483E1,-1.504413085E-3,6.630839780E-4,1.185949519E-2,1.197290964E-2
1.209809083E1,8.861998795E-4,9.365100414E-5,1.485015824E-2,1.487687200E-2
1.210804783E1,-1.563642174E-3,2.275312319E-3,1.749920473E-2,1.771564814E-2
1.211800383E1,8.762731450E-4,-1.187757589E-3,1.368588954E-2,1.376525319E-2
1.212795983E1,3.098580055E-5,1.230500638E-4,1.143312454E-2,1.143382868E-2
1.213791683E1,1.551300404E-3,-1.118393615E-3,1.053060591E-2,1.070285000E-2
1.214787283E1,-2.860145178E-4,1.666207798E-3,1.008319482E-2,1.022393616E-2
1.215782983E1,-2.854911145E-4,-5.668746307E-4,8.812986314E-3,8.835812345E-3
1.216778583E1,-5.467471201E-4,-2.556256019E-3,7.710706443E-3,8.141767074E-3
1.217774283E1,1.876000781E-3,9.662825614E-4,1.179806888E-2,1.198530393E-2
1.218769883E1,-9.740144014E-5,2.150324173E-3,1.160738617E-2,1.180528673E-2
1.219765583E1,1.593816211E-3,5.993852392E-4,1.198050752E-2,1.210091208E-2
1.220761183E1,-7.012672722E-5,-4.443079233E-4,1.325802505E-2,1.326565323E-2
1.221756883E1,-1.589893131E-3,2.271253616E-4,1.172804087E-2,1.183749504E-2
1.222752483E1,3.187018679E-3,7.211416960E-4,1.154161990E-2,1.199525420E-2
1.223748183E1,-9.546987712E-5,2.087080851E-3,1.027067751E-2,1.048102273E-2
1.224743783E1,3.724475391E-4,-5.521113053E-4,1.125045493E-2,1.127014997E-2
1.225739483E1,-2.674072050E-3,9.080953896E-4,1.013150439E-2,1.051773168E-2
1.226735083E1,3.938893788E-4,-1.822443679E-3,1.027930900E-2,1.044703994E-2
1.227730783E1,6.115516881E-4,-8.129607886E-4,1.156916842E-2,1.161380896E-2
1.228726412E1,1.150042866E-3,1.893876120E-3,1.165146008E-2,1.186026506E-2
1.229722113E1,7.370974636E-4,4.792436957E-4,1.307172701E-2,1.310126078E-2
1.230717712E1,-2.157816198E-4,-1.985512674E-3,1.082535088E-2,1.100804451E-2
1.231713413E1,-6.840892602E-4,8.498625830E-4,1.216192916E-2,1.221076433E-2
1.232709012E1,4.032794386E-4,9.768959135E-4,1.044765115E-2,1.050097017E-2
1.233704713E1,1.076374436E-3,1.260889694E-4,1.022155955E-2,1.027885013E-2
1.234700312E1,1.804482657E-3,-3.112023696E-4,1.314358041E-2,1.327052035E-2
1.235696013E1,-1.567298314E-3,1.715306193E-3,1.084115729E-2,1.108735273E-2
1.236691612E1,-6.157506723E-4,1.051646657E-3,1.097511500E-2,1.104256577E-2
1.237687313E1,-1.099895686E-3,-4.788143560E-4,1.095829532E-2,1.102375934E-2
1.238682913E1,-7.448964752E-4,6.804596633E-4,1.237722859E-2,1.241828022E-2
1.239678613E1,3.251912305E-3,1.629232429E-3,1.390481740E-2,1.437265734E-2
1.240674213E1,2.942054998E-4,-6.903810427E-4,1.457753032E-2,1.459683436E-2
1.241669913E1,5.366792902E-5,1.249509864E-3,1.595187187E-2,1.600082408E-2
1.242665513E1,-1.703485847E-3,-8.599795401E-4,1.092169061E-2,1.108714367E-2
1.243661213E1,1.680230605E-3,2.072037198E-3,1.315825805E-2,1.342595501E-2
1.244656813E1,3.013596870E-5,-7.205531001E-4,1.283468306E-2,1.285492879E-2
1.245652513E1,-3.132543061E-4,-1.016734168E-4,1.175650582E-2,1.176111792E-2
1.246648113E1,1.225786400E-3,-7.706591859E-4,1.372378320E-2,1.379995265E-2
1.247643813E1,4.923320375E-5,4.226882011E-4,1.223808527E-2,1.224548163E-2
1.248639413E1,3.384524025E-4,1.439750195E-3,1.282903925E-2,1.291401094E-2
1.249635113E1,1.749981544E-3,1.821895130E-3,1.320173964E-2,1.344126731E-2
1.250630713E1,1.274341019E-3,-9.291497990E-4,1.083631814E-2,1.095048196E-2
1.251626313E1,8.301051566E-4,-1.085885800E-3,1.224746555E-2,1.232349930E-2
1.252622013E1,-1.417602878E-3,1.013750210E-3,1.090816036E-2,1.104650396E-2
1.253617613E1,-1.846985426E-3,9.901188314E-4,1.213959232E-2,1.231914738E-2
1.254613313E1,-6.158058532E-4,-3.545116633E-4,1.044555753E-2,1.046969759E-2
1.255608913E1,2.178507159E-3,-3.203349188E-4,1.259464771E-2,1.278568179E-2
1.256604613E1,-2.497204579E-3,-6.257994100E-4,1.123297215E-2,1.152420578E-2
1.257600213E1,-1.056162175E-3,1.520100981E-3,1.199068129E-2,1.213270882E-2
1.258595913E1,-9.051610250E-4,-9.473180398E-4,1.318590343E-2,1.325084062E-2
1.259591512E1,8.395301411E-4,-2.069724724E-4,1.216245815E-2,1.219315532E-2
1.260587213E1,-1.733615994E-3,-1.774774864E-3,1.241918653E-2,1.266457439E-2
1.261582812E1,-2.716109157E-4,-1.390511170E-4,9.596098214E-3,9.600948320E-3
1.262578513E1,5.089616170E-4,-8.802087978E-4,1.157802343E-2,1.162258302E-2
1.263574112E1,3.823615145E-3,-9.934976697E-5,1.094343886E-2,1.159261649E-2
1.264569813E1,9.005294414E-4,3.395397216E-4,7.734861225E-3,7.794505672E-3
1.265565412E1,-1.402789960E-3,-1.940382645E-4,1.211014017E-2,1.219266032E-2
1.266561113E1,-2.275370061E-4,-1.242635772E-4,1.347474754E-2,1.347724140E-2
1.267556712E1,-1.843305072E-3,1.296947710E-3,1.290860772E-2,1.310389256E-2
1.268552413E1,1.977416687E-4,-1.366213895E-3,9.741041809E-3,9.838370684E-3
1.269548012E1,-1.223722938E-3,2.462730743E-3,1.119492576E-2,1.152774493E-2
1.270543713E1,-1.049288549E-4,-2.927773632E-3,1.189027727E-2,1.224587939E-2
1.271539312E1,-2.807080746E-4,1.926851459E-3,1.171918213E-2,1.187984779E-2
1.272535013E1,4.580528475E-4,-3.235200420E-4,1.384012401E-2,1.385148044E-2
1.273530612E1,1.059982344E-3,1.794082113E-3,1.438337564E-2,1.453354011E-2
1.274526313E1,1.098065521E-3,-3.934381530E-4,1.186615601E-2,1.192334684E-2
1.275521912E1,4.733898677E-4,2.138037235E-3,1.045868173E-2,1.068547260E-2
1.276517613E1,-6.909598596E-5,-8.766604587E-4,1.078544930E-2,1.082123950E-2
1.277513212E1,1.233988325E-3,2.100764774E-3,6.723787636E-3,7.151591431E-3
1.278508913E1,-1.465125475E-3,-7.458878681E-4,1.338168979E-2,1.348230555E-2
1.279504512E1,-1.724511385E-4,-9.365519509E-4,9.593166411E-3,9.640316942E-3
1.280500213E1,3.284331877E-3,-5.402741954E-4,1.064404845E-2,1.115233157E-2
1.281495812E1,9.989836253E-4,-7.253121585E-4,1.116405055E-2,1.123210001E-2
1.282491513E1,6.780726835E-4,-1.660614274E-3,1.113635674E-2,1.127988758E-2
1.283487113E1,2.760856180E-3,1.043713652E-3,1.122432575E-2,1.160591028E-2
1.284482813E1,-2.229907550E-3,5.819220096E-4,1.306749880E-2,1.326916146E-2
1.285478413E1,3.310914151E-3,-7.928041741E-4,1.015179977E-2,1.070746139E-2
1.286474113E1,-3.880984150E-5,3.294516355E-4,1.184983179E-2,1.185447418E-2
1.287469713E1,3.554829862E-3,1.489706337E-4,9.329102933E-3,9.984546516E-3
1.288465413E1,2.375582233E-3,-2.752700821E-4,8.192200214E-3,8.534126136E-3
1.289461013E1,-1.875800081E-3,5.582524464E-4,1.029577851E-2,1.048013964E-2
1.290456713E1,6.933511468E-4,-1.872947440E-3,9.890176356E-3,1.008980953E-2
1.291452313E1,1.170623116E-3,2.448312007E-3,8.883275092E-3,9.288550291E-3
1.292448013E1,2.356795128E-3,-1.658282243E-3,8.969560266E-3,9.421114299E-3
1.293443613E1,1.688275952E-3,-7.570469752E-4,1.179877296E-2,1.194296610E-2
1.294439313E1,2.138882643E-3,-3.708880395E-4,9.681560099E-3,9.921944510E-3
1.295434913E1,-1.893973444E-3,-5.046930164E-4,1.060041040E-2,1.078009977E-2
1.296430613E1,-5.330983549E-4,-4.213359207E-4,8.537527174E-3,8.564524976E-3
1.297426213E1,-4.934503231E-4,3.148956224E-3,8.880678564E-3,9.435352155E-3
1.298421912E1,-2.085754182E-3,1.950001344E-3,1.181335375E-2,1.215352634E-2
1.299417513E1,-5.138483830E-4,1.327418722E-3,1.321112737E-2,1.328758695E-2
1.300413212E1,1.431535929E-4,1.969240606E-3,1.018924266E-2,1.037877967E-2
1.301408813E1,-4.276097752E-5,-1.694486476E-3,1.126984879E-2,1.139660497E-2
1.302404413E1,-1.149326563E-4,-1.170909032E-3,1.059340686E-2,1.065854147E-2
1.303400113E1,-1.157164341E-3,-7.220134139E-4,9.804241359E-3,9.898660582E-3
1.304395812E1,-1.862369478E-3,-7.779523730E-5,1.122743264E-2,1.138111224E-2
1.305391413E1,1.031562337E-3,3.892574459E-4,1.358419657E-2,1.362886784E-2
1.306387112E1,-1.779137645E-3,-2.781235613E-3,1.197803766E-2,1.242473293E-2
1.307382713E1,-1.167458249E-3,1.207978465E-3,9.209226817E-3,9.361198070E-3
1.308378312E1,-1.870000269E-3,6.058374420E-4,9.777810425E-3,9.973440565E-3
1.309374013E1,2.263407921E-3,-6.996523589E-4,9.414352477E-3,9.707860804E-3
1.310369612E1,-2.072218107E-3,-2.198213711E-3,1.163329557E-2,1.201914294E-2
1.311365313E1,-1.659290167E-3,-1.843235455E-3,9.218599647E-3,9.546378384E-3
1.312360912E1,2.206554636E-3,-8.615944535E-4,7.920309901E-3,8.266954536E-3
1.313356613E1,8.714842843E-4,-2.722926438E-4,1.037239656E-2,1.041250395E-2
1.314352212E1,9.724181145E-4,-1.239819452E-3,8.911650628E-3,9.049876583E-3
1.315347913E1,1.768772490E-4,1.051431522E-3,1.144896448E-2,1.149850344E-2
1.316343512E1,-1.613565953E-3,-5.617737770E-5,6.857406348E-3,7.044911128E-3
1.317339213E1,-9.643596131E-4,-5.985787138E-4,9.437154979E-3,9.505165965E-3
1.318334812E1,2.478042385E-3,1.748036593E-4,9.290147573E-3,9.616553036E-3
1.319330513E1,-7.984826807E-4,3.319211770E-3,1.115077734E-2,1.166167126E-2
1.320326112E1,1.162402914E-3,-1.155431382E-3,9.386163205E-3,9.528182509E-3
1.321321813E1,1.953545492E-3,1.325898804E-3,8.285436779E-3,8.615266116E-3
1.322317412E1,-2.568780910E-4,-1.219817437E-3,9.265214205E-3,9.348696978E-3
1.323313113E1,-1.842457801E-3,8.481163532E-4,6.774920970E-3,7.072022783E-3
1.324308712E1,-1.707701944E-3,4.276037216E-4,9.249795228E-3,9.415827241E-3
1.325304413E1,-2.460732125E-3,-6.889086217E-5,9.633332491E-3,9.942889088E-3
1.326300012E1,-1.704927068E-3,-7.634796202E-5,1.069033891E-2,1.082570789E-2
1.327295713E1,5.204634508E-4,-5.947723985E-4,8.912120014E-3,8.947095594E-3
1.328291313E1,3.662663512E-4,-7.785297930E-5,1.053265482E-2,1.053930879E-2
1.329286958E1,3.393320134E-3,6.440049037E-4,8.017908782E-3,8.730190438E-3
1.330282558E1,2.475062152E-3,7.862169296E-4,8.147340268E-3,8.551211795E-3
1.331278258E1,9.889885550E-4,-4.508877173E-4,8.068550378E-3,8.141431281E-3
1.332273858E1,1.446253271E-3,-5.779201165E-4,4.031728953E-3,4.322091917E-3
1.333269558E1,-6.852275692E-5,-6.968546659E-4,7.023405284E-3,7.058223826E-3
1.334265158E1,6.920760497E-4,1.555913128E-3,1.032865420E-2,1.046809116E-2
1.335260858E1,7.240868872E-4,-1.831816509E-3,1.008511335E-2,1.027566858E-2
1.336256458E1,-1.927356469E-3,1.950937323E-3,1.069790870E-2,1.104382678E-2
1.337252158E1,-8.710217662E-4,-1.728868112E-3,8.388899267E-3,8.609372496E-3
1.338247758E1,4.749399377E-4,1.240024343E-3,8.396621794E-3,8.500969701E-3
1.339243458E1,2.071547089E-3,1.575243659E-3,5.591593683E-3,6.167545690E-3
1.340239058E1,-1.024594530E-5,-4.061479121E-4,4.618741572E-3,4.636575764E-3
1.341234758E1,-1.156946179E-3,-6.321324036E-4,7.686924189E-3,7.799161450E-3
1.342230358E1,-1.381716924E-3,-2.783168107E-3,1.040973514E-2,1.086359757E-2
1.343226058E1,-3.783202264E-4,-5.200887099E-4,1.148491725E-2,1.150291019E-2
1.344221658E1,7.758938009E-4,-3.475164995E-4,1.489935443E-2,1.492359009E-2
1.345217358E1,-1.496306853E-3,-2.394961193E-4,9.300332516E-3,9.422976043E-3
1.346212958E1,8.661834290E-4,-1.452033408E-3,5.676571280E-3,5.923017495E-3
1.347208658E1,3.854993265E-3,2.108793706E-4,4.682455212E-3,6.068840910E-3
1.348204258E1,-9.458870627E-4,-3.758156672E-4,5.893658847E-3,5.980899126E-3
1.349199958E1,9.812104981E-4,9.119212627E-4,1.126717776E-2,1.134652674E-2
1.350195558E1,1.274957089E-3,2.117762342E-4,1.152443886E-2,1.159668296E-2
1.351191258E1,-5.563383456E-4,1.046191901E-4,1.111496985E-2,1.112937610E-2
1.352186858E1,9.094655979E-4,1.814900897E-3,8.289355785E-3,8.534307955E-3
1.353182558E1,2.024801448E-3,3.309361637E-5,6.819944829E-3,7.114250738E-3
1.354178158E1,-1.321194228E-3,1.189970411E-3,5.389560014E-3,5.675292143E-3
1.355173858E1,1.056263456E-3,3.064329736E-3,7.276929915E-3,7.966148267E-3
1.356169458E1,-1.649242127E-3,-3.706160933E-4,9.895086288E-3,1.003843058E-2
1.357165158E1,2.495592926E-4,2.226112410E-3,1.198426262E-2,1.219181720E-2
1.358160758E1,-7.379408926E-4,4.772143438E-4,1.024654880E-2,1.028416514E-2
1.359156458E1,5.892460467E-4,1.266318373E-3,9.770687670E-3,9.870010672E-3
1.360152058E1,1.901918091E-3,5.185026675E-4,9.817827493E-3,1.001378421E-2
1.361147758E1,-5.836854689E-4,1.351672225E-3,9.318646044E-3,9.434239271E-3
1.362143358E1,-1.145612448E-3,-6.467634812E-4,9.430766106E-3,9.522083817E-3
1.363139058E1,-1.224735752E-5,1.034048386E-3,7.328316569E-3,7.400920875E-3
1.364134658E1,2.035190817E-3,5.269423127E-6,1.221761480E-2,1.238596548E-2
1.365130358E1,-8.991984650E-4,-3.060202114E-3,1.117717475E-2,1.162336570E-2
1.366125958E1,7.503634552E-4,-8.332664147E-4,9.228270501E-3,9.296147303E-3
1.367121658E1,-7.558148354E-4,4.797363654E-4,1.036645100E-2,1.040503288E-2
1.368117258E1,-7.323790342E-4,-1.629220322E-3,8.407428861E-3,8.595091504E-3
1.369112958E1,5.754898302E-5,9.990297258E-6,7.561821491E-3,7.562047074E-3
1.370108558E1,-1.470306423E-3,-7.056016475E-4,6.669398397E-3,6.865897585E-3
1.371104258E1,-1.055335160E-3,1.205283217E-3,8.447159082E-3,8.597728565E-3
1.372099858E1,-5.152460653E-4,-5.252752453E-5,7.324367762E-3,7.342656247E-3
1.373095558E1,1.404999290E-3,-7.855081931E-4,1.096752658E-2,1.108502077E-2
1.374091158E1,2.060935833E-3,2.539232373E-4,9.276416153E-3,9.505989173E-3
1.375086858E1,1.509997062E-3,1.046362333E-3,7.951315492E-3,8.160783254E-3
1.376082458E1,-1.160088228E-3,-2.085193992E-4,9.585428983E-3,9.657625683E-3
1.377078158E1,-5.462865811E-4,2.766819671E-4,8.778452873E-3,8.799785042E-3
1.378073758E1,-6.478698924E-5,-1.418420114E-3,1.332526654E-2,1.340070302E-2
1.379069458E1,-1.248653047E-3,1.094377600E-3,1.276033372E-2,1.286790244E-2
1.380065058E1,-2.856669482E-3,-4.505217075E-4,9.955223650E-3,1.036677425E-2
1.381060758E1,1.578502706E-3,2.178425901E-3,9.429804981E-3,9.806040596E-3
1.382056358E1,-3.733281046E-4,6.756037474E-4,6.147459149E-3,6.195729843E-3
1.383052058E1,2.627338050E-3,1.445661299E-3,5.157865584E-3,5.966273477E-3
1.384047658E1,-8.600712754E-4,-2.560988069E-4,6.961625069E-3,7.019225941E-3
1.385043358E1,-1.183352433E-4,-8.883886039E-4,9.825270623E-3,9.866062049E-3
1.386038958E1,-1.107166987E-3,-7.187454030E-4,8.850816637E-3,8.948707663E-3
1.387034658E1,2.676324919E-3,2.577519044E-4,1.051104814E-2,1.084948312E-2
1.388030258E1,3.388682380E-4,-5.217557773E-4,9.762700647E-3,9.782504010E-3
1.389025958E1,1.735452097E-3,-1.748053357E-3,8.348096162E-3,8.703918316E-3
1.390021558E1,-6.424845196E-4,1.220181584E-4,6.943542510E-3,6.974271100E-3
1.391017258E1,3.036319278E-3,4.876367748E-4,6.688650697E-3,7.361730268E-3
1.392012858E1,-2.651127521E-3,2.162605524E-4,4.485949874E-3,5.215265289E-3
1.393008558E1,-1.996955369E-3,2.632250078E-3,1.055553928E-2,1.106055969E-2
1.394004158E1,2.329349983E-3,-1.797815785E-4,7.474794984E-3,7.831395330E-3
1.394999858E1,-2.206708305E-4,2.703955397E-3,1.076406613E-2,1.110068422E-2
1.395995458E1,-4.744702019E-4,-7.586870342E-4,9.737152606E-3,9.778183311E-3
1.396991158E1,1.019863412E-4,-1.085251570E-4,1.017094404E-2,1.017203428E-2
1.397986758E1,6.705713458E-4,-6.568692625E-4,7.988221943E-3,8.043185499E-3
1.398982458E1,1.949284575E-3,-1.558916643E-3,8.928392082E-3,9.270712844E-3
1.399978058E1,1.557000913E-3,4.776846617E-5,1.129594445E-2,1.140284591E-2
1.400973758E1,1.797446981E-3,2.753484994E-3,1.099921390E-2,1.148020913E-2
1.401969358E1,2.742744982E-6,9.161699563E-4,8.746180683E-3,8.794034993E-3
1.402965058E1,3.223940730E-4,9.039556608E-4,7.275484502E-3,7.338511328E-3
1.403960658E1,8.592873346E-4,-5.131121725E-4,6.348174065E-3,6.426583290E-3
1.404956358E1,3.798343241E-4,-3.491602838E-4,5.894310772E-3,5.916847683E-3
1.405951958E1,7.071366999E-4,-1.065470278E-4,7.857590914E-3,7.890065244E-3
1.406947658E1,1.245569438E-3,2.939375117E-4,7.929202169E-3,8.031817324E-3
1.407943258E1,1.200828352E-3,-1.218205318E-3,8.769161999E-3,8.934439831E-3
1.408938958E1,-2.929689828E-3,1.039179973E-3,8.858535439E-3,9.388110972E-3
1.409934558E1,4.274912644E-4,-2.467936836E-3,8.431896567E-3,8.796041197E-3
1.410930258E1,1.290130545E-3,1.024768688E-3,7.379796356E-3,7.561480142E-3
1.411925858E1,7.170182653E-4,-8.869916201E-5,4.580281675E-3,4.636913085E-3
1.412921558E1,3.093653359E-4,-1.386888325E-4,4.636127502E-3,4.648507257E-3
1.413917158E1,-7.489749696E-4,-2.239656635E-3,6.410855800E-3,6.831990737E-3
1.414912858E1,1.348895254E-3,4.659378901E-4,5.864258856E-3,6.035407894E-3
1.415908458E1,5.853669718E-4,-5.569821224E-4,8.326616138E-3,8.365728892E-3
1.416904158E1,-2.177155111E-4,1.725321636E-4,7.781106979E-3,7.786064038E-3
1.417899758E1,1.547161490E-3,-3.760792315E-4,8.920405060E-3,9.061389005E-3
1.418895458E1,-1.263507875E-3,-2.924545668E-3,8.990917355E-3,9.538658941E-3
1.419891058E1,-5.298070610E-4,3.324998543E-4,6.196729839E-3,6.228219037E-3
1.420886758E1,9.042137535E-4,-7.828138769E-4,1.031275839E-2,1.038187775E-2
1.421882358E1,5.013798364E-5,-1.497808844E-4,7.303919643E-3,7.305627303E-3
1.422878058E1,-2.623666078E-4,7.037390023E-4,9.761009365E-3,9.789861524E-3
1.423873658E1,-2.506612567E-3,-1.323725097E-3,1.156210527E-2,1.190452153E-2
1.424869358E1,-7.858073805E-4,1.256534830E-3,9.818851948E-3,9.930066797E-3
1.425864958E1,1.404376235E-3,-2.558743581E-4,9.018301964E-3,9.130581285E-3
1.426860658E1,-2.573421225E-4,1.363881864E-3,6.826415658E-3,6.966085661E-3
1.427856258E1,-2.530083992E-3,9.987624362E-4,6.401110440E-3,6.955074858E-3
1.428851971E1,-1.519958954E-3,6.467010826E-4,8.086286485E-3,8.253273692E-3
1.429847571E1,-9.005076718E-4,6.805229932E-4,8.319843560E-3,8.396059938E-3
1.430843271E1,7.837763987E-4,-9.139208123E-4,8.218716830E-3,8.306435037E-3
1.431838871E1,-1.857813215E-3,-5.946075544E-4,9.698633105E-3,9.892851570E-3
1.432834571E1,1.930935308E-3,7.256036624E-4,8.925382048E-3,9.160647168E-3
1.433830171E1,-1.264591701E-3,-1.231020316E-3,8.899282664E-3,9.072587014E-3
1.434825871E1,1.696760301E-4,8.504651487E-5,6.326992065E-3,6.329838185E-3
1.435821471E1,-7.216839585E-4,-1.023361459E-3,6.596501917E-3,6.714308151E-3
1.436817171E1,-7.083804812E-4,2.735573798E-5,6.094206125E-3,6.135299465E-3
1.437812771E1,-3.785396926E-3,-9.128823876E-6,8.414354175E-3,9.226628280E-3
1.438808471E1,1.520470018E-3,-4.970161244E-4,9.289711714E-3,9.426430811E-3
1.439804071E1,-1.687307609E-3,-1.006478444E-3,1.175020635E-2,1.191332679E-2
1.440799771E1,1.396336011E-3,-3.100167960E-4,1.053471863E-2,1.063137627E-2
1.441795371E1,9.888723725E-4,-1.527880318E-3,1.213554293E-2,1.227125458E-2
1.442791071E1,3.355182707E-4,-6.626676768E-4,6.004452705E-3,6.050219273E-3
1.443786671E1,-6.759504322E-4,-9.939642623E-4,4.436116666E-3,4.596085836E-3
1.444782371E1,3.121194895E-4,-6.124395877E-4,4.979662597E-3,5.026881778E-3
1.445777971E1,1.254612231E-3,1.163090579E-3,6.260909140E-3,6.490440263E-3
1.446773671E1,1.522128703E-3,2.664360218E-3,7.068041712E-3,7.705381548E-3
1.447769271E1,4.526032135E-4,1.308811828E-3,1.190780103E-2,1.198805920E-2
1.448764971E1,-1.233365387E-3,7.879119366E-4,1.022529230E-2,1.032950134E-2
1.449760671E1,-1.256268471E-3,7.016258314E-4,6.907790899E-3,7.056065787E-3
1.450756271E1,-1.885224134E-3,2.083498985E-3,9.516622871E-3,9.922759139E-3
1.451751871E1,5.994853564E-5,9.127734229E-4,6.153583527E-3,6.221200798E-3
1.452747571E1,-2.123163547E-3,-6.455779076E-4,4.059545696E-3,4.626500356E-3
1.453743271E1,-2.647540066E-3,2.476470545E-4,6.744813174E-3,7.250055325E-3
1.454738871E1,9.766221046E-5,4.128739238E-5,5.101855844E-3,5.102957536E-3
1.455734571E1,2.122949809E-5,6.362367421E-4,6.334099919E-3,6.366008927E-3
1.456730171E1,-8.838453796E-4,1.453207806E-4,6.744563580E-3,6.803781203E-3
1.457725871E1,-2.225545933E-3,-8.589578792E-4,8.969634771E-3,9.281444460E-3
1.458721471E1,-7.088326383E-4,1.744265668E-3,1.085995138E-2,1.102195311E-2
1.459717171E1,-1.297391253E-3,1.197252423E-3,8.147522807E-3,8.336591949E-3
1.460712771E1,3.919599112E-4,-9.787827730E-4,8.015099913E-3,8.084149609E-3
1.461708471E1,9.235413745E-5,-1.420600340E-3,5.045406520E-3,5.242400363E-3
1.462704071E1,-2.782402094E-3,2.067238092E-4,7.063113153E-3,7.594212504E-3
1.463699771E1,2.197709167E-3,-9.730560705E-4,9.662892669E-3,9.957321851E-3
1.464695371E1,3.459672909E-3,2.859253436E-5,1.087348908E-2,1.141064937E-2
1.465691071E1,-2.808342921E-3,8.701514453E-4,1.202637702E-2,1.238053706E-2
1.466686671E1,2.833420876E-4,1.030003652E-3,8.030053228E-3,8.100799041E-3
1.467682371E1,-1.087120734E-3,3.365166485E-4,4.602298141E-3,4.740909525E-3
1.468677971E1,4.788568476E-4,-1.268957742E-3,4.607994109E-3,4.803453689E-3
1.469673671E1,4.034894519E-4,-2.259854227E-5,4.235684872E-3,4.254919595E-3
1.470669271E1,-7.143584080E-4,-9.079976007E-4,6.070539355E-3,6.179499627E-3
1.471664971E1,3.420199268E-3,-2.943984233E-3,1.110391319E-2,1.198589564E-2
1.472660571E1,1.715136459E-3,-5.567893386E-4,1.109061018E-2,1.123625122E-2
1.473656271E1,-4.023427609E-4,-1.272380352E-3,7.147267461E-3,7.270781500E-3
1.474651871E1,-2.500058850E-3,-1.915998757E-3,6.089374423E-3,6.855787800E-3
1.475647571E1,-1.067810692E-3,-1.380703412E-3,6.597772241E-3,6.824746158E-3
1.476643171E1,2.722366946E-3,1.497075893E-3,7.628381252E-3,8.236790549E-3
1.477638871E1,-6.803539582E-4,-6.853844970E-4,4.955101758E-3,5.048333077E-3
1.478634471E1,-1.043048687E-3,-2.830522135E-4,8.723095059E-3,8.789792747E-3
1.479630171E1,9.916062700E-4,-1.935010776E-3,7.287915796E-3,7.605344591E-3
1.480625771E1,4.456844181E-6,-8.485447615E-4,9.871117771E-3,9.907523107E-3
1.481621471E1,8.113947697E-4,8.723894134E-4,1.189671457E-2,1.195622191E-2
1.482617071E1,-8.074124344E-4,7.398873568E-4,9.419396520E-3,9.482846563E-3
1.483612771E1,1.167055219E-3,1.425385475E-3,7.521096617E-3,7.743425338E-3
1.484608371E1,1.224384992E-3,5.613677204E-4,4.901595414E-3,5.083295184E-3
1.485604071E1,1.215330325E-3,1.600001007E-3,7.576208562E-3,7.838109925E-3
1.486599671E1,1.925631892E-3,1.086387783E-3,5.216527730E-3,5.665726622E-3
1.487595371E1,-1.237404533E-3,-1.590888016E-3,9.662944824E-3,9.870896480E-3
1.488590971E1,1.550486195E-3,-8.575720713E-4,8.697278798E-3,8.875927883E-3
1.489586671E1,-5.044089630E-4,2.851905301E-4,5.775257945E-3,5.804254162E-3
1.490582271E1,-1.970638987E-4,-2.260357141E-4,5.541425198E-3,5.549533273E-3
1.491577971E1,6.162653444E-4,-7.078014314E-4,5.357932299E-3,5.439504055E-3
1.492573571E1,1.452284167E-3,-4.739994183E-4,5.743540823E-3,5.943236992E-3
1.493569271E1,-3.370167688E-3,1.149197109E-3,8.556637913E-3,9.267941336E-3
1.494564871E1,1.283970196E-3,1.267844811E-3,6.731100380E-3,6.968767628E-3
1.495560571E1,-7.576090284E-4,1.015643589E-3,9.758584201E-3,9.840501458E-3
1.496556171E1,3.703224938E-4,1.788403839E-3,7.670313120E-3,7.884746692E-3
1.497551871E1,-5.330217537E-4,1.094117761E-3,7.850609720E-3,7.944386624E-3
1.498547471E1,-1.618651673E-3,1.293684356E-3,5.081187934E-3,5.487451437E-3
1.499543171E1,-1.042077551E-3,-2.329546958E-3,5.747508258E-3,6.288606032E-3
1.500538771E1,1.310767373E-3,9.548291564E-5,5.377382040E-3,5.535654044E-3
1.501534471E1,7.315297844E-4,-3.418074921E-4,9.883981198E-3,9.916907407E-3
1.502530071E1,-2.683782950E-4,-1.651675440E-3,8.773677051E-3,8.931823311E-3
1.503525771E1,-1.238567755E-3,-1.833835617E-3,6.969388574E-3,7.312275997E-3
1.504521471E1,-3.767223097E-5,4.940731451E-4,7.261473686E-3,7.278360224E-3
1.505517071E1,-5.391752347E-5,1.209131442E-3,8.237786591E-3,8.326225667E-3
1.506512771E1,-1.095863990E-5,5.883192644E-4,6.742272526E-3,6.767900595E-3
1.507508371E1,-9.326785803E-4,-8.926652372E-4,6.299652159E-3,6.430579903E-3
1.508504071E1,2.474308945E-3,-1.036413014E-3,5.645368248E-3,6.250323140E-3
1.509499671E1,7.259438280E-4,-2.313395962E-4,6.212621927E-3,6.259167969E-3
1.510495371E1,9.172904538E-4,-2.927687019E-4,8.446838707E-3,8.501542179E-3
1.511490971E1,-4.390573595E-4,9.184367955E-4,6.811656058E-3,6.887303955E-3
1.512486671E1,4.988079891E-4,1.841716468E-3,6.794750690E-3,7.057575073E-3
1.513482271E1,-1.953164581E-3,6.798654795E-6,8.556433022E-3,8.776528024E-3
1.514477971E1,4.768657964E-4,2.527637407E-4,9.504057467E-3,9.519369666E-3
1.515473571E1,1.351447892E-3,-4.412559792E-4,9.453192353E-3,9.559496007E-3
1.516469271E1,2.363054780E-3,-3.246236593E-4,9.673278779E-3,9.963018155E-3
1.517464871E1,-2.670830581E-4,-1.405334100E-3,7.308654487E-3,7.447330240E-3
1.518460571E1,-2.190077677E-3,-7.492359728E-4,4.490472376E-3,5.051943877E-3
1.519456171E1,1.563647995E-3,-5.990341306E-4,6.681721658E-3,6.888340965E-3
1.520451871E1,3.225489054E-4,-1.050527208E-3,2.743225545E-3,2.955153397E-3
1.521447471E1,6.929945666E-4,-6.704935804E-4,5.099054426E-3,5.189427632E-3
1.522443171E1,-5.024950951E-6,5.357982591E-4,9.995058179E-3,1.000941022E-2
1.523438771E1,2.672517207E-3,-2.007786185E-3,9.922355413E-3,1.047027653E-2
1.524434471E1,2.660626778E-3,-1.088881865E-3,1.104155183E-2,1.140966544E-2
1.525430071E1,-1.058211317E-3,-1.142944209E-3,1.041278243E-2,1.052863574E-2
1.526425771E1,-1.299977535E-3,-3.317445517E-4,6.087381393E-3,6.233474814E-3
1.527421371E1,-1.321814489E-4,-8.966308087E-5,5.120389163E-3,5.122879716E-3
1.528417071E1,4.178637173E-4,-6.642602384E-4,4.060689360E-3,4.135825169E-3
1.529412700E1,1.162749948E-3,1.360205933E-4,2.797551453E-3,3.032619854E-3
1.530408400E1,1.349064405E-3,8.869543672E-4,5.709867924E-3,5.933738664E-3
1.531404000E1,1.069166115E-3,-1.434227452E-4,-1.678805798E-3,1.995513762E-3
1.532399700E1,-6.115499418E-4,7.628286257E-4,-8.202694356E-3,8.260756355E-3
1.533395300E1,3.266816493E-4,-1.008439809E-3,-1.048076153E-2,1.053423153E-2
1.534391000E1,2.579952125E-4,-8.566910401E-4,-1.469578594E-2,1.472299580E-2
1.535386600E1,9.530803654E-4,-6.439043209E-4,-1.439698040E-2,1.444285359E-2
1.536382300E1,-1.622387208E-3,-1.235011965E-3,-1.413285732E-2,1.427918243E-2
1.537377900E1,1.576698851E-4,1.316829585E-3,-1.571477577E-2,1.577063973E-2
1.538373600E1,2.559717977E-3,-4.146285355E-4,-1.944784075E-2,1.961995369E-2
1.539369200E1,9.287981084E-4,-6.215563044E-4,-2.307160199E-2,2.309865400E-2
1.540364900E1,-1.280644443E-3,1.677950844E-3,-3.115026839E-2,3.122170383E-2
1.541360600E1,-1.000480028E-3,2.982633188E-3,-2.841333672E-2,2.858696844E-2
1.542356200E1,-1.987831201E-4,2.283975482E-5,-3.244698793E-2,3.244760487E-2
1.543351900E1,-8.808188140E-4,-3.313608468E-4,-3.310718387E-2,3.312055654E-2
1.544347500E1,1.506817061E-4,1.878925599E-3,-3.276932985E-2,3.282349837E-2
1.545343200E1,1.701174071E-3,-6.995471194E-4,-3.851989284E-2,3.856378488E-2
1.546338800E1,3.762513166E-3,-1.960594207E-3,-4.077772796E-2,4.099784790E-2
1.547334500E1,2.737722825E-4,-3.007482737E-3,-4.568833113E-2,4.578802796E-2
1.548330100E1,4.416008014E-4,-8.769398555E-4,-4.981073737E-2,4.982041341E-2
1.549325800E1,1.740158070E-3,8.597066626E-4,-5.257536471E-2,5.261117961E-2
1.550321400E1,6.208706181E-4,-5.059642717E-4,-4.928759113E-2,4.929409822E-2
1.551317100E1,2.288531978E-4,-5.131540820E-4,-4.594053328E-2,4.594396913E-2
1.552312700E1,-1.862328500E-4,-1.345569268E-3,-4.478715360E-2,4.480774896E-2
1.553308400E1,7.610534085E-4,-7.564779371E-4,-4.810092598E-2,4.811289371E-2
1.554304000E1,4.530311562E-4,-1.603257842E-3,-5.029481277E-2,5.032239923E-2
1.555299700E1,-2.130501438E-3,3.002413549E-3,-4.917788133E-2,4.931548981E-2
1.556295300E1,1.235489617E-3,-2.413196489E-3,-5.050421506E-2,5.057692844E-2
1.557291000E1,1.169176889E-3,-3.085006028E-4,-4.838380590E-2,4.839891342E-2
1.558286600E1,1.290758373E-3,-2.095087431E-3,-4.818769917E-2,4.825049015E-2
1.559282300E1,-8.290004916E-5,-1.348869875E-3,-4.728808254E-2,4.730738920E-2
1.560277900E1,2.125828993E-3,2.701273188E-4,-4.939142987E-2,4.943789500E-2
1.561273600E1,-2.452677581E-3,-8.406769484E-4,-5.036827922E-2,5.043496720E-2
1.562269200E1,-6.856925320E-4,-1.901865937E-3,-5.135927722E-2,5.139905276E-2
1.563264900E1,2.696923912E-5,-2.137822099E-3,-4.997523129E-2,5.002094315E-2
1.564260500E1,8.412012830E-4,1.083142124E-3,-4.965076596E-2,4.966970280E-2
1.565256200E1,1.502996776E-3,-2.741689794E-3,-4.753728211E-2,4.763999425E-2
1.566251800E1,3.780752886E-4,-2.216733992E-4,-4.852063954E-2,4.852261886E-2
1.567247500E1,-7.636218797E-4,3.274707124E-4,-4.953423887E-2,4.954120685E-2
1.568243100E1,-8.099300321E-4,-1.146129332E-3,-4.877930880E-2,4.879949350E-2
1.569238800E1,1.516074874E-3,-9.218910709E-4,-5.172370002E-2,5.175412553E-2
1.570234400E1,1.542014536E-3,1.769293100E-3,-4.667688906E-2,4.673585539E-2
1.571230100E1,-1.996927895E-4,-6.358074024E-4,-4.854695871E-2,4.855153271E-2
1.572225700E1,-4.751991946E-4,-6.786966696E-4,-4.546082765E-2,4.546837686E-2
1.573221400E1,-7.281994913E-4,-1.876320690E-3,-4.766725376E-2,4.770972579E-2
1.574217100E1,1.145284274E-3,1.358110458E-4,-4.907486960E-2,4.908841969E-2
1.575212700E1,7.660501869E-4,-8.154697716E-4,-5.044426769E-2,5.045667415E-2
1.576208400E1,2.860526554E-3,1.883367077E-4,-5.178729817E-2,5.186658206E-2
1.577204000E1,1.739601954E-3,-2.580089495E-4,-4.919337854E-2,4.922480346E-2
1.578199700E1,1.678772969E-3,-1.459060237E-3,-4.930196702E-2,4.935211331E-2
1.579195300E1,2.536843531E-3,-9.567886591E-4,-4.750513285E-2,4.758244074E-2
1.580191000E1,-2.256478881E-3,-9.305439889E-4,-4.858500510E-2,4.864627766E-2
1.581186600E1,7.166742580E-4,5.565648898E-4,-4.821243137E-2,4.822096977E-2
1.582182300E1,2.894352656E-4,-5.374355242E-4,-4.966921732E-2,4.967296809E-2
1.583177900E1,-1.591821900E-3,6.150919944E-5,-4.867825285E-2,4.870431172E-2
1.584173600E1,2.810407663E-3,-3.135079518E-3,-4.788702726E-2,4.807176401E-2
1.585169200E1,2.483105287E-3,-1.480990089E-3,-4.878424853E-2,4.886984805E-2
1.586164900E1,-1.868789550E-4,-1.052656211E-3,-4.636931047E-2,4.638163389E-2
1.587160500E1,1.960427966E-3,-5.290787667E-4,-4.664654657E-2,4.669072188E-2
1.588156200E1,2.756628674E-3,8.412953466E-4,-4.776586220E-2,4.785273629E-2
1.589151800E1,7.713912055E-6,1.896706410E-3,-4.771685973E-2,4.775454174E-2
