"Time (s)","Gyroscope x (rad/s)","Gyroscope y (rad/s)","Gyroscope z (rad/s)","Absolute (rad/s)"
8.828750000E-3,1.015611459E-3,4.483126104E-4,6.666138023E-2,6.667062370E-2
1.878575000E-2,-3.591121640E-4,1.482152380E-3,7.078368962E-2,7.080011619E-2
2.874175000E-2,-1.040047035E-3,1.243277453E-3,7.433200628E-2,7.434967783E-2
3.869875000E-2,-7.649424952E-4,1.816655509E-3,7.526251674E-2,7.528832446E-2
4.865475000E-2,-2.758261748E-3,1.365384087E-4,7.815580815E-2,7.820458425E-2
5.861175000E-2,-2.720977180E-3,2.579782158E-4,8.286214620E-2,8.290721044E-2
6.856775000E-2,-1.963677118E-3,1.187358983E-3,8.392649144E-2,8.395785737E-2
7.852475000E-2,-1.512537710E-3,8.853562176E-4,8.421944082E-2,8.423767469E-2
8.848175000E-2,-1.653599553E-3,-8.402839303E-4,8.979991823E-2,8.981907249E-2
9.843775000E-2,9.027686901E-4,2.666832879E-3,9.298931807E-2,9.303193142E-2
1.083947500E-1,-1.806257991E-3,3.073077649E-3,9.738194942E-2,9.744716747E-2
1.183507500E-1,-2.130098408E-3,-1.948312856E-3,9.635850042E-2,9.640173155E-2
1.283077500E-1,1.740949228E-3,2.779725939E-3,9.700349718E-2,9.705893182E-2
1.382637500E-1,-1.577083021E-3,-7.431032136E-4,9.862589836E-2,9.864130586E-2
1.482207500E-1,-2.307002433E-3,-4.620756954E-5,1.018601879E-1,1.018863204E-1
1.581777500E-1,-1.753331162E-3,1.523725688E-3,1.075095534E-1,1.075346455E-1
1.681337500E-1,4.341966705E-4,1.553137787E-3,1.110924557E-1,1.111041605E-1
1.780907500E-1,-1.471827738E-3,2.530517988E-3,1.135478914E-1,1.135856216E-1
1.880467500E-1,-2.933928277E-3,1.486634836E-3,1.188363209E-1,1.188818287E-1
1.980036250E-1,-2.628730144E-3,1.097546890E-3,1.180813164E-1,1.181156726E-1
2.079596250E-1,-9.987112135E-4,2.061964013E-3,1.201799661E-1,1.202018027E-1
2.179166250E-1,7.437950699E-4,7.759230211E-4,1.134661436E-1,1.134712344E-1
2.278726250E-1,-1.401099842E-3,3.242637962E-3,1.110822707E-1,1.111384211E-1
2.378296250E-1,-7.214611396E-4,1.878567040E-3,1.073698252E-1,1.073886814E-1
2.477866250E-1,-1.706331270E-3,3.368093632E-3,1.089146659E-1,1.089800902E-1
2.577426250E-1,-6.067119539E-4,8.572656661E-4,1.106164232E-1,1.106214088E-1
2.676996250E-1,-1.645613927E-3,2.818994224E-3,1.134236977E-1,1.134706568E-1
2.776556250E-1,-1.854028087E-4,-1.063096337E-3,1.137611195E-1,1.137662378E-1
2.876126250E-1,-3.148535034E-3,1.356005669E-5,1.112115309E-1,1.112560922E-1
2.975686250E-1,-2.793801716E-3,-6.860522553E-4,1.114248484E-1,1.114619794E-1
3.075256250E-1,-1.492264913E-3,3.423392773E-4,1.122345328E-1,1.122449750E-1
3.174816250E-1,-2.012380399E-3,7.644500583E-4,1.120635569E-1,1.120842310E-1
3.274386250E-1,2.830861602E-3,7.363576442E-4,1.154165044E-1,1.154535642E-1
3.373956250E-1,-5.193951074E-4,2.896181308E-3,1.121972799E-1,1.122358555E-1
3.473516250E-1,-1.137119485E-3,1.659061760E-3,1.113448367E-1,1.113630018E-1
3.573086250E-1,3.417338012E-4,5.764868110E-4,1.117360517E-1,1.117380615E-1
3.672646250E-1,-3.437830601E-3,9.981160983E-4,1.100678518E-1,1.101260502E-1
3.772216250E-1,-1.603178913E-3,2.785096876E-3,1.138008013E-1,1.138461652E-1
3.871776250E-1,-2.435076050E-3,1.384858042E-3,1.188408211E-1,1.188738330E-1
3.971346250E-1,2.543437295E-3,2.877026796E-3,1.187566668E-1,1.188187370E-1
4.070916250E-1,-2.295090817E-4,1.297146082E-4,1.158027723E-1,1.158030724E-1
4.170476250E-1,-1.946715405E-3,2.965714782E-3,1.138096601E-1,1.138649371E-1
4.270046250E-1,-3.169721458E-3,-2.734586596E-4,1.098226234E-1,1.098686968E-1
4.369606250E-1,1.841548714E-3,1.865060069E-3,1.066894159E-1,1.067216061E-1
4.469176250E-1,-8.539240807E-4,4.342077300E-4,1.084095165E-1,1.084137491E-1
4.568736250E-1,-1.361788949E-3,-1.394584775E-3,1.139337122E-1,1.139503845E-1
4.668306250E-1,-1.962931594E-3,1.038835384E-3,1.177534536E-1,1.177743949E-1
4.767866250E-1,-2.957924735E-4,5.650594831E-4,1.178389415E-1,1.178406675E-1
4.867436250E-1,-2.017101739E-3,9.316476062E-4,1.165773720E-1,1.165985434E-1
4.967006250E-1,4.220874980E-4,6.474880502E-4,1.139887795E-1,1.139913999E-1
5.066566250E-1,-9.994402062E-4,7.427791134E-4,1.111608818E-1,1.111678562E-1
5.166136250E-1,-6.143469363E-4,7.214741781E-4,1.114136130E-1,1.114176427E-1
5.265696250E-1,-2.545709023E-3,2.512001432E-3,1.107380986E-1,1.107958360E-1
5.365266250E-1,1.622404321E-3,-7.099937648E-5,1.110805869E-1,1.110924571E-1
5.464826250E-1,-1.301981509E-3,7.019313052E-4,1.147435084E-1,1.147530417E-1
5.564396250E-1,-1.112098107E-3,-5.893409252E-5,1.168268993E-1,1.168322072E-1
5.663956250E-1,5.946331657E-5,-1.162131317E-3,1.158228889E-1,1.158287343E-1
5.763526250E-1,-3.301712219E-3,1.517541707E-3,1.138731912E-1,1.139311542E-1
5.863096250E-1,1.637148671E-4,-2.098517492E-3,1.095083430E-1,1.095285706E-1
5.962656250E-1,4.601246910E-4,1.456269063E-3,1.089602634E-1,1.089709660E-1
6.062226250E-1,-1.498596976E-3,1.007094979E-4,1.121703982E-1,1.121804536E-1
6.161786250E-1,2.545679221E-3,1.651201397E-3,1.153643280E-1,1.154042249E-1
6.261356250E-1,-7.671015337E-4,3.337711096E-4,1.149843410E-1,1.149873842E-1
6.360916250E-1,-1.439219341E-4,3.022764809E-3,1.163433567E-1,1.163827069E-1
6.460486250E-1,5.699199392E-4,2.307436429E-3,1.162597835E-1,1.162840760E-1
6.560056250E-1,-5.938508548E-5,2.869097516E-3,1.102279872E-1,1.102653364E-1
6.659616250E-1,-2.182570053E-3,2.906915732E-3,1.069295481E-1,1.069913175E-1
6.759186250E-1,1.174876932E-3,1.339379698E-3,1.087444872E-1,1.087590813E-1
6.858746250E-1,1.208762405E-3,2.363479696E-3,1.141199023E-1,1.141507741E-1
6.958316250E-1,-1.320974436E-3,1.658396795E-4,1.210001856E-1,1.210075097E-1
7.057876250E-1,-1.557291485E-3,4.960787948E-3,1.195977256E-1,1.197106952E-1
7.157446250E-1,3.479339648E-4,2.906159498E-3,1.139659435E-1,1.140035223E-1
7.257006250E-1,1.737493789E-3,-1.636240631E-4,1.067346260E-1,1.067488925E-1
7.356576250E-1,-1.344582532E-3,9.525064379E-4,1.077681929E-1,1.077807894E-1
7.456146250E-1,-6.248720456E-4,2.185683697E-3,1.085810363E-1,1.086048301E-1
7.555706250E-1,-2.796946093E-3,-6.090374663E-4,1.166019440E-1,1.166370746E-1
7.655276250E-1,5.586728221E-4,5.586817861E-5,1.182522327E-1,1.182535656E-1
7.754836250E-1,-3.483206732E-3,3.661261871E-4,1.204458848E-1,1.204967964E-1
7.854406250E-1,-4.886758979E-4,2.501417883E-3,1.181531549E-1,1.181806410E-1
7.953966250E-1,3.977444954E-3,2.765869722E-3,1.144396439E-1,1.145421416E-1
8.053536250E-1,-3.403061302E-3,1.918515190E-3,1.105705723E-1,1.106395634E-1
8.153096250E-1,-2.031799639E-3,-1.062627882E-3,1.067292318E-1,1.067538585E-1
8.252666250E-1,2.838453744E-3,1.492736861E-3,1.079448313E-1,1.079924612E-1
8.352236250E-1,-6.564124487E-4,1.737214625E-3,1.114343703E-1,1.114498437E-1
8.451796250E-1,9.069518419E-4,3.060214221E-4,1.162887216E-1,1.162926609E-1
8.551366250E-1,-1.772188116E-3,8.197454736E-4,1.191273853E-1,1.191433866E-1
8.650926250E-1,1.101500005E-3,2.280755900E-3,1.135957241E-1,1.136239574E-1
8.750496250E-1,1.261289697E-3,-1.316641457E-3,1.139347479E-1,1.139493360E-1
8.850056250E-1,1.802371698E-3,-1.961579546E-4,1.107782722E-1,1.107931072E-1
8.949626250E-1,-1.897558104E-3,1.503191888E-4,1.052450240E-1,1.052622363E-1
9.049196250E-1,-1.975302119E-3,6.731301546E-4,1.071276367E-1,1.071479606E-1
9.148756250E-1,7.957172347E-4,1.361557283E-3,1.085428447E-1,1.085543004E-1
9.248326250E-1,1.656569075E-4,-8.042911068E-4,1.146229059E-1,1.146258473E-1
9.347886250E-1,-3.145108931E-4,1.269512810E-3,1.187995449E-1,1.188067441E-1
9.447456250E-1,7.719943533E-4,1.774697565E-3,1.222829968E-1,1.222983108E-1
9.547016250E-1,-2.080517588E-3,2.536095679E-3,1.228249520E-1,1.228687477E-1
9.646586250E-1,5.550679052E-4,3.593527712E-3,1.152419299E-1,1.152992799E-1
9.746146250E-1,-1.493435586E-3,-2.744477242E-4,1.059914380E-1,1.060023142E-1
9.845716250E-1,-1.102837967E-3,2.244757488E-4,1.036214605E-1,1.036275722E-1
9.945286250E-1,-1.286596060E-3,3.192843869E-4,1.065876931E-1,1.065959361E-1
1.004484625E0,-2.809194848E-4,1.940539107E-3,1.124159172E-1,1.124330158E-1
1.014441625E0,3.410754260E-3,1.125345938E-3,1.161707044E-1,1.162262113E-1
1.024397625E0,5.183012690E-4,2.522353083E-3,1.161233112E-1,1.161518588E-1
1.034354625E0,-1.200502738E-3,-1.246552914E-3,1.157968044E-1,1.158097363E-1
1.044310625E0,-3.157107392E-3,-1.383461058E-4,1.089263037E-1,1.089721345E-1
1.054267625E0,-2.964027924E-3,7.630418986E-5,1.096048728E-1,1.096449699E-1
1.064223625E0,-3.208097303E-3,7.909815758E-4,1.096418649E-1,1.096916409E-1
1.074180625E0,5.032841582E-4,1.182466745E-3,1.146483421E-1,1.146555445E-1
1.084137625E0,-1.352987951E-3,3.579311538E-3,1.186767742E-1,1.187384469E-1
1.094093625E0,-3.628246486E-4,1.345185563E-3,1.170178950E-1,1.170261890E-1
1.104050625E0,-4.567469005E-4,6.204638630E-4,1.134873033E-1,1.134899185E-1
1.114006625E0,-3.704471979E-3,-1.256265678E-3,1.090659276E-1,1.091360521E-1
1.123963625E0,-8.235173300E-5,-1.990413293E-4,1.100306585E-1,1.100308694E-1
1.133919625E0,-2.028323244E-3,-3.851959482E-4,1.136256605E-1,1.136444156E-1
1.143876625E0,6.652262527E-4,1.630241983E-3,1.178839654E-1,1.178971141E-1
1.153832625E0,-7.015080191E-4,8.411472663E-4,1.172264293E-1,1.172315459E-1
1.163789625E0,-4.016340245E-4,1.731375232E-3,1.165523380E-1,1.165658889E-1
1.173746625E0,3.805384040E-5,2.521002665E-3,1.156703010E-1,1.156977763E-1
1.183702625E0,1.489145216E-4,-1.295649447E-3,1.132724583E-1,1.132799660E-1
1.193660417E0,-2.805862576E-3,2.590169199E-3,1.126079932E-1,1.126727206E-1
1.203616417E0,-6.776840892E-4,6.753131747E-4,1.101254895E-1,1.101296452E-1
1.213573417E0,4.085246474E-6,-1.503684558E-3,1.122003645E-1,1.122104401E-1
1.223529417E0,-3.389357589E-3,9.816642851E-4,1.123437509E-1,1.123991538E-1
1.233486417E0,-3.107328899E-3,-9.989291430E-4,1.128100678E-1,1.128572760E-1
1.243442417E0,-1.045297831E-4,3.601037897E-3,1.143727675E-1,1.144294907E-1
1.253399417E0,-9.487520438E-4,2.759212628E-3,1.154074073E-1,1.154442854E-1
1.263356417E0,-2.307124669E-3,-1.157056540E-4,1.146946698E-1,1.147179302E-1
1.273312417E0,-3.614203772E-3,5.979649723E-5,1.136437878E-1,1.137012601E-1
1.283269417E0,-1.866246574E-3,3.973785788E-4,1.134415343E-1,1.134575802E-1
1.293225417E0,3.658188507E-5,-3.214087337E-4,1.121144816E-1,1.121149483E-1
1.303182417E0,-5.182113964E-4,1.826895401E-3,1.137976348E-1,1.138134780E-1
1.313138417E0,-6.596252788E-4,1.269495115E-3,1.122506037E-1,1.122597201E-1
1.323095417E0,4.051334690E-4,1.120052300E-3,1.111306772E-1,1.111370598E-1
1.333051417E0,-8.827710990E-4,1.231905073E-3,1.128606647E-1,1.128708400E-1
1.343008417E0,-1.077975612E-3,-5.573686212E-4,1.120281219E-1,1.120346946E-1
1.352965417E0,-4.047283437E-4,7.281396538E-4,1.158492267E-1,1.158522219E-1
1.362921417E0,4.623152781E-4,6.639845669E-4,1.152314693E-1,1.152343097E-1
1.372878417E0,-2.596676350E-4,-1.205288805E-3,1.149470434E-1,1.149536556E-1
1.382834417E0,-2.324525500E-3,-1.402888447E-4,1.146391258E-1,1.146627762E-1
1.392791417E0,-2.408684231E-4,-2.630520612E-5,1.077577844E-1,1.077580568E-1
1.402747417E0,7.103011012E-4,1.104245894E-3,1.096721813E-1,1.096800403E-1
1.412704417E0,-1.790673239E-3,5.758749321E-4,1.134855673E-1,1.135011547E-1
1.422660417E0,-8.004473057E-4,1.822244376E-3,1.169954538E-1,1.170123819E-1
1.432617417E0,-1.925100107E-3,3.136514686E-3,1.178268939E-1,1.178843529E-1
1.442574417E0,9.459465509E-4,2.657876350E-3,1.156523973E-1,1.156868018E-1
1.452530417E0,-1.503362553E-3,-3.024935722E-4,1.155727655E-1,1.155829387E-1
1.462487417E0,-2.621146850E-4,3.096693195E-3,1.113782451E-1,1.114215943E-1
1.472443417E0,4.305734765E-4,2.713454887E-4,1.107137874E-1,1.107149572E-1
1.482400417E0,-8.041728288E-4,-3.751404583E-4,1.096247286E-1,1.096283200E-1
1.492356417E0,-1.067026984E-3,7.556378841E-4,1.123574004E-1,1.123650077E-1
1.502313417E0,-1.848167274E-3,6.652735174E-4,1.145361140E-1,1.145529560E-1
1.512269417E0,2.916827798E-4,5.440991372E-4,1.136186570E-1,1.136203342E-1
1.522226417E0,1.718569547E-3,7.607219741E-4,1.131586730E-1,1.131742792E-1
1.532183417E0,4.921838408E-4,-1.061413437E-3,1.129821017E-1,1.129881594E-1
1.542139417E0,-8.243301418E-4,1.402772032E-3,1.170897931E-1,1.171010971E-1
1.552096417E0,-2.429620363E-4,8.450727910E-5,1.153574064E-1,1.153576933E-1
1.562052417E0,-2.732460853E-4,4.157107323E-4,1.141183451E-1,1.141194294E-1
1.572009417E0,-2.415545750E-4,1.417858526E-3,1.119201705E-1,1.119294118E-1
1.581965417E0,-1.112333732E-3,-2.497117966E-4,1.099953800E-1,1.100012876E-1
1.591922417E0,-2.139248652E-3,-2.254273742E-3,1.086922958E-1,1.087367156E-1
1.601878417E0,1.324309502E-3,1.155599020E-3,1.102549359E-1,1.102689444E-1
1.611835417E0,7.426751545E-4,-1.516616903E-3,1.124480516E-1,1.124607309E-1
1.621792417E0,-3.976372536E-4,-1.104360446E-3,1.138842776E-1,1.138903263E-1
1.631748417E0,2.018404193E-4,-2.012764104E-3,1.153021455E-1,1.153198886E-1
1.641705417E0,8.458906086E-4,1.352225430E-3,1.150055155E-1,1.150165755E-1
1.651661417E0,-3.152845893E-3,3.602596465E-3,1.150539815E-1,1.151535401E-1
1.661618417E0,1.693028258E-3,2.175780945E-3,1.135335714E-1,1.135670383E-1
1.671574417E0,-1.098497305E-3,-9.582266212E-4,1.099177971E-1,1.099274626E-1
1.681531417E0,7.841797778E-4,-7.451530546E-4,1.098080873E-1,1.098134156E-1
1.691487417E0,-1.097343396E-3,1.986451447E-3,1.121082604E-1,1.121312276E-1
1.701444417E0,-6.476123817E-4,9.656697512E-4,1.116544902E-1,1.116605441E-1
1.711401417E0,-7.291049697E-4,7.640691474E-4,1.157573536E-1,1.157621713E-1
1.721357417E0,8.510608459E-4,1.581282355E-3,1.152915731E-1,1.153055575E-1
1.731314417E0,8.816871559E-4,-2.248609439E-3,1.106558070E-1,1.106821631E-1
1.741270417E0,6.224388489E-4,1.782669686E-3,1.135347411E-1,1.135504416E-1
1.751227417E0,-1.745377434E-3,-8.277613670E-4,1.130668223E-1,1.130833225E-1
1.761183417E0,-1.512626186E-4,-6.207162514E-4,1.117907837E-1,1.117926093E-1
1.771140417E0,-1.646361314E-3,-1.944040880E-3,1.134999990E-1,1.135285849E-1
1.781096417E0,-5.221357569E-4,9.317230433E-4,1.122335643E-1,1.122386461E-1
1.791053417E0,4.810770042E-4,1.512825489E-3,1.104130223E-1,1.104244338E-1
1.801009417E0,-5.112807266E-4,-1.024836674E-4,1.135466248E-1,1.135478221E-1
1.810966417E0,8.338820189E-4,1.182758249E-3,1.130952239E-1,1.131044824E-1
1.820923417E0,-2.364069223E-5,8.038962260E-4,1.107915491E-1,1.107944681E-1
1.830879417E0,-1.133646350E-3,1.016150229E-3,1.128432453E-1,1.128535144E-1
1.840836417E0,-2.769115148E-3,7.688160986E-4,1.134641021E-1,1.135004914E-1
1.850792417E0,1.203788677E-3,-1.015886664E-5,1.149911657E-1,1.149974669E-1
1.860749417E0,5.852349568E-4,-4.219571128E-4,1.149187982E-1,1.149210630E-1
1.870705417E0,-2.652369905E-3,-2.661617473E-4,1.135022640E-1,1.135335626E-1
1.880662417E0,-1.605282538E-3,-7.892316207E-4,1.136890650E-1,1.137031368E-1
1.890618417E0,-1.430845587E-3,-9.551458061E-4,1.091928557E-1,1.092064071E-1
1.900575417E0,1.166271977E-4,2.367807552E-3,1.081875488E-1,1.082135196E-1
1.910532417E0,-1.304701902E-3,8.146511391E-4,1.087473407E-1,1.087582182E-1
1.920488417E0,-2.065364504E-3,3.880485892E-4,1.118349284E-1,1.118546714E-1
1.930445417E0,1.337356516E-3,9.707482532E-4,1.159961224E-1,1.160078932E-1
1.940401417E0,-7.283494342E-4,1.274835318E-3,1.160896420E-1,1.160989263E-1
1.950358417E0,4.689674824E-5,-3.916863352E-5,1.151713803E-1,1.151713965E-1
1.960314417E0,-1.511598472E-3,9.464062750E-4,1.117396727E-1,1.117539041E-1
1.970271417E0,-5.541923456E-4,1.699016429E-3,1.132539436E-1,1.132680429E-1
1.980227417E0,-2.712907037E-3,1.444016583E-3,1.083800718E-1,1.084236368E-1
1.990184417E0,6.892810343E-4,-5.120746791E-4,1.097886190E-1,1.097919769E-1
2.000141417E0,-3.930944949E-4,2.165979706E-3,1.114013493E-1,1.114230973E-1
2.010097417E0,-2.367668785E-4,1.274886541E-3,1.134352013E-1,1.134426124E-1
2.020054417E0,-1.207781490E-3,8.259043097E-4,1.165703759E-1,1.165795582E-1
2.030010417E0,-1.323096454E-3,1.269320957E-3,1.162135154E-1,1.162279782E-1
2.039967417E0,-2.053494798E-3,1.371133141E-3,1.149339080E-1,1.149604282E-1
2.049923417E0,-1.933386317E-3,7.181260735E-4,1.154170111E-1,1.154354371E-1
2.059880417E0,6.582906935E-4,1.344739459E-3,1.150184944E-1,1.150282388E-1
2.069836417E0,-2.734576352E-3,9.822836146E-4,1.120040640E-1,1.120417473E-1
2.079793417E0,4.143891856E-4,1.055987552E-3,1.068597212E-1,1.068657422E-1
2.089749417E0,-1.203747466E-3,1.081554219E-3,1.034005433E-1,1.034132058E-1
2.099706417E0,-2.050041221E-4,-1.848367974E-4,1.100062579E-1,1.100066042E-1
2.109663417E0,-1.876936527E-3,9.985454381E-5,1.157621443E-1,1.157774025E-1
2.119619417E0,-5.162439775E-4,1.248154789E-3,1.167009994E-1,1.167088157E-1
2.129576417E0,-6.792293862E-4,9.168582037E-4,1.195764169E-1,1.195818609E-1
2.139532417E0,2.819742076E-4,1.407079399E-4,1.155927256E-1,1.155931551E-1
2.149489417E0,3.951585386E-4,-4.776781425E-4,1.126776263E-1,1.126793317E-1
2.159445417E0,8.538065013E-4,-1.060199924E-3,1.114475280E-1,1.114558411E-1
2.169402417E0,-2.349710092E-3,4.187559243E-3,1.097002327E-1,1.098052724E-1
2.179358417E0,1.359756570E-4,5.801776424E-4,1.087029129E-1,1.087045462E-1
2.189315417E0,-1.628368394E-3,1.255821437E-3,1.122212186E-1,1.122400578E-1
2.199271375E0,1.029871521E-3,1.209839247E-3,1.129832417E-1,1.129944125E-1
2.209227375E0,-9.706951678E-4,1.074550673E-3,1.153212264E-1,1.153303177E-1
2.219184375E0,8.394771721E-4,1.163517125E-3,1.141110063E-1,1.141200256E-1
2.229140375E0,-1.827945001E-3,-9.963065386E-4,1.137600020E-1,1.137790493E-1
2.239097375E0,-1.885293517E-3,1.342205331E-3,1.142857894E-1,1.143092188E-1
2.249053375E0,2.019433072E-3,-6.074737757E-5,1.158397421E-1,1.158573591E-1
2.259010375E0,-1.043989323E-3,1.039857045E-3,1.110200658E-1,1.110298439E-1
2.268966375E0,-6.293351762E-4,3.801919520E-4,1.107052788E-1,1.107077204E-1
2.278923375E0,-1.632686472E-3,6.603980437E-4,1.107309014E-1,1.107449065E-1
2.288879375E0,-9.005833417E-4,1.726727933E-3,1.128289402E-1,1.128457459E-1
2.298836375E0,-1.851768233E-3,1.643800177E-3,1.160164475E-1,1.160428681E-1
2.308793375E0,-2.245770302E-4,-1.201787032E-3,1.156294942E-1,1.156359574E-1
2.318749375E0,-1.259846613E-6,3.033615649E-4,1.152992472E-1,1.152996463E-1
2.328706375E0,6.288439035E-4,-5.648294464E-4,1.160209626E-1,1.160240416E-1
2.338662375E0,-3.139279317E-3,1.570039429E-3,1.145554781E-1,1.146092390E-1
2.348619375E0,6.466702325E-4,2.088024281E-3,1.111671329E-1,1.111886211E-1
2.358575375E0,-2.111063106E-3,2.127294429E-3,1.089122593E-1,1.089534864E-1
2.368532375E0,-1.058049267E-3,-7.182927802E-4,1.094859093E-1,1.094933777E-1
2.378488375E0,-3.610062413E-5,1.815178432E-3,1.097032204E-1,1.097182425E-1
2.388445375E0,-4.619401880E-4,-4.104254767E-4,1.156953350E-1,1.156969851E-1
2.398401375E0,1.797592966E-3,-3.372328356E-4,1.142115518E-1,1.142261951E-1
2.408358375E0,-9.302827530E-4,3.009827808E-3,1.162307560E-1,1.162734412E-1
2.418315375E0,-3.027182538E-4,7.807184011E-4,1.172081679E-1,1.172111590E-1
2.428271375E0,-3.810152411E-4,2.982886508E-3,1.147511378E-1,1.147905328E-1
2.438228375E0,4.469142295E-4,1.505156048E-3,1.120746359E-1,1.120856335E-1
2.448184375E0,-1.323555363E-3,2.146445215E-3,1.109718233E-1,1.110004712E-1
2.458141375E0,-1.382906921E-3,1.020996831E-3,1.081892624E-1,1.082029176E-1
2.468097375E0,-2.963372972E-4,-6.786324084E-4,1.094529331E-1,1.094554380E-1
2.478054375E0,1.191274845E-3,-1.349896193E-4,1.099224389E-1,1.099289767E-1
2.488010375E0,-9.240740910E-4,2.160388976E-3,1.132167727E-1,1.132411533E-1
2.497967375E0,1.721033361E-3,1.045973040E-3,1.160091758E-1,1.160266559E-1
2.507924375E0,9.677140042E-5,1.814295538E-3,1.171894893E-1,1.172035726E-1
2.517880375E0,-1.573693007E-3,2.006999217E-3,1.148917153E-1,1.149200192E-1
2.527837375E0,-2.514854074E-3,2.226810902E-4,1.111861914E-1,1.112148517E-1
2.537793375E0,9.208099218E-4,1.238194294E-3,1.079742312E-1,1.079852565E-1
2.547750375E0,3.580839839E-4,-4.156278446E-4,1.082831547E-1,1.082845444E-1
2.557706375E0,3.229930066E-3,-9.681368247E-4,1.115545183E-1,1.116054672E-1
2.567663375E0,6.927363575E-4,2.191010863E-4,1.130331010E-1,1.130354360E-1
2.577619375E0,-2.913270146E-3,-1.539300196E-3,1.118237972E-1,1.118723300E-1
2.587576375E0,-1.418437809E-3,9.584790096E-4,1.139772311E-1,1.139900866E-1
2.597532375E0,-4.080310464E-5,-3.445576876E-4,1.150607914E-1,1.150613145E-1
2.607489375E0,-3.680811962E-3,-4.734545946E-4,1.124077439E-1,1.124689888E-1
2.617446375E0,6.013219245E-4,-5.050199106E-4,1.117546558E-1,1.117574147E-1
2.627402375E0,-8.748681284E-4,7.743630558E-4,1.143624187E-1,1.143683865E-1
2.637359375E0,8.580308640E-4,5.434583873E-4,1.156867072E-1,1.156911656E-1
2.647315375E0,7.933160523E-4,3.812722862E-4,1.129130200E-1,1.129164505E-1
2.657272375E0,3.845561296E-4,1.193299890E-3,1.113824695E-1,1.113895254E-1
2.667228375E0,-1.296963776E-3,5.394937471E-4,1.096357033E-1,1.096447016E-1
2.677185375E0,6.828896003E-4,1.297948882E-3,1.097221822E-1,1.097319838E-1
2.687141375E0,-1.017006114E-3,-1.278392971E-3,1.134309024E-1,1.134426648E-1
2.697098375E0,-5.301947240E-4,-7.120892406E-4,1.143193394E-1,1.143227866E-1
2.707054375E0,-8.278363384E-5,1.152124256E-3,1.161412075E-1,1.161469514E-1
2.717011375E0,9.149358375E-4,7.635289803E-4,1.163721159E-1,1.163782172E-1
2.726968375E0,2.157566836E-3,1.807222143E-3,1.116082519E-1,1.116437327E-1
2.736924375E0,-1.618664013E-3,-6.048046052E-4,1.111139804E-1,1.111274156E-1
2.746881375E0,-9.518084116E-4,1.536643133E-3,1.082004830E-1,1.082155799E-1
2.756837375E0,-2.014204860E-3,7.520848885E-4,1.107508466E-1,1.107717142E-1
2.766794375E0,-4.128459841E-4,-1.499084756E-3,1.099172756E-1,1.099282729E-1
2.776750375E0,-2.045381349E-3,5.882214755E-4,1.118372381E-1,1.118574871E-1
2.786707375E0,-1.798505895E-3,1.665203832E-3,1.163829863E-1,1.164087927E-1
2.796663375E0,-9.939642623E-4,-3.035413101E-4,1.168818995E-1,1.168865199E-1
2.806620375E0,-5.811741576E-4,-1.523269340E-3,1.141289920E-1,1.141406366E-1
2.816576375E0,-6.962497719E-5,-1.692315564E-4,1.115726158E-1,1.115727659E-1
2.826533375E0,3.172241151E-3,6.222594529E-4,1.066249982E-1,1.066739919E-1
2.836490375E0,-1.993195619E-4,-3.657611087E-4,1.073463932E-1,1.073472013E-1
2.846446375E0,2.901665168E-3,-1.937206835E-4,1.082430780E-1,1.082821367E-1
2.856403375E0,4.826702643E-4,1.326655969E-3,1.138137877E-1,1.138225428E-1
2.866359375E0,8.083749563E-4,1.865146682E-3,1.107769832E-1,1.107956328E-1
2.876316375E0,-1.536333933E-3,4.682326689E-4,1.101973951E-1,1.102090988E-1
2.886272375E0,1.091673505E-3,7.662400603E-4,1.109183133E-1,1.109263318E-1
2.896229375E0,2.149979118E-4,1.577466726E-3,1.131790429E-1,1.131902398E-1
2.906185375E0,-1.698483247E-3,1.300497912E-3,1.139793247E-1,1.139993974E-1
2.916142375E0,-6.330651231E-4,-7.776729763E-4,1.150176227E-1,1.150219939E-1
2.926098375E0,1.639942871E-3,4.364550114E-5,1.155004501E-1,1.155121002E-1
2.936055375E0,1.679850975E-3,-6.841765717E-4,1.111774072E-1,1.111922024E-1
2.946012375E0,-9.303130209E-4,1.621758565E-4,1.099187955E-1,1.099228520E-1
2.955968375E0,-2.256538719E-4,2.604518086E-4,1.097987518E-1,1.097992926E-1
2.965925375E0,5.996597465E-4,-3.835009411E-4,1.103620082E-1,1.103643037E-1
2.975881375E0,-9.524095803E-4,7.230294868E-4,1.133548021E-1,1.133611089E-1
2.985838375E0,-1.236302545E-3,1.166178845E-3,1.152680218E-1,1.152805503E-1
2.995794375E0,-1.630876213E-4,1.703075133E-3,1.181986108E-1,1.182109922E-1
3.005751375E0,4.963111132E-4,1.659133472E-3,1.168105751E-1,1.168234117E-1
3.015707375E0,-2.556882333E-3,-1.972173341E-3,1.176995561E-1,1.177438432E-1
3.025664375E0,1.384063275E-3,-7.053082809E-4,1.144803315E-1,1.144908704E-1
3.035620375E0,-1.036401372E-4,1.344783232E-3,1.119715050E-1,1.119796281E-1
3.045577375E0,-4.642321728E-4,-2.210269682E-3,1.094715968E-1,1.094948917E-1
3.055534375E0,1.910671126E-4,9.474800900E-4,1.096492857E-1,1.096535457E-1
3.065490375E0,9.908144129E-4,-7.281815633E-4,1.123904809E-1,1.123972071E-1
3.075447375E0,-2.989347558E-4,6.063226610E-4,1.139276251E-1,1.139296307E-1
3.085403375E0,8.563444717E-4,1.718725078E-3,1.148181856E-1,1.148342418E-1
3.095360375E0,-2.202556236E-3,1.274541020E-3,1.172409654E-1,1.172685792E-1
3.105316375E0,-1.401477261E-3,-2.272156999E-4,1.161828861E-1,1.161915607E-1
3.115273375E0,7.860223996E-4,2.344610170E-3,1.148002669E-1,1.148268972E-1
3.125229375E0,-1.345038880E-3,9.059701115E-4,1.145264879E-1,1.145379690E-1
3.135186375E0,2.971244976E-5,-5.888892338E-4,1.098026186E-1,1.098042018E-1
3.145142375E0,-1.461657695E-3,2.161841840E-4,1.097565442E-1,1.097664893E-1
3.155099375E0,-3.093343694E-3,1.701517031E-3,1.102332920E-1,1.102898118E-1
3.165056375E0,-2.405655105E-4,3.562534228E-3,1.142562628E-1,1.143120427E-1
3.175012375E0,3.788843751E-4,-7.114969194E-4,1.157448813E-1,1.157476883E-1
3.184969375E0,9.932756657E-4,-1.039332710E-3,1.163938940E-1,1.164027721E-1
3.194925625E0,8.548374753E-4,-8.497657254E-4,1.158213913E-1,1.158276631E-1
3.204882625E0,-3.156217281E-4,1.673047431E-3,1.139537171E-1,1.139664351E-1
3.214838625E0,-2.286274452E-3,9.809890762E-4,1.146151423E-1,1.146421399E-1
3.224795625E0,-1.971222460E-3,1.220141537E-3,1.130215079E-1,1.130452816E-1
3.234751625E0,1.172832795E-3,-8.367914706E-4,1.132103577E-1,1.132195251E-1
3.244708625E0,1.073496882E-3,-3.683408722E-4,1.157227829E-1,1.157283481E-1
3.254664625E0,-2.185148885E-3,-2.511581406E-4,1.151380688E-1,1.151590762E-1
3.264621625E0,-2.501798561E-3,-2.346266992E-3,1.130632013E-1,1.131152132E-1
3.274578625E0,-4.508357961E-4,1.880703494E-4,1.119313613E-1,1.119324272E-1
3.284534625E0,-3.459071741E-4,-5.389722064E-4,1.114610434E-1,1.114628832E-1
3.294491625E0,-3.815742908E-3,2.287561074E-4,1.139987186E-1,1.140627900E-1
3.304447625E0,-1.810382353E-3,-2.086596563E-3,1.144338772E-1,1.144672163E-1
3.314404625E0,3.541032784E-4,1.063636504E-3,1.148152202E-1,1.148206929E-1
3.324360625E0,-1.275484916E-3,8.367355913E-4,1.098731905E-1,1.098837794E-1
3.334317625E0,1.611585380E-3,1.456772909E-3,1.085501760E-1,1.085719122E-1
3.344273625E0,2.435194328E-4,7.888516411E-4,1.091501862E-1,1.091533084E-1
3.354230625E0,-3.118842375E-3,2.779457718E-4,1.102998629E-1,1.103442984E-1
3.364186625E0,-4.436972085E-4,9.163059294E-4,1.122136116E-1,1.122182299E-1
3.374143625E0,-2.077713143E-4,3.426222131E-3,1.158916503E-1,1.159424719E-1
3.384100625E0,1.240584534E-4,8.853003383E-4,1.171995252E-1,1.172029345E-1
3.394056625E0,-7.201081607E-4,-5.640173331E-4,1.146885529E-1,1.146922004E-1
3.404013625E0,-4.878805485E-4,8.020177484E-5,1.107263044E-1,1.107274082E-1
3.413969625E0,1.407828298E-3,5.370350555E-4,1.116961837E-1,1.117063464E-1
3.423926625E0,-1.714461949E-3,2.876888029E-3,1.078673601E-1,1.079193367E-1
3.433882625E0,-3.850494977E-4,1.282475889E-3,1.089845300E-1,1.089927556E-1
3.443839625E0,2.192091430E-3,2.158796415E-4,1.131025702E-1,1.131240171E-1
3.453795625E0,-2.791187493E-3,1.148917712E-3,1.172296777E-1,1.172685298E-1
3.463752625E0,-4.915476311E-4,1.036533155E-3,1.162222102E-1,1.162278717E-1
3.473708625E0,6.354874931E-4,-6.255656481E-4,1.138192043E-1,1.138226974E-1
3.483665625E0,2.362281084E-3,1.192308031E-3,1.078995317E-1,1.079319736E-1
3.493621625E0,3.033485264E-4,-9.097969159E-4,1.073746532E-1,1.073789360E-1
3.503578625E0,-6.444705650E-4,-1.286367886E-3,1.097267568E-1,1.097361893E-1
3.513535625E0,-9.638536721E-4,3.691809252E-4,1.122825891E-1,1.122873328E-1
3.523491625E0,5.693593994E-5,-4.303008318E-4,1.125331894E-1,1.125340264E-1
3.533448625E0,2.257151064E-4,1.828937791E-3,1.131462082E-1,1.131612142E-1
3.543404625E0,-7.412787527E-4,2.005239017E-3,1.126130447E-1,1.126333357E-1
3.553361625E0,-1.176579390E-4,2.712011337E-4,1.134818196E-1,1.134822047E-1
3.563317625E0,4.013923462E-4,8.709449321E-4,1.120032370E-1,1.120073424E-1
3.573274625E0,1.739710337E-3,7.093194872E-4,1.151147038E-1,1.151300341E-1
3.583230625E0,5.577993579E-4,6.315549836E-4,1.151312143E-1,1.151342977E-1
3.593187625E0,-3.637338523E-4,6.462289020E-4,1.154825389E-1,1.154849199E-1
3.603143625E0,-1.265213825E-3,-2.517886460E-4,1.148825288E-1,1.148897714E-1
3.613100625E0,-2.560452325E-3,5.915351212E-4,1.119479835E-1,1.119788232E-1
3.623057625E0,-2.519972390E-3,2.900495660E-3,1.114611551E-1,1.115273609E-1
3.633013625E0,7.014173316E-4,1.309568062E-3,1.074729264E-1,1.074831934E-1
3.642970625E0,7.086078404E-4,8.011711761E-4,1.138456017E-1,1.138506259E-1
3.652926625E0,1.086164382E-3,1.593139023E-3,1.138386056E-1,1.138549339E-1
3.662883625E0,3.825572785E-4,-6.787478924E-5,1.163667440E-1,1.163673927E-1
3.672839625E0,7.916876348E-4,1.143487170E-4,1.129235476E-1,1.129263807E-1
3.682796625E0,2.043906134E-3,-1.993719488E-4,1.145552695E-1,1.145736753E-1
3.692752625E0,-1.456959639E-3,-1.128578559E-3,1.126168445E-1,1.126319230E-1
3.702709625E0,-6.260534283E-4,-9.296396747E-4,1.121270880E-1,1.121326894E-1
3.712665625E0,-1.292363508E-3,-5.060890689E-4,1.146149933E-1,1.146233965E-1
3.722622625E0,-6.278185174E-5,-2.576430328E-3,1.113896519E-1,1.114194619E-1
3.732579625E0,6.595260929E-4,1.158370636E-3,1.125438139E-1,1.125517074E-1
3.742535625E0,-2.187844366E-4,-6.099678576E-4,1.105949134E-1,1.105968118E-1
3.752492625E0,6.110980175E-4,9.346669540E-4,1.105618179E-1,1.105674573E-1
3.762448625E0,-3.052956890E-4,-1.460444182E-4,1.106001735E-1,1.106006913E-1
3.772405625E0,-1.576101873E-3,7.683122531E-4,1.135999262E-1,1.136134571E-1
3.782361625E0,-8.794188034E-4,-1.171534881E-3,1.164708138E-1,1.164800254E-1
3.792318625E0,1.510347473E-3,-8.748406544E-4,1.183076426E-1,1.183205173E-1
3.802274625E0,-4.293213133E-3,-1.177042723E-4,1.159078628E-1,1.159874053E-1
3.812231625E0,-2.951137722E-3,-4.590721801E-4,1.117475256E-1,1.117874297E-1
3.822187625E0,-5.614832044E-4,-1.480926760E-3,1.102700084E-1,1.102813818E-1
3.832144625E0,-2.029820345E-3,1.236350276E-3,1.071533039E-1,1.071796589E-1
3.842100625E0,-8.084948640E-4,-1.876618713E-3,1.133925542E-1,1.134109638E-1
3.852057625E0,-1.638690475E-3,1.262648031E-3,1.148607656E-1,1.148793936E-1
3.862014625E0,1.246578409E-3,-3.333836794E-4,1.165169850E-1,1.165241301E-1
3.871970625E0,-1.470464515E-3,1.068438403E-3,1.180531532E-1,1.180671453E-1
3.881927625E0,-9.564745706E-4,-9.536277503E-5,1.107355878E-1,1.107397595E-1
3.891883625E0,1.093764789E-3,2.279148437E-3,1.124764532E-1,1.125048593E-1
3.901840625E0,6.125727668E-5,1.358361915E-4,1.118066683E-1,1.118067676E-1
3.911796625E0,-1.100337133E-3,1.117835753E-3,1.137888730E-1,1.137996832E-1
3.921753625E0,-1.586097525E-3,4.674913362E-4,1.146786287E-1,1.146905495E-1
3.931709625E0,-6.074714474E-4,3.470107913E-6,1.154431999E-1,1.154447982E-1
3.941666625E0,-1.104949974E-3,-5.073240027E-4,1.135781929E-1,1.135847005E-1
3.951622625E0,2.768122824E-3,1.116285101E-3,1.159158945E-1,1.159543151E-1
3.961579625E0,9.060405428E-4,1.694723964E-3,1.145803183E-1,1.145964325E-1
3.971536625E0,-8.018233348E-4,5.396660417E-4,1.092560887E-1,1.092603637E-1
3.981492625E0,-2.746996237E-3,1.345804892E-3,1.105716899E-1,1.106139945E-1
3.991449625E0,-1.077777473E-3,-1.366352662E-4,1.085673943E-1,1.085728299E-1
4.001405625E0,4.210497718E-4,1.319580711E-3,1.119858250E-1,1.119943908E-1
4.011362625E0,-4.573317245E-3,1.027586870E-3,1.139022708E-1,1.139986774E-1
4.021318625E0,-1.868344611E-3,9.261202067E-4,1.164887249E-1,1.165073880E-1
4.031275625E0,-3.507079091E-4,-4.152944311E-4,1.155361608E-1,1.155374394E-1
4.041231625E0,1.340931864E-3,4.646144807E-4,1.127840504E-1,1.127929785E-1
4.051188625E0,2.237374661E-3,1.253020018E-4,1.100504473E-1,1.100732597E-1
4.061144625E0,-1.088702120E-4,-9.380979463E-4,1.099439189E-1,1.099479749E-1
4.071101625E0,3.801800776E-4,4.180492833E-4,1.093115285E-1,1.093129890E-1
4.081057625E0,2.022817731E-3,-3.542667255E-4,1.129616573E-1,1.129803227E-1
4.091014625E0,1.838161494E-3,1.477198675E-4,1.142906919E-1,1.143055682E-1
4.100971625E0,-1.356832683E-3,1.908868551E-3,1.156315878E-1,1.156553020E-1
4.110927625E0,3.537512384E-4,-1.287333667E-3,1.137755141E-1,1.137833466E-1
4.120884625E0,7.273927331E-4,-8.438341320E-5,1.118476540E-1,1.118500511E-1
4.130840625E0,9.777803207E-4,7.663564757E-4,1.069810092E-1,1.069882222E-1
4.140797625E0,3.125227522E-4,1.370515674E-4,1.101192757E-1,1.101198045E-1
4.150753625E0,-1.510058297E-3,1.891506836E-4,1.127872318E-1,1.127974987E-1
4.160710625E0,-9.964825585E-5,-1.157810912E-4,1.147145629E-1,1.147146646E-1
4.170666625E0,9.249086725E-4,-1.266124658E-3,1.139538661E-1,1.139646529E-1
4.180623625E0,-2.862969413E-4,1.815697178E-4,1.154369786E-1,1.154374765E-1
4.190579625E0,1.602541539E-3,2.832613885E-3,1.139129475E-1,1.139594289E-1
4.200536375E0,3.982600756E-4,-1.477978192E-3,1.119933426E-1,1.120038027E-1
4.210492375E0,1.952627907E-3,7.236283273E-5,1.094079763E-1,1.094254233E-1
4.220449375E0,1.676724409E-3,-1.321686432E-4,1.156411022E-1,1.156533328E-1
4.230406375E0,-3.634543158E-3,1.273337752E-3,1.164467409E-1,1.165104063E-1
4.240362375E0,-1.896563917E-3,-3.973888233E-3,1.145628244E-1,1.146474137E-1
4.250319375E0,1.222277177E-3,1.323726960E-3,1.153239161E-1,1.153379896E-1
4.260275375E0,-8.065188304E-4,-1.587640494E-3,1.154608056E-1,1.154745370E-1
4.270232375E0,1.787526999E-4,-1.006665640E-3,1.127331257E-1,1.127377619E-1
4.280188375E0,-2.712907502E-3,4.644645378E-4,1.126412451E-1,1.126748672E-1
4.290145375E0,-1.652351115E-3,2.084292471E-3,1.087212935E-1,1.087538238E-1
4.300101375E0,-3.117159940E-4,1.455253921E-3,1.110486314E-1,1.110586037E-1
4.310058375E0,3.250723472E-3,-1.145732589E-3,1.120169610E-1,1.120699757E-1
4.320014375E0,-1.308874693E-3,-9.751226753E-5,1.121690273E-1,1.121767059E-1
4.329971375E0,1.936511835E-3,2.702295780E-3,1.141837463E-1,1.142321338E-1
4.339927375E0,7.098598871E-4,1.668456942E-3,1.140159667E-1,1.140303832E-1
4.349884375E0,-1.354562119E-4,1.464347355E-3,1.141734272E-1,1.141828978E-1
4.359841375E0,-7.313815877E-5,5.106693134E-4,1.162594855E-1,1.162606300E-1
4.369797375E0,1.165552065E-3,-5.496619269E-4,1.130098701E-1,1.130172171E-1
4.379754375E0,-1.872315770E-3,2.045588568E-3,1.165292412E-1,1.165622325E-1
4.389710375E0,3.302686149E-3,6.235875189E-4,1.111045256E-1,1.111553517E-1
4.399667375E0,-2.091546543E-3,6.456915289E-4,1.087191328E-1,1.087411667E-1
4.409623375E0,5.148681812E-4,-6.845844910E-4,1.092776358E-1,1.092809930E-1
4.419580375E0,-1.235361211E-3,2.107704058E-4,1.124534532E-1,1.124604361E-1
4.429536375E0,-1.064981800E-3,-4.613306373E-4,1.156580597E-1,1.156638828E-1
4.439493375E0,5.475622602E-4,4.468066618E-4,1.179427877E-1,1.179449051E-1
4.449449375E0,2.709690947E-3,2.670301124E-3,1.199629009E-1,1.200232083E-1
4.459406375E0,2.029519528E-3,-9.885430336E-5,1.165945381E-1,1.166122422E-1
4.469363375E0,-4.951623268E-4,-2.166789956E-3,1.128269136E-1,1.128488041E-1
4.479319375E0,-1.901044976E-3,-8.792616427E-5,1.086292416E-1,1.086459103E-1
4.489276375E0,-4.848050885E-4,-1.845750958E-3,1.100986674E-1,1.101152052E-1
4.499232375E0,1.994864317E-3,-1.039612107E-3,1.130236164E-1,1.130460001E-1
4.509189375E0,-4.138378426E-5,-1.409678720E-3,1.161665171E-1,1.161750774E-1
4.519145375E0,8.379919454E-4,9.759804234E-4,1.178235337E-1,1.178305557E-1
4.529102375E0,3.103481373E-3,-7.069967687E-4,1.160840690E-1,1.161276992E-1
4.539058375E0,-2.783436095E-3,-1.354411244E-3,1.200849414E-1,1.201248313E-1
4.549015375E0,1.962672919E-3,1.952102408E-3,1.145192534E-1,1.145527048E-1
4.558971375E0,-5.545469467E-4,-2.206689678E-3,1.088613719E-1,1.088851472E-1
4.568928375E0,-3.138266038E-4,-3.082090989E-3,1.098524183E-1,1.098960945E-1
4.578884375E0,-1.388678327E-3,-8.417107165E-5,1.097413674E-1,1.097501856E-1
4.588841375E0,-8.219080046E-4,1.034072600E-3,1.148581281E-1,1.148657235E-1
4.598798375E0,1.613311470E-4,3.493744880E-4,1.142490655E-1,1.142497136E-1
4.608754375E0,-1.181433909E-3,2.067779191E-3,1.147190854E-1,1.147438018E-1
4.618711375E0,-1.093016705E-3,3.220774233E-4,1.076872721E-1,1.076933006E-1
4.628667375E0,1.495198230E-3,4.628393799E-4,1.068655178E-1,1.068769794E-1
4.638624375E0,5.416176282E-5,-1.416979358E-4,1.126762703E-1,1.126763724E-1
4.648580375E0,-3.034481779E-5,-1.052832231E-3,1.138523892E-1,1.138572610E-1
4.658537375E0,-2.509914339E-7,5.605109036E-4,1.181352884E-1,1.181366181E-1
4.668493375E0,-2.720434219E-3,-2.068866976E-3,1.192230508E-1,1.192720286E-1
4.678450375E0,1.114517683E-3,1.146633178E-3,1.139683649E-1,1.139795820E-1
4.688406375E0,1.243036240E-4,6.159543991E-4,1.102529243E-1,1.102547149E-1
4.698363375E0,8.462253027E-5,-9.385328740E-4,1.034131274E-1,1.034174208E-1
4.708319375E0,-1.446709735E-3,3.795363009E-4,1.062293798E-1,1.062399084E-1
4.718276375E0,2.125121886E-3,1.772635616E-3,1.114475802E-1,1.114819335E-1
4.728233375E0,-2.916609868E-3,3.156494349E-4,1.147723421E-1,1.148098287E-1
4.738189375E0,-1.684365328E-3,-2.201570198E-3,1.199252903E-1,1.199573227E-1
4.748146375E0,-7.502587978E-4,-7.430464029E-5,1.168157756E-1,1.168182085E-1
4.758102375E0,-1.743084984E-3,5.707135424E-4,1.131086498E-1,1.131235198E-1
4.768059375E0,-1.347552519E-3,8.006766438E-4,1.113272905E-1,1.113383249E-1
4.778015375E0,-1.777120400E-3,-1.439470798E-4,1.097293943E-1,1.097438784E-1
4.787972375E0,9.882664308E-4,5.148816854E-5,1.097878143E-1,1.097922743E-1
4.797928375E0,-2.904476132E-3,5.119480193E-4,1.137186363E-1,1.137568737E-1
4.807885375E0,1.282196958E-3,-3.405353054E-4,1.165136993E-1,1.165212518E-1
4.817841375E0,-8.046561852E-4,9.316569194E-4,1.160582975E-1,1.160648261E-1
4.827798375E0,7.781689055E-4,1.840660349E-3,1.174789518E-1,1.174959476E-1
4.837754375E0,-1.214467920E-4,2.277152613E-3,1.142823622E-1,1.143051113E-1
4.847711375E0,-1.204345841E-3,-7.449965924E-4,1.141986698E-1,1.142074501E-1
4.857668375E0,-1.339634415E-3,1.280870289E-3,1.135179698E-1,1.135330997E-1
4.867624375E0,2.350495197E-5,2.608705312E-3,1.126111001E-1,1.126413146E-1
4.877581375E0,1.406841911E-4,7.159970701E-4,1.136444062E-1,1.136467488E-1
4.887537375E0,-2.057498554E-3,5.085673183E-4,1.107014641E-1,1.107217508E-1
4.897494375E0,-3.602660727E-4,-6.680171937E-4,1.107379496E-1,1.107405505E-1
4.907450375E0,-5.722681526E-4,6.840946153E-4,1.125624180E-1,1.125659514E-1
4.917407375E0,-5.570880603E-4,8.994340897E-5,1.132918596E-1,1.132932650E-1
4.927363375E0,2.204892226E-4,6.390698254E-4,1.160486042E-1,1.160505733E-1
4.937320375E0,-1.077002846E-3,3.812760115E-4,1.188073754E-1,1.188128687E-1
4.947276375E0,-1.778999576E-3,-3.939308226E-5,1.176592037E-1,1.176726587E-1
4.957233375E0,1.067847479E-4,-1.508658752E-3,1.100747883E-1,1.100851783E-1
4.967189375E0,5.811685696E-6,1.171212643E-4,1.080536246E-1,1.080536883E-1
4.977146375E0,-2.290099394E-3,3.205863759E-4,1.088650897E-1,1.088896464E-1
4.987103375E0,-1.699461835E-3,1.448193565E-3,1.114169657E-1,1.114393363E-1
4.997059375E0,-3.582583042E-3,2.348572016E-4,1.131738573E-1,1.132307911E-1
5.007016375E0,-6.330991164E-5,6.401427090E-4,1.153714657E-1,1.153732590E-1
5.016972375E0,-1.917668851E-3,-1.233125106E-3,1.173909456E-1,1.174130834E-1
5.026929375E0,-1.074459171E-3,4.245648161E-4,1.146445125E-1,1.146503335E-1
5.036885375E0,-1.167669659E-3,1.204870641E-3,1.103285924E-1,1.103413497E-1
5.046842375E0,-2.215460408E-4,7.450114936E-4,1.105487421E-1,1.105514745E-1
5.056798375E0,-1.347269863E-4,-1.676600426E-3,1.075249910E-1,1.075381460E-1
5.066755375E0,8.889089804E-4,-3.409627825E-4,1.130573079E-1,1.130613165E-1
5.076711375E0,3.245852422E-4,1.404473558E-3,1.185021400E-1,1.185109071E-1
5.086668375E0,-2.406905172E-3,2.325437963E-4,1.181622893E-1,1.181870292E-1
5.096624375E0,1.513273455E-4,2.973735332E-3,1.164187193E-1,1.164567911E-1
5.106581375E0,-3.104237840E-4,3.937203437E-4,1.112047806E-1,1.112059109E-1
5.116538375E0,-9.257718921E-5,3.549832851E-3,1.086137891E-1,1.086718228E-1
5.126494375E0,-5.098455586E-4,1.400957815E-3,1.087212041E-1,1.087314253E-1
5.136451375E0,-1.043010736E-3,-1.036900096E-3,1.135106385E-1,1.135201660E-1
5.146407375E0,1.837575110E-3,1.882351935E-4,1.168399900E-1,1.168545908E-1
5.156364375E0,-1.101489412E-3,8.636126295E-4,1.175609082E-1,1.175692402E-1
5.166320375E0,5.014142953E-4,4.672650248E-4,1.133347526E-1,1.133368250E-1
5.176277375E0,6.335072685E-4,-1.051802188E-3,1.149158776E-1,1.149224371E-1
5.186233375E0,1.356745372E-3,-2.131247893E-4,1.066055521E-1,1.066143983E-1
5.196190375E0,2.187385224E-3,1.234989613E-4,1.054622605E-1,1.054850146E-1
5.206146042E0,-1.121990848E-3,-6.575826555E-4,1.112065911E-1,1.112141951E-1
5.216103042E0,2.139848657E-3,2.185972407E-4,1.117442846E-1,1.117649851E-1
5.226059042E0,4.306217190E-3,1.077275723E-3,1.155770570E-1,1.156622676E-1
5.236016042E0,-2.676058561E-3,-6.881337613E-4,1.151799783E-1,1.152131165E-1
5.245973042E0,7.991944440E-4,-6.315205246E-5,1.180231124E-1,1.180258352E-1
5.255929042E0,1.930239028E-3,-5.468036979E-3,1.113476306E-1,1.114985206E-1
5.265886042E0,-1.458911691E-3,1.495439559E-3,1.119946763E-1,1.120141611E-1
5.275842042E0,1.359777991E-3,1.377195120E-3,1.085320339E-1,1.085492885E-1
5.285799042E0,-5.865581334E-4,-2.198759466E-4,1.088868976E-1,1.088886994E-1
5.295755042E0,2.623512410E-5,2.573626116E-4,1.072855368E-1,1.072858487E-1
5.305712042E0,8.502940182E-4,-6.482321769E-4,1.107665747E-1,1.107717350E-1
5.315668042E0,1.389635727E-4,3.612026572E-3,1.158058047E-1,1.158622046E-1
5.325625042E0,1.971192658E-3,2.067072317E-3,1.174412370E-1,1.174759658E-1
5.335581042E0,-2.224531490E-4,1.059331931E-3,1.166127324E-1,1.166177561E-1
5.345538042E0,1.661619172E-5,9.997487068E-4,1.132396236E-1,1.132440379E-1
5.355494042E0,-2.722711302E-3,-3.233079799E-3,1.099697948E-1,1.100509960E-1
5.365451042E0,1.812807168E-3,1.461368985E-3,1.106613949E-1,1.106858897E-1
5.375408042E0,-4.330365919E-4,-7.272167131E-4,1.115463600E-1,1.115495710E-1
5.385364042E0,-1.153283287E-3,1.615595073E-3,1.169313192E-1,1.169481664E-1
5.395321042E0,2.283647191E-4,4.113372415E-5,1.121392250E-1,1.121394651E-1
5.405277042E0,2.246802906E-3,2.695858479E-3,1.104478315E-1,1.105035712E-1
5.415234042E0,-1.617443748E-3,-6.421478465E-4,1.092539355E-1,1.092677944E-1
5.425190042E0,-7.853598800E-4,-3.351053223E-3,1.115549281E-1,1.116080120E-1
5.435147042E0,-1.980852801E-3,-6.319656968E-4,1.154122502E-1,1.154309778E-1
5.445103042E0,-4.843231291E-4,1.596293412E-3,1.158372685E-1,1.158492792E-1
5.455060042E0,-5.008345470E-4,-2.002436668E-3,1.172122583E-1,1.172304315E-1
5.465016042E0,8.791671135E-4,-1.543673687E-3,1.103850305E-1,1.103993244E-1
5.474973042E0,1.204200089E-5,3.101527691E-4,1.093447953E-1,1.093452359E-1
5.484929042E0,2.204256598E-4,-7.621748373E-4,1.065027043E-1,1.065056596E-1
5.494886042E0,-1.014748355E-3,-3.393910825E-3,1.089922264E-1,1.090497765E-1
5.504842042E0,-6.703096442E-4,3.487214446E-3,1.111543700E-1,1.112110784E-1
5.514799042E0,-1.286298502E-3,-1.213690266E-4,1.130167171E-1,1.130241021E-1
5.524756042E0,1.258788747E-3,2.907447517E-3,1.132069081E-1,1.132512333E-1
5.534712042E0,-1.198776066E-3,-2.926066518E-4,1.107778400E-1,1.107847125E-1
5.544669042E0,1.242362312E-3,2.806941047E-4,1.108316034E-1,1.108389217E-1
5.554625042E0,-4.034712911E-4,-5.198521540E-4,1.112329364E-1,1.112348829E-1
5.564582042E0,1.820706646E-3,-7.968172431E-4,1.086173430E-1,1.086355241E-1
5.574538042E0,6.808037870E-5,-2.341450192E-3,1.112988815E-1,1.113235287E-1
5.584495042E0,-2.672746545E-3,7.793493569E-4,1.133186594E-1,1.133528540E-1
5.594451042E0,2.197109861E-3,-2.036234364E-4,1.131122634E-1,1.131337831E-1
5.604408042E0,8.049001917E-5,-2.332424745E-3,1.140077338E-1,1.140316186E-1
5.614364042E0,-2.532070968E-3,-3.808597103E-4,1.121243462E-1,1.121535797E-1
5.624321042E0,-1.326747704E-3,1.406200230E-3,1.134529263E-1,1.134693974E-1
5.634277042E0,-4.108867142E-4,1.587827690E-3,1.100643203E-1,1.100765398E-1
5.644234042E0,2.243721392E-3,-8.610757068E-4,1.083617583E-1,1.083884053E-1
5.654191042E0,-1.919864677E-3,-6.400328130E-4,1.091479287E-1,1.091666884E-1
5.664147042E0,-1.587911043E-3,1.601434313E-3,1.116158217E-1,1.116386031E-1
5.674104042E0,-1.038767397E-3,-1.823923551E-3,1.130691022E-1,1.130885830E-1
5.684060042E0,1.113987411E-3,-1.274799928E-3,1.173282713E-1,1.173404846E-1
5.694017042E0,1.050071558E-3,-1.891854219E-3,1.155378297E-1,1.155580887E-1
5.703973042E0,3.972116392E-4,-1.584063284E-3,1.151455417E-1,1.151571223E-1
5.713930042E0,1.247292617E-3,1.757671125E-3,1.139577702E-1,1.139781493E-1
5.723886042E0,-1.382308546E-4,-1.274455339E-3,1.126075312E-1,1.126148278E-1
5.733843042E0,1.477925107E-4,-1.036368310E-3,1.112067029E-1,1.112116301E-1
5.743799042E0,-1.149564283E-3,1.200549304E-4,1.117691174E-1,1.117750935E-1
5.753756042E0,1.095214277E-3,-1.159328036E-3,1.163513586E-1,1.163622885E-1
5.763712042E0,4.713395610E-4,-2.673106268E-3,1.166873723E-1,1.167189381E-1
5.773669042E0,2.739992924E-4,1.343472861E-3,1.199377552E-1,1.199455923E-1
5.783626042E0,6.758058444E-4,2.727098763E-4,1.149112731E-1,1.149135839E-1
5.793582042E0,2.325101523E-3,2.237316221E-5,1.097058579E-1,1.097304965E-1
5.803539042E0,-1.024388243E-3,1.079357229E-3,1.099645346E-1,1.099746028E-1
5.813495042E0,-5.956194364E-4,-8.953763172E-4,1.105552241E-1,1.105604542E-1
5.823452042E0,2.739105839E-4,-6.225425750E-5,1.136790514E-1,1.136793984E-1
5.833408042E0,-1.162598375E-3,3.814697266E-5,1.162466109E-1,1.162524306E-1
5.843365042E0,1.143506379E-3,2.248119563E-5,1.151666492E-1,1.151723283E-1
5.853321042E0,7.277869154E-4,1.963659190E-3,1.144236252E-1,1.144427876E-1
5.863278042E0,2.278924454E-3,-7.598157972E-4,1.077281609E-1,1.077549417E-1
5.873234042E0,-2.681745682E-3,6.473986432E-4,1.092695966E-1,1.093044173E-1
5.883191042E0,-2.400774974E-3,1.693089493E-3,1.156350896E-1,1.156724004E-1
5.893147042E0,-5.584000610E-4,-1.029726118E-3,1.172084883E-1,1.172143416E-1
5.903104042E0,2.496209461E-3,-3.959340975E-4,1.178314686E-1,1.178585712E-1
5.913061042E0,-1.608263701E-4,-6.870180368E-4,1.162005439E-1,1.162026862E-1
5.923017042E0,7.763388567E-5,-5.077896640E-4,1.102118492E-1,1.102130463E-1
5.932974042E0,4.542048555E-4,4.152618349E-4,1.095782816E-1,1.095800098E-1
5.942930042E0,3.080504946E-3,2.209609374E-4,1.085243300E-1,1.085682667E-1
5.952887042E0,2.708700486E-4,1.229234040E-3,1.086963713E-1,1.087036592E-1
5.962843042E0,-2.501985524E-3,1.468799077E-3,1.155286431E-1,1.155650669E-1
5.972800042E0,1.289290492E-3,1.481049694E-3,1.168604940E-1,1.168769902E-1
5.982756042E0,1.359835616E-3,2.171661705E-3,1.157633513E-1,1.157917043E-1
5.992713042E0,5.861511454E-5,8.515333757E-4,1.118538380E-1,1.118570946E-1
6.002669042E0,2.419264521E-3,1.827776432E-3,1.097531915E-1,1.097950666E-1
6.012626042E0,-2.066830406E-3,1.016911119E-5,1.108104661E-1,1.108297401E-1
6.022582042E0,-4.368531518E-4,3.297124058E-4,1.120212078E-1,1.120225448E-1
6.032539042E0,-1.052895095E-4,-9.054616094E-4,1.144550741E-1,1.144587040E-1
6.042495042E0,1.219595200E-3,1.572999172E-3,1.178935021E-1,1.179103031E-1
6.052452042E0,1.012134948E-3,2.935206052E-3,1.137605458E-1,1.138029070E-1
6.062409042E0,-1.200557686E-3,8.155060932E-4,1.119056493E-1,1.119150604E-1
6.072365042E0,8.202088065E-5,7.514748722E-5,1.145738810E-1,1.145739350E-1
6.082322042E0,-6.481986493E-4,-1.971501857E-3,1.142455563E-1,1.142644044E-1
6.092278042E0,-1.778177917E-3,1.391005702E-3,1.146895066E-1,1.147117245E-1
6.102235042E0,5.076485686E-4,-9.100036696E-4,1.162038222E-1,1.162084941E-1
6.112191042E0,-1.618701499E-4,6.367601454E-4,1.165833250E-1,1.165851763E-1
6.122148042E0,2.530800179E-3,2.587047406E-3,1.145402566E-1,1.145974177E-1
6.132104042E0,-9.286459535E-4,1.385428943E-3,1.096317843E-1,1.096444705E-1
6.142061042E0,-2.687556902E-3,3.281254321E-4,1.088253707E-1,1.088590462E-1
6.152017042E0,-1.337600639E-3,-8.186316118E-4,1.068793982E-1,1.068909028E-1
6.161974042E0,1.670657657E-4,-1.100818627E-3,1.084326655E-1,1.084383818E-1
6.171930042E0,-3.517151112E-3,-8.419593796E-4,1.132023931E-1,1.132601476E-1
6.181887042E0,-5.435536150E-4,-6.849998608E-4,1.159612909E-1,1.159645880E-1
6.191843042E0,4.412832204E-4,3.594923764E-4,1.150707304E-1,1.150721381E-1
6.201800625E0,1.077407505E-4,1.425308175E-3,1.172719374E-1,1.172806481E-1
6.211757625E0,-9.380823467E-4,-1.269544475E-3,1.144234166E-1,1.144343043E-1
6.221713625E0,6.346418522E-4,7.471386343E-4,1.119535193E-1,1.119578111E-1
6.231670625E0,1.051160158E-3,-1.271803863E-3,1.076913998E-1,1.077040389E-1
6.241626625E0,-2.748270053E-3,-1.662448049E-4,1.081470028E-1,1.081820449E-1
6.251583625E0,-2.464966383E-4,-1.066126861E-3,1.098540947E-1,1.098595444E-1
6.261539625E0,2.089917194E-3,-1.963583753E-3,1.121762246E-1,1.122128726E-1
6.271496625E0,-2.818555105E-3,4.937145859E-4,1.160311475E-1,1.160664258E-1
6.281452625E0,2.469885396E-3,1.502493396E-3,1.163587719E-1,1.163946804E-1
6.291409625E0,-4.119211808E-4,1.933659427E-3,1.173489392E-1,1.173655923E-1
6.301365625E0,3.870953806E-4,2.499781549E-4,1.112918109E-1,1.112927648E-1
6.311322625E0,-2.566083800E-3,-2.770610154E-4,1.094741970E-1,1.095046180E-1
6.321278625E0,2.306344220E-3,4.692934453E-5,1.086706594E-1,1.086951408E-1
6.331235625E0,-2.042178530E-4,4.200385883E-4,1.159171164E-1,1.159180573E-1
6.341192625E0,2.032846678E-4,-8.232360706E-4,1.149163693E-1,1.149194978E-1
6.351148625E0,6.544240750E-4,3.304453567E-4,1.161259785E-1,1.161282927E-1
6.361105625E0,-1.448802650E-3,9.607607499E-4,1.169750094E-1,1.169879264E-1
6.371061625E0,1.445787377E-3,-5.447240546E-4,1.144998670E-1,1.145102902E-1
6.381018625E0,-7.679592818E-5,1.983174123E-3,1.165636927E-1,1.165805873E-1
6.390974625E0,1.821238897E-3,-1.267747022E-3,1.154456958E-1,1.154670203E-1
6.400931625E0,8.529252373E-4,-3.699008375E-4,1.188048869E-1,1.188085244E-1
6.410887625E0,1.892654691E-4,-2.896441147E-3,1.134085283E-1,1.134456675E-1
6.420844625E0,-6.625100505E-4,1.834981143E-3,1.140149310E-1,1.140316209E-1
6.430800625E0,-8.422732353E-4,-5.645267665E-4,1.110348552E-1,1.110394848E-1
6.440757625E0,8.632272948E-4,-3.045901656E-3,1.111458018E-1,1.111908807E-1
6.450713625E0,1.294392976E-3,-7.846113294E-4,1.134510338E-1,1.134611305E-1
6.460670625E0,1.705676201E-3,-1.123017631E-3,1.159351841E-1,1.159531690E-1
6.470626625E0,4.609148018E-4,2.189492807E-4,1.180694401E-1,1.180705428E-1
6.480583625E0,3.751402255E-4,1.270983368E-3,1.135704592E-1,1.135781904E-1
6.490540625E0,-6.003757007E-4,2.063273452E-3,1.152205542E-1,1.152405903E-1
6.500496625E0,8.241033647E-4,-1.579634845E-4,1.153248847E-1,1.153279373E-1
6.510453625E0,6.986684166E-4,-2.077570185E-3,1.147653610E-1,1.147862906E-1
6.520409625E0,3.517721780E-3,-2.087521367E-3,1.095838398E-1,1.096601571E-1
6.530366625E0,-1.269310247E-3,1.477385871E-3,1.111098304E-1,1.111269015E-1
6.540322625E0,5.752476864E-5,5.114376545E-4,1.107820570E-1,1.107832525E-1
6.550279625E0,1.358478912E-3,-1.051572151E-3,1.150931790E-1,1.151059995E-1
6.560235625E0,-3.841079306E-4,-2.728281543E-4,1.102071553E-1,1.102081624E-1
6.570192625E0,1.189820236E-3,-4.805540666E-4,1.140160039E-1,1.140232246E-1
6.580148625E0,-1.170730684E-4,-1.280390657E-3,1.136909351E-1,1.136982050E-1
6.590105625E0,-6.198780611E-4,2.434700727E-4,1.130166277E-1,1.130185899E-1
6.600061625E0,4.250041675E-4,1.046408899E-3,1.148545146E-1,1.148600676E-1
6.610018625E0,-1.110574696E-3,1.883174293E-3,1.120081320E-1,1.120294665E-1
6.619975625E0,2.623575274E-4,-9.309714660E-4,1.135103852E-1,1.135145060E-1
6.629931625E0,2.280026674E-4,-1.024181955E-3,1.124360636E-1,1.124409593E-1
6.639888625E0,2.531500068E-3,2.362106927E-3,1.121963635E-1,1.122497752E-1
6.649844625E0,2.608888317E-4,1.301370561E-3,1.128674820E-1,1.128752857E-1
6.659801625E0,-1.585604623E-3,-1.881483942E-3,1.125783548E-1,1.126052401E-1
6.669757625E0,-1.129138749E-3,-9.552370757E-4,1.133613214E-1,1.133709690E-1
6.679714625E0,-2.025333699E-3,2.412497997E-5,1.145048365E-1,1.145227494E-1
6.689670625E0,8.050736506E-4,1.113624312E-3,1.158659756E-1,1.158741240E-1
6.699627625E0,-1.356173307E-4,-1.950254664E-4,1.159158573E-1,1.159161007E-1
6.709583625E0,-1.943104668E-3,1.192279160E-4,1.153696403E-1,1.153860640E-1
6.719540625E0,3.629968502E-3,-3.000248224E-3,1.122752652E-1,1.123739887E-1
6.729496625E0,4.738564603E-4,1.065866090E-3,1.087950468E-1,1.088012997E-1
6.739453625E0,2.381164813E-3,1.619132236E-3,1.136930734E-1,1.137295321E-1
6.749409625E0,-2.561928472E-3,-2.280800603E-3,1.111010239E-1,1.111539609E-1
6.759366625E0,1.492307987E-3,6.547197700E-7,1.135469750E-1,1.135567810E-1
6.769322625E0,-4.211731721E-4,5.239658058E-4,1.143041104E-1,1.143060873E-1
6.779279625E0,-2.449091990E-4,3.643940669E-3,1.147277504E-1,1.147858659E-1
6.789236625E0,4.331315868E-4,1.769874245E-3,1.147852764E-1,1.147997375E-1
6.799192625E0,3.673394211E-3,-1.158048399E-3,1.129391566E-1,1.130048140E-1
6.809149625E0,-4.606307484E-4,5.423799157E-4,1.137865782E-1,1.137888032E-1
6.819105625E0,1.426934614E-3,1.796198077E-3,1.134036258E-1,1.134268258E-1
6.829062625E0,-5.696371663E-4,1.858782955E-3,1.127772555E-1,1.127940110E-1
6.839018625E0,2.024600981E-3,2.526119351E-5,1.112174019E-1,1.112358312E-1
6.848975625E0,-2.251636935E-3,1.578150317E-3,1.116493642E-1,1.116832170E-1
6.858931625E0,-2.386445645E-3,-1.845471561E-4,1.144828647E-1,1.145078840E-1
6.868888625E0,-1.023439690E-3,-9.414171800E-4,1.147550419E-1,1.147634669E-1
6.878844625E0,1.882299315E-3,-7.736496627E-4,1.160886511E-1,1.161064878E-1
6.888801625E0,-1.433070051E-3,6.367610767E-4,1.138659716E-1,1.138767695E-1
6.898758625E0,-1.594664063E-3,3.763660789E-4,1.159979105E-1,1.160094817E-1
6.908714625E0,6.447879132E-4,-2.848971635E-4,1.117810607E-1,1.117832834E-1
6.918671625E0,1.765508205E-5,2.064881846E-3,1.113426015E-1,1.113617482E-1
6.928627625E0,-1.420451794E-3,6.355624646E-4,1.101327240E-1,1.101437176E-1
6.938584625E0,2.458120929E-3,-3.815591335E-4,1.102203876E-1,1.102484548E-1
6.948540625E0,-3.278118093E-4,-1.084711403E-5,1.121700853E-1,1.121705648E-1
6.958497625E0,3.672704566E-3,-1.115666702E-3,1.171002537E-1,1.171631465E-1
6.968453625E0,-1.587853767E-4,1.364802010E-3,1.157183349E-1,1.157264919E-1
6.978410625E0,1.146149123E-3,-7.448680699E-4,1.161815524E-1,1.161895934E-1
6.988366625E0,1.432172605E-3,1.629872248E-3,1.136456951E-1,1.136664050E-1
6.998323625E0,-4.200807307E-4,5.984259769E-4,1.132358313E-1,1.132381917E-1
7.008279625E0,2.051066374E-3,5.620624870E-5,1.132728532E-1,1.132914353E-1
7.018236625E0,3.133069258E-4,-1.324662007E-3,1.134089604E-1,1.134171292E-1
7.028192625E0,3.252911847E-4,9.376928210E-4,1.113884225E-1,1.113928443E-1
7.038149625E0,-1.114896964E-3,5.095684901E-4,1.103607193E-1,1.103675270E-1
7.048105625E0,-1.122886781E-3,2.590296790E-3,1.112800464E-1,1.113158535E-1
7.058062625E0,1.045587938E-3,-4.328228533E-5,1.119141877E-1,1.119190803E-1
7.068019625E0,1.081554219E-4,-8.030049503E-5,1.131381765E-1,1.131382567E-1
7.077975625E0,-5.093473010E-5,2.626984380E-3,1.138996035E-1,1.139299053E-1
7.087932625E0,-1.729258802E-3,3.643631935E-4,1.128332764E-1,1.128471150E-1
7.097888625E0,3.884821199E-4,-8.377134800E-4,1.104829013E-1,1.104867602E-1
7.107845625E0,-1.170532312E-3,-2.396727912E-3,1.110927686E-1,1.111247843E-1
7.117801625E0,6.187041290E-4,-6.102100015E-4,1.090853140E-1,1.090887752E-1
7.127758625E0,-3.972919658E-4,-1.089313067E-3,1.126792505E-1,1.126852162E-1
7.137714625E0,1.628417522E-6,-9.473441169E-4,1.157935783E-1,1.157974535E-1
7.147671625E0,-8.340715431E-4,-1.489830203E-3,1.166721582E-1,1.166846510E-1
7.157627625E0,1.402124763E-4,1.750825904E-3,1.187140346E-1,1.187270275E-1
7.167584625E0,2.065678127E-3,-4.699835554E-4,1.133624166E-1,1.133822094E-1
7.177540625E0,1.080332440E-3,1.097071916E-3,1.129499078E-1,1.129604017E-1
7.187497625E0,-2.719465643E-3,1.602273434E-3,1.104345545E-1,1.104796524E-1
7.197454625E0,1.555289142E-3,6.470782682E-4,1.106904894E-1,1.107033065E-1
7.207410667E0,1.604025019E-3,-7.532117888E-4,1.125083715E-1,1.125223261E-1
7.217367667E0,8.630286902E-4,1.633716747E-4,1.151200831E-1,1.151234339E-1
7.227323667E0,8.438541554E-4,-3.034807742E-4,1.158857420E-1,1.158892117E-1
7.237280667E0,2.821930684E-5,-4.871031269E-4,1.167426854E-1,1.167437051E-1
7.247236667E0,-8.189321961E-4,-1.204558648E-3,1.125300974E-1,1.125395238E-1
7.257193667E0,1.176907681E-4,2.301380970E-3,1.152732447E-1,1.152962755E-1
7.267149667E0,7.002009079E-5,-1.093083993E-3,1.113674492E-1,1.113728354E-1
7.277106667E0,1.150893513E-4,1.243119128E-3,1.145547107E-1,1.145615133E-1
7.287062667E0,-1.531010726E-3,-8.618431166E-4,1.142388582E-1,1.142523676E-1
7.297019667E0,1.286228187E-3,2.219146118E-4,1.201565862E-1,1.201636752E-1
7.306975667E0,-1.347638201E-3,-3.866180778E-4,1.155663654E-1,1.155748693E-1
7.316932667E0,2.553638536E-3,-1.874781214E-3,1.162774265E-1,1.163205733E-1
7.326888667E0,1.264934894E-3,7.082186639E-4,1.126185134E-1,1.126278438E-1
7.336845667E0,1.262106700E-3,-1.155687496E-3,1.096422598E-1,1.096556139E-1
7.346802667E0,-8.737486787E-4,8.733747527E-4,1.094324067E-1,1.094393798E-1
7.356758667E0,-1.176695572E-3,-4.797102883E-4,1.139093190E-1,1.139164066E-1
7.366715667E0,1.366623095E-3,1.400075853E-4,1.171772853E-1,1.171853380E-1
7.376671667E0,-1.602367964E-3,-1.226542518E-4,1.199469790E-1,1.199577442E-1
7.386628667E0,3.760941327E-4,-1.915228553E-3,1.150526181E-1,1.150691726E-1
7.396584667E0,1.752508455E-3,9.518563747E-4,1.117066890E-1,1.117244901E-1
7.406541667E0,-9.924117476E-4,-4.975870252E-5,1.072341800E-1,1.072387836E-1
7.416497667E0,9.725643322E-4,5.756467581E-4,1.069276556E-1,1.069336280E-1
7.426454667E0,1.578966156E-3,1.438511536E-3,1.098888218E-1,1.099095793E-1
7.436410667E0,1.540576690E-3,-1.417936757E-3,1.141344830E-1,1.141536865E-1
7.446367667E0,4.902260844E-4,-5.420232192E-4,1.174799427E-1,1.174822159E-1
7.456323667E0,3.324428108E-4,8.671097457E-4,1.175232604E-1,1.175269294E-1
7.466280667E0,1.429132652E-3,2.468600869E-4,1.155192330E-1,1.155283366E-1
7.476236667E0,1.484305481E-3,1.220079139E-3,1.136293560E-1,1.136455996E-1
7.486193667E0,2.584989881E-3,-9.213685989E-4,1.074380353E-1,1.074730781E-1
7.496150667E0,-1.403259113E-3,-7.380926982E-4,1.066778153E-1,1.066895974E-1
7.506106667E0,-1.478626858E-3,-5.609923974E-4,1.110065132E-1,1.110177780E-1
7.516063667E0,-2.402402926E-3,-1.573963091E-4,1.139090955E-1,1.139345354E-1
7.526019667E0,-1.320580486E-4,-8.812434971E-4,1.170050204E-1,1.170084135E-1
7.535976667E0,-3.329499858E-3,2.586802933E-3,1.175323576E-1,1.176079597E-1
7.545932667E0,-9.535672143E-5,6.815772504E-4,1.143797040E-1,1.143817745E-1
7.555889667E0,3.384385956E-3,1.560822129E-4,1.103399917E-1,1.103919934E-1
7.565845667E0,-6.351231132E-4,5.089510232E-4,1.123229861E-1,1.123259348E-1
7.575802667E0,-5.031311885E-4,1.595263369E-3,1.158703417E-1,1.158824149E-1
7.585758667E0,-1.012601424E-4,-1.661507413E-4,1.169678271E-1,1.169679889E-1
7.595715667E0,1.095690182E-3,-1.566219144E-3,1.153043583E-1,1.153202004E-1
7.605671667E0,2.278133761E-3,-1.443181187E-3,1.129676998E-1,1.129998843E-1
7.615628667E0,1.463833963E-3,-1.284907572E-3,1.129407287E-1,1.129575229E-1
7.625584667E0,-3.484471235E-4,-1.260139979E-3,1.116834506E-1,1.116911031E-1
7.635541667E0,-1.482024323E-3,1.752904616E-3,1.117510423E-1,1.117746149E-1
7.645498667E0,1.031999709E-3,-5.214344710E-4,1.135340258E-1,1.135399134E-1
7.655454667E0,2.608485986E-3,-2.890946344E-4,1.157739088E-1,1.158036516E-1
7.665411667E0,7.059236523E-4,-2.584680915E-4,1.148050502E-1,1.148075114E-1
7.675367667E0,-2.617096761E-3,3.439477645E-3,1.138859540E-1,1.139679329E-1
7.685324667E0,1.218387857E-3,-4.061274230E-4,1.119216084E-1,1.119289768E-1
7.695280667E0,2.366512548E-3,1.679814421E-3,1.090978980E-1,1.091364903E-1
7.705237667E0,-4.809391685E-4,-2.498419024E-3,1.064983830E-1,1.065287707E-1
7.715193667E0,-1.876091585E-3,-1.432169229E-4,1.110646427E-1,1.110805792E-1
7.725150667E0,-2.955053933E-4,-3.032214008E-3,1.115144491E-1,1.115560577E-1
7.735106667E0,2.560899360E-3,4.793060943E-4,1.159437820E-1,1.159730509E-1
7.745063667E0,3.403557930E-4,-3.220623359E-3,1.165627018E-1,1.166076828E-1
7.755019667E0,1.414992497E-3,9.124353528E-4,1.168758497E-1,1.168879762E-1
7.764976667E0,1.408600947E-3,1.145728864E-3,1.158979386E-1,1.159121608E-1
7.774932667E0,3.695483087E-3,1.309912652E-3,1.099518239E-1,1.100217072E-1
7.784889667E0,-2.417343203E-4,1.394534484E-4,1.068716124E-1,1.068719767E-1
7.794846667E0,5.523674190E-6,2.169720829E-3,1.067637876E-1,1.067858327E-1
7.804802667E0,-2.532202518E-3,1.641616225E-3,1.099191010E-1,1.099605189E-1
7.814759667E0,-4.039453343E-4,1.463691704E-3,1.138729975E-1,1.138831204E-1
7.824715667E0,-1.209817827E-3,-4.734909162E-4,1.164562628E-1,1.164635093E-1
7.834672667E0,4.186946899E-4,2.726232633E-4,1.153460741E-1,1.153471562E-1
7.844628667E0,-8.489699103E-4,3.458606079E-4,1.121926308E-1,1.121963759E-1
7.854585667E0,-2.643338405E-3,-9.170426056E-4,1.117918342E-1,1.118268412E-1
7.864541667E0,-2.637213096E-3,-2.985786647E-3,1.118285879E-1,1.118995214E-1
7.874498667E0,-1.970232464E-3,1.443910412E-3,1.133692935E-1,1.133956058E-1
7.884454667E0,2.413064474E-3,-9.867567569E-4,1.135511920E-1,1.135811154E-1
7.894411667E0,-1.873084810E-3,1.015570015E-3,1.143006161E-1,1.143204735E-1
7.904367667E0,1.143743866E-3,9.251851588E-5,1.146968976E-1,1.147026374E-1
7.914324667E0,3.184471279E-5,-2.796370536E-4,1.133802608E-1,1.133806101E-1
7.924280667E0,-3.689609002E-4,-2.274611033E-3,1.132534891E-1,1.132769296E-1
7.934237667E0,-4.844574723E-4,1.686960459E-3,1.180766970E-1,1.180897409E-1
7.944194667E0,-6.543672644E-4,-4.755612463E-5,1.163301989E-1,1.163320491E-1
7.954150667E0,7.454955485E-4,1.951056533E-3,1.136711314E-1,1.136903184E-1
7.964107667E0,-7.197756786E-4,1.596590504E-3,1.098337770E-1,1.098477389E-1
7.974063667E0,9.892592207E-4,1.441908069E-3,1.110463291E-1,1.110600961E-1
7.984020667E0,-6.645636167E-4,5.633318797E-4,1.093656123E-1,1.093690822E-1
7.993976667E0,2.087730914E-3,1.309850253E-3,1.117977053E-1,1.118248686E-1
8.003933667E0,-4.792013206E-3,1.162577420E-3,1.178992689E-1,1.180023414E-1
8.013889667E0,2.670346759E-3,1.599588431E-3,1.175287142E-1,1.175699286E-1
8.023846667E0,3.536629956E-4,4.512332380E-4,1.161862165E-1,1.161876310E-1
8.033802667E0,1.113569830E-3,-1.082328148E-3,1.128246561E-1,1.128353424E-1
8.043759667E0,1.042197226E-3,-8.916454390E-4,1.128270552E-1,1.128353915E-1
8.053715667E0,1.872703433E-4,-1.199374907E-3,1.100009307E-1,1.100076285E-1
8.063672667E0,-4.548998550E-5,2.564203925E-3,1.120917797E-1,1.121211144E-1
8.073629667E0,4.745924380E-4,1.306652091E-3,1.100795493E-1,1.100883270E-1
8.083585667E0,1.343581825E-3,-8.377255872E-4,1.129861251E-1,1.129972188E-1
8.093542667E0,3.107364755E-3,1.144663431E-3,1.137570590E-1,1.138052478E-1
8.103498667E0,-5.832440220E-4,1.379021443E-3,1.118206754E-1,1.118306994E-1
8.113455667E0,-1.671586186E-3,2.516477369E-3,1.119091064E-1,1.119498769E-1
8.123411667E0,-9.994045831E-4,-1.758429222E-3,1.123293564E-1,1.123475642E-1
8.133368667E0,-6.658490747E-4,1.359033398E-3,1.145259887E-1,1.145359874E-1
8.143324667E0,-4.679763224E-4,1.302573830E-3,1.160309389E-1,1.160391938E-1
8.153281667E0,1.526686829E-3,-2.680048347E-4,1.135309041E-1,1.135414848E-1
8.163237667E0,6.923184264E-4,6.803469732E-4,1.142691225E-1,1.142732450E-1
8.173194667E0,1.069045858E-3,1.857635565E-3,1.090610772E-1,1.090821353E-1
8.183150667E0,-1.250567380E-3,3.763847053E-4,1.068714261E-1,1.068794054E-1
8.193107667E0,-6.691091694E-4,-9.584985673E-5,1.094722673E-1,1.094743541E-1
8.203063750E0,1.600170275E-3,2.075158991E-3,1.116637811E-1,1.116945247E-1
8.213020750E0,2.516721841E-3,-3.044996411E-4,1.152125150E-1,1.152404019E-1
8.222977750E0,1.517237630E-3,-3.883885220E-4,1.179206818E-1,1.179310818E-1
8.232933750E0,-3.678831272E-4,5.253572017E-4,1.178659424E-1,1.178676873E-1
8.242890750E0,2.126700012E-3,3.823461011E-4,1.159119830E-1,1.159321217E-1
8.252846750E0,6.410803180E-4,-8.558556437E-4,1.088448241E-1,1.088500768E-1
8.262803750E0,7.247035392E-4,-6.784899160E-4,1.115388721E-1,1.115432900E-1
8.272759750E0,-9.516808204E-4,1.219605096E-3,1.095609888E-1,1.095719098E-1
8.282716750E0,1.247557579E-3,2.242791466E-3,1.126558483E-1,1.126850774E-1
8.292672750E0,3.646053839E-3,4.633329809E-6,1.135179251E-1,1.135764635E-1
8.302629750E0,1.144812908E-3,-3.687422723E-4,1.144867763E-1,1.144930937E-1
8.312585750E0,-4.029797856E-4,-2.843765542E-4,1.133767217E-1,1.133777945E-1
8.322542750E0,-1.262773294E-4,-5.464311689E-4,1.134049520E-1,1.134063388E-1
8.332498750E0,3.753132187E-4,-1.164800487E-3,1.142784283E-1,1.142849806E-1
8.342455750E0,-5.208405200E-4,6.914222613E-4,1.161498353E-1,1.161530610E-1
8.352411750E0,-1.007044222E-3,1.078350469E-4,1.141775325E-1,1.141820244E-1
8.362368750E0,9.093664121E-4,-6.628837436E-4,1.137756631E-1,1.137812281E-1
8.372325750E0,1.193516422E-3,8.547827601E-4,1.123357266E-1,1.123453186E-1
8.382281750E0,3.053522669E-4,-1.353244297E-3,1.088837385E-1,1.088925756E-1
8.392238750E0,-1.802068669E-3,2.622730099E-3,1.116035730E-1,1.116489304E-1
8.402194750E0,-1.055318397E-3,1.703140326E-3,1.137223840E-1,1.137400325E-1
8.412151750E0,-2.965427935E-3,-1.383237541E-4,1.148222089E-1,1.148605787E-1
8.422107750E0,-2.639723476E-3,-2.034567297E-5,1.149018407E-1,1.149321606E-1
8.432064750E0,9.214575402E-5,7.712468505E-5,1.154945865E-1,1.154946490E-1
8.442020750E0,8.170581423E-4,-1.011841930E-3,1.112247407E-1,1.112323440E-1
8.451977750E0,1.005500322E-3,-1.061162911E-3,1.104760468E-1,1.104857186E-1
8.461933750E0,-8.331460413E-4,6.845397875E-4,1.114078835E-1,1.114131017E-1
8.471890750E0,-2.229875885E-3,2.140237950E-3,1.123504490E-1,1.123929551E-1
8.481846750E0,-1.297769602E-3,-8.509960026E-5,1.134652495E-1,1.134727029E-1
8.491803750E0,8.202418685E-4,2.439364791E-3,1.182612553E-1,1.182892548E-1
8.501759750E0,3.073171247E-4,-1.486134715E-3,1.163349897E-1,1.163448876E-1
8.511716750E0,1.521635568E-3,7.787346840E-4,1.125891879E-1,1.126021627E-1
8.521673750E0,-1.196919475E-3,-6.268816069E-4,1.119910404E-1,1.119991907E-1
8.531629750E0,-3.329014871E-3,-4.648324102E-5,1.106043756E-1,1.106544730E-1
8.541586750E0,1.300890814E-3,7.612537593E-4,1.110709682E-1,1.110811946E-1
8.551542750E0,9.362499695E-4,1.562805846E-4,1.164647117E-1,1.164685797E-1
8.561499750E0,9.152109269E-4,-1.845085062E-3,1.160737574E-1,1.160920286E-1
8.571455750E0,1.663539791E-3,-1.129975542E-3,1.140761226E-1,1.140938472E-1
8.581412750E0,-2.506437711E-3,-9.177215397E-4,1.144737303E-1,1.145048443E-1
8.591368750E0,1.060090261E-3,5.484297872E-4,1.131419241E-1,1.131482195E-1
8.601325750E0,-1.074699685E-3,-1.911798492E-3,1.178250909E-1,1.178455005E-1
8.611281750E0,-8.195876144E-4,1.222215593E-3,1.174146608E-1,1.174238821E-1
8.621238750E0,9.058744181E-4,-6.917985156E-4,1.166181043E-1,1.166236744E-1
8.631194750E0,-1.632974716E-3,3.513687290E-3,1.136463061E-1,1.137123366E-1
8.641151750E0,-7.141842507E-4,-4.962179810E-5,1.093351841E-1,1.093375279E-1
8.651107750E0,-2.290955745E-4,2.614036202E-4,1.095389426E-1,1.095394941E-1
8.661064750E0,-5.193802062E-4,-9.343558922E-4,1.122841239E-1,1.122892126E-1
8.671021750E0,1.950797159E-4,-1.218956895E-3,1.180902272E-1,1.180966794E-1
8.680977750E0,1.972101163E-4,-1.854653470E-3,1.190500408E-1,1.190646499E-1
8.690934750E0,1.092332415E-3,-1.254281960E-3,1.129384637E-1,1.129507105E-1
8.700890750E0,-3.665671218E-3,1.309542917E-3,1.117688119E-1,1.118365744E-1
8.710847750E0,5.912852939E-4,-9.173108265E-4,1.096427962E-1,1.096482277E-1
8.720803750E0,1.174783916E-3,6.659384817E-4,1.133427247E-1,1.133507690E-1
8.730760750E0,-1.559985802E-3,1.534011215E-3,1.130889356E-1,1.131100973E-1
8.740716750E0,1.793466625E-3,-6.689550355E-4,1.147624701E-1,1.147784325E-1
8.750673750E0,1.310874824E-3,2.015805803E-3,1.144333556E-1,1.144586159E-1
8.760629750E0,1.176385093E-3,-1.044432633E-3,1.090857238E-1,1.090970662E-1
8.770586750E0,7.009455003E-4,1.452230848E-3,1.070461720E-1,1.070583170E-1
8.780542750E0,-1.676192041E-3,-6.545959041E-4,1.101642027E-1,1.101788985E-1
8.790499750E0,-9.448900819E-4,-2.215084620E-3,1.141551957E-1,1.141805943E-1
8.800456750E0,1.629853970E-3,1.469132490E-3,1.141818240E-1,1.142029059E-1
8.810412750E0,-2.309319098E-4,3.853216767E-4,1.128513962E-1,1.128522903E-1
8.820369750E0,4.806648940E-4,-7.049757987E-4,1.101679951E-1,1.101712992E-1
8.830325750E0,1.047258731E-3,8.559571579E-4,1.110092849E-1,1.110175245E-1
8.840282750E0,-1.553850714E-3,-1.455666497E-3,1.123352721E-1,1.123554484E-1
8.850238750E0,-1.423066482E-3,4.169130698E-4,1.118759289E-1,1.118857561E-1
8.860195750E0,8.563329466E-4,1.498157158E-3,1.138663739E-1,1.138794489E-1
8.870151750E0,-2.721707802E-3,-2.094637603E-5,1.160186380E-1,1.160505601E-1
8.880108750E0,1.746810041E-3,-3.101658076E-4,1.145826578E-1,1.145963918E-1
8.890064750E0,1.109498553E-3,2.011494711E-3,1.149712354E-1,1.149941827E-1
8.900021750E0,-1.158449333E-3,-1.119051129E-3,1.124707982E-1,1.124823307E-1
8.909977750E0,1.315842848E-3,-5.988869816E-4,1.144664958E-1,1.144756252E-1
8.919934750E0,-1.816833392E-3,-5.131335929E-4,1.110168993E-1,1.110329507E-1
8.929890750E0,3.456845880E-3,6.731553003E-4,1.154965907E-1,1.155502721E-1
8.939847750E0,-1.341637922E-3,-2.931433730E-3,1.173821092E-1,1.174263720E-1
8.949803750E0,9.277837817E-4,-1.964647323E-3,1.133285239E-1,1.133493492E-1
8.959760750E0,-1.806237269E-4,-6.775418296E-4,1.120036021E-1,1.120057970E-1
8.969717750E0,-5.109065678E-4,-1.657638699E-3,1.083812788E-1,1.083951585E-1
8.979673750E0,-1.306925435E-3,3.045788035E-4,1.093935445E-1,1.094017751E-1
8.989630750E0,-5.262037739E-4,1.182650216E-3,1.110957563E-1,1.111032971E-1
8.999586750E0,-6.361922715E-4,1.994110644E-4,1.162638813E-1,1.162657929E-1
9.009543750E0,-2.401016653E-3,1.062107272E-3,1.147974432E-1,1.148274615E-1
9.019499750E0,-9.746276774E-4,1.871707849E-3,1.138935685E-1,1.139131166E-1
9.029456750E0,-7.112193853E-4,7.882295176E-4,1.090723053E-1,1.090774721E-1
9.039412750E0,5.202260800E-4,1.324590296E-3,1.058703884E-1,1.058799524E-1
9.049369750E0,-2.413525013E-3,-9.352955967E-4,1.105660647E-1,1.105963587E-1
9.059325750E0,-2.141083358E-3,-1.258603297E-3,1.125546470E-1,1.125820451E-1
9.069282750E0,-4.592991900E-4,1.674053259E-3,1.153227687E-1,1.153358331E-1
9.079238750E0,1.223019673E-3,1.494023949E-3,1.165334433E-1,1.165494371E-1
9.089195750E0,-1.084130257E-3,1.826044172E-3,1.154501587E-1,1.154696883E-1
9.099152750E0,-1.379474532E-3,-3.026211634E-4,1.114082783E-1,1.114172294E-1
9.109108750E0,8.977935649E-4,-1.821126789E-4,1.126473695E-1,1.126510943E-1
9.119065750E0,-1.176698133E-4,2.823425457E-4,1.152934879E-1,1.152938937E-1
9.129021750E0,1.165909925E-3,4.897676408E-4,1.158644557E-1,1.158713567E-1
9.138978750E0,2.215461805E-3,-3.104701638E-3,1.101170853E-1,1.101831199E-1
9.148934750E0,3.300572746E-3,-3.001755103E-4,1.114734113E-1,1.115226673E-1
9.158891750E0,-2.502988093E-3,7.027015090E-5,1.074155569E-1,1.074447381E-1
9.168847750E0,-1.471078955E-3,-8.697072044E-4,1.131807491E-1,1.131936502E-1
9.178804750E0,1.217573881E-4,1.714624465E-3,1.152955666E-1,1.153083798E-1
9.188760750E0,-2.052776050E-3,-8.497135714E-4,1.145624518E-1,1.145839922E-1
9.198717750E0,-1.444243360E-3,-2.191946842E-3,1.147587225E-1,1.147887401E-1
9.208674125E0,1.307638595E-3,-9.830370545E-4,1.139730364E-1,1.139847767E-1
9.218631125E0,2.363581909E-3,-2.162017860E-3,1.147741154E-1,1.148188068E-1
9.228587125E0,-1.361444127E-3,1.718454994E-3,1.117045507E-1,1.117260635E-1
9.238544125E0,2.950420603E-4,-6.133504212E-5,1.102968082E-1,1.102972199E-1
9.248501125E0,5.606650375E-4,-2.094815485E-3,1.095462441E-1,1.095677060E-1
9.258457125E0,-4.226899706E-3,-7.121022791E-4,1.122171283E-1,1.122989655E-1
9.268414125E0,3.126903903E-4,3.133350983E-4,1.114105210E-1,1.114114004E-1
9.278370125E0,-3.751530312E-5,6.233267486E-4,1.142518446E-1,1.142535511E-1
9.288327125E0,1.075175358E-3,-1.605500467E-3,1.172380745E-1,1.172539968E-1
9.298283125E0,1.928718528E-3,-4.201279953E-4,1.160178185E-1,1.160346098E-1
9.308240125E0,3.949247766E-4,-1.378022134E-4,1.122932583E-1,1.122940373E-1
9.318196125E0,-6.668774877E-4,1.108290628E-3,1.075834557E-1,1.075912310E-1
9.328153125E0,2.220154740E-3,1.407265663E-4,1.078261510E-1,1.078490970E-1
9.338109125E0,-3.663073294E-4,1.945550554E-3,1.095092744E-1,1.095271680E-1
9.348066125E0,1.502772211E-3,7.315389812E-4,1.127147377E-1,1.127271288E-1
9.358022125E0,2.646686044E-4,8.934596553E-4,1.121741161E-1,1.121779864E-1
9.367979125E0,1.646236633E-3,3.446862102E-4,1.140600368E-1,1.140724371E-1
9.377935125E0,-7.056009490E-4,2.309689298E-4,1.141340733E-1,1.141364880E-1
9.387892125E0,5.884021521E-4,7.255105302E-4,1.134028956E-1,1.134067428E-1
9.397849125E0,-1.846792176E-3,1.359875314E-3,1.148543209E-1,1.148772167E-1
9.407805125E0,-3.551656846E-4,1.070404425E-3,1.123666167E-1,1.123722762E-1
9.417762125E0,-1.863580197E-3,1.321732998E-4,1.124505028E-1,1.124660215E-1
9.427718125E0,1.262584701E-3,1.205169596E-3,1.110713109E-1,1.110850245E-1
9.437675125E0,-4.662526771E-5,-2.216991968E-3,1.110891551E-1,1.111112848E-1
9.447631125E0,1.234281459E-3,8.043386042E-4,1.111314371E-1,1.111412018E-1
9.457588125E0,4.251697101E-5,-1.176254824E-3,1.132601053E-1,1.132662210E-1
9.467544125E0,2.004882554E-3,9.887926280E-4,1.180691570E-1,1.180903176E-1
9.477501125E0,-2.047116868E-3,3.610858694E-4,1.171226725E-1,1.171411178E-1
9.487457125E0,1.814123243E-4,-7.840283215E-4,1.177520826E-1,1.177548325E-1
9.497414125E0,1.529770903E-3,-1.046615653E-3,1.156481877E-1,1.156630404E-1
9.507370125E0,1.991540659E-3,1.229196787E-4,1.118073240E-1,1.118251271E-1
9.517327125E0,-4.630950280E-4,-1.055262983E-3,1.093385741E-1,1.093446470E-1
9.527284125E0,2.034256700E-3,1.063193195E-3,1.069919094E-1,1.070165280E-1
9.537240125E0,-8.866982535E-4,3.566564992E-4,1.097834408E-1,1.097876009E-1
9.547197125E0,-3.346905578E-3,1.189082861E-3,1.121788323E-1,1.122350485E-1
9.557153125E0,-1.471175347E-4,1.525813714E-4,1.146608964E-1,1.146610923E-1
9.567110125E0,-2.269756515E-4,3.598437179E-3,1.157746390E-1,1.158307701E-1
9.577066125E0,1.478246413E-3,1.447934657E-3,1.142531782E-1,1.142719146E-1
9.587023125E0,7.793931291E-4,-2.680644393E-4,1.121554226E-1,1.121584510E-1
9.596979125E0,-4.589767195E-4,-3.983173519E-5,1.089838669E-1,1.089848406E-1
9.606936125E0,2.951787785E-3,-7.800068706E-4,1.116819829E-1,1.117237072E-1
9.616892125E0,1.839918084E-3,-7.501803339E-4,1.112494916E-1,1.112672344E-1
9.626849125E0,1.649604179E-3,-2.132155001E-3,1.122455895E-1,1.122779571E-1
9.636805125E0,4.562416580E-4,7.342053577E-4,1.149819866E-1,1.149852358E-1
9.646762125E0,1.422210597E-3,5.085868761E-4,1.124913245E-1,1.125014642E-1
9.656718125E0,-1.405001152E-3,1.389560290E-3,1.117632091E-1,1.117806773E-1
9.666675125E0,-3.774412908E-4,1.668151468E-3,1.119620949E-1,1.119751575E-1
9.676631125E0,6.404188462E-4,3.032814711E-4,1.133823618E-1,1.133845761E-1
9.686588125E0,5.549313501E-4,-1.857364550E-4,1.139296591E-1,1.139311620E-1
9.696545125E0,-1.638181508E-3,1.681938767E-3,1.166319698E-1,1.166555997E-1
9.706501125E0,-1.828358043E-3,-2.483590506E-3,1.114007086E-1,1.114433891E-1
9.716458125E0,1.108576078E-3,-3.751665354E-4,1.137882322E-1,1.137942506E-1
9.726414125E0,1.347471029E-3,1.842559315E-3,1.131296307E-1,1.131526581E-1
9.736371125E0,8.071155753E-4,4.178844392E-6,1.134071350E-1,1.134100072E-1
9.746327125E0,-2.123180311E-3,5.577970296E-4,1.151189208E-1,1.151398496E-1
9.756284125E0,-6.073089316E-4,-8.509028703E-5,1.130309999E-1,1.130326634E-1
9.766240125E0,-3.408177290E-4,-1.724604517E-4,1.132169068E-1,1.132175511E-1
9.776197125E0,-2.699776087E-4,-6.307903677E-4,1.137665957E-1,1.137686648E-1
9.786153125E0,5.664750934E-4,1.686519943E-3,1.179478467E-1,1.179612639E-1
9.796110125E0,-1.225566026E-3,4.667919129E-4,1.179449186E-1,1.179522095E-1
9.806066125E0,1.517750323E-3,-3.318823874E-4,1.163723022E-1,1.163826724E-1
9.816023125E0,-3.669688012E-4,1.825012267E-3,1.154149026E-1,1.154299141E-1
9.825979125E0,-3.036959097E-4,-1.199981198E-3,1.126798466E-1,1.126866452E-1
9.835936125E0,-9.037062991E-4,6.154952571E-4,1.103397310E-1,1.103451483E-1
9.845893125E0,-2.987639513E-3,8.870167658E-4,1.094988883E-1,1.095432304E-1
9.855849125E0,-1.627296675E-3,-1.964163966E-3,1.090751737E-1,1.091049933E-1
9.865806125E0,-2.410020679E-4,2.847311553E-3,1.121881232E-1,1.122245082E-1
9.875762125E0,-1.867128070E-3,-4.595350474E-4,1.095811576E-1,1.095980266E-1
9.885719125E0,-3.852033988E-4,-1.865094528E-4,1.177075952E-1,1.177083733E-1
9.895675125E0,1.727289055E-4,-1.852050424E-3,1.154135466E-1,1.154285348E-1
9.905632125E0,3.106424119E-4,4.783077165E-4,1.142045185E-1,1.142059426E-1
9.915588125E0,3.500515595E-5,-2.316571772E-5,1.113871634E-1,1.113871713E-1
9.925545125E0,1.180996187E-4,3.274529241E-3,1.082116216E-1,1.082612190E-1
9.935501125E0,9.607237298E-4,-9.383251891E-4,1.090188324E-1,1.090271034E-1
9.945458125E0,2.046274953E-3,-5.867052823E-5,1.139083505E-1,1.139267440E-1
9.955414125E0,-1.567102037E-3,6.587849930E-4,1.151690930E-1,1.151816383E-1
9.965371125E0,4.052594304E-4,1.342603937E-4,1.146531850E-1,1.146539798E-1
9.975328125E0,-9.630725253E-4,-5.826624110E-4,1.144640967E-1,1.144696311E-1
9.985284125E0,1.131937956E-3,-1.017275266E-3,1.149360314E-1,1.149461067E-1
9.995241125E0,-8.188276552E-4,-1.185853966E-3,1.090139598E-1,1.090234844E-1
1.000519712E1,1.181148924E-3,2.648001537E-3,1.085373312E-1,1.085760530E-1
1.001515412E1,3.260078374E-4,-8.726976812E-4,1.126590967E-1,1.126629485E-1
1.002511012E1,2.865013899E-3,-5.349526182E-4,1.138825864E-1,1.139198752E-1
1.003506712E1,-1.610162202E-3,-2.116449177E-4,1.166317612E-1,1.166430672E-1
1.004502312E1,-3.769384697E-3,1.733507030E-3,1.166327521E-1,1.167065216E-1
1.005498012E1,-8.516255766E-4,-1.421539113E-3,1.142713279E-1,1.142833427E-1
1.006493612E1,-3.394232597E-3,7.839212194E-4,1.125143543E-1,1.125682694E-1
1.007489312E1,-8.714199066E-4,-1.801429316E-4,1.112152636E-1,1.112188234E-1
1.008484912E1,-8.853655308E-4,2.148053609E-3,1.149903983E-1,1.150138674E-1
1.009480612E1,3.356938250E-4,7.578833029E-4,1.129363030E-1,1.129393449E-1
1.010476212E1,-1.389297657E-3,3.755169921E-3,1.138750017E-1,1.139453705E-1
1.011471912E1,7.018165197E-4,-2.351458184E-3,1.097380444E-1,1.097654786E-1
1.012467613E1,-8.187973872E-4,1.060038805E-3,1.124079823E-1,1.124159624E-1
1.013463212E1,1.929933205E-5,1.300629228E-4,1.147028282E-1,1.147029036E-1
1.014458913E1,9.093829431E-4,-9.685661644E-5,1.143962666E-1,1.143999221E-1
1.015454512E1,5.234908313E-4,6.357794628E-4,1.165108159E-1,1.165137266E-1
1.016450213E1,5.923323333E-4,5.385978147E-4,1.148786023E-1,1.148813920E-1
1.017445812E1,2.576919971E-3,-9.141564369E-4,1.183401793E-1,1.183717629E-1
1.018441513E1,1.397676882E-3,2.034733072E-3,1.143744141E-1,1.144010500E-1
1.019437112E1,-2.721250057E-4,4.687942564E-4,1.137562990E-1,1.137575905E-1
1.020432787E1,3.443835303E-3,-7.333466783E-4,1.125185490E-1,1.125736277E-1
1.021428388E1,8.079549298E-5,7.841223851E-4,1.130085737E-1,1.130113229E-1
1.022424087E1,3.169293515E-3,5.263257772E-4,1.144252196E-1,1.144703120E-1
1.023419688E1,3.057707101E-3,-7.091145962E-4,1.136755347E-1,1.137188622E-1
1.024415387E1,1.299565774E-3,-3.569619730E-4,1.144710258E-1,1.144789589E-1
1.025411087E1,-6.871523801E-4,7.479842752E-4,1.117982715E-1,1.118028854E-1
1.026406687E1,1.447683549E-3,-1.072755083E-3,1.117580608E-1,1.117725849E-1
1.027402387E1,4.527266137E-4,-2.096474171E-3,1.091644093E-1,1.091854772E-1
1.028397987E1,6.288911682E-4,-9.054597467E-5,1.110392287E-1,1.110410466E-1
1.029393687E1,-1.442243811E-4,2.399524674E-4,1.153788492E-1,1.153791889E-1
1.030389287E1,-2.390860813E-3,-9.575868025E-4,1.121626273E-1,1.121921929E-1
1.031384987E1,1.301079523E-3,-3.293473274E-4,1.104281098E-1,1.104362653E-1
1.032380587E1,2.059930470E-3,4.446636885E-4,1.101679131E-1,1.101880671E-1
1.033376287E1,-1.274613431E-3,-9.630834684E-4,1.118521020E-1,1.118635101E-1
1.034371887E1,7.841205224E-4,1.296899281E-3,1.150733978E-1,1.150833770E-1
1.035367587E1,-1.211119816E-3,-7.042000070E-4,1.181346998E-1,1.181430066E-1
1.036363187E1,-7.082431111E-4,-1.363642514E-4,1.197015494E-1,1.197037223E-1
1.037358887E1,6.054942496E-4,2.623107284E-4,1.180360019E-1,1.180378464E-1
1.038354487E1,6.190780550E-4,1.161732711E-3,1.137328371E-1,1.137404551E-1
1.039350187E1,-2.480308991E-3,9.673461318E-5,1.111120209E-1,1.111397430E-1
1.040345888E1,-1.681747381E-4,-1.188060269E-3,1.090121791E-1,1.090187826E-1
1.041341487E1,1.261143712E-3,7.496550679E-4,1.095035300E-1,1.095133578E-1
1.042337188E1,6.310653407E-4,-5.404949188E-4,1.122657508E-1,1.122688255E-1
1.043332787E1,1.178742386E-4,1.656079665E-3,1.161627620E-1,1.161746262E-1
1.044328488E1,-1.873133238E-3,7.841736078E-6,1.191135868E-1,1.191283143E-1
1.045324087E1,-8.648606017E-4,2.355417237E-4,1.160349697E-1,1.160384318E-1
1.046319788E1,-3.531994298E-4,-1.221355051E-3,1.153163761E-1,1.153233847E-1
1.047315387E1,-1.007538289E-3,-1.305239275E-4,1.112310886E-1,1.112357283E-1
1.048311088E1,3.211675212E-4,1.148175448E-3,1.074372679E-1,1.074438830E-1
1.049306687E1,7.269461639E-5,-1.305661164E-3,1.057181954E-1,1.057262828E-1
1.050302388E1,-2.224626020E-3,-4.804870114E-4,1.087974235E-1,1.088212259E-1
1.051297987E1,-2.486681100E-3,-1.638364047E-4,1.111884117E-1,1.112163357E-1
1.052293688E1,-2.008483978E-3,5.907388404E-4,1.184075028E-1,1.184260094E-1
1.053289287E1,1.639514114E-3,-7.006274536E-4,1.199079305E-1,1.199211853E-1
1.054284987E1,-1.843018457E-3,-7.358659059E-4,1.161026508E-1,1.161196096E-1
1.055280687E1,-1.859997865E-4,-3.694146872E-4,1.104037538E-1,1.104045285E-1
1.056276287E1,-2.359214704E-4,-2.332301810E-3,1.069410145E-1,1.069667045E-1
1.057271987E1,-8.215506095E-4,5.883872509E-4,1.072462127E-1,1.072509733E-1
1.058267587E1,-1.073903171E-3,2.527926117E-4,1.128364578E-1,1.128418512E-1
1.059263287E1,-2.589761280E-4,1.798225567E-4,1.141584516E-1,1.141588869E-1
1.060258887E1,3.433187958E-4,1.507773995E-3,1.158071980E-1,1.158175218E-1
1.061254587E1,6.285433192E-4,-7.399339229E-4,1.135104895E-1,1.135146413E-1
1.062250187E1,-3.551268019E-4,1.232847571E-4,1.099042445E-1,1.099048874E-1
1.063245887E1,2.363612875E-4,1.047135331E-3,1.101870686E-1,1.101922976E-1
1.064241487E1,1.319124131E-3,-1.019789837E-3,1.110646948E-1,1.110772096E-1
1.065237187E1,-8.888915181E-5,-1.114864834E-3,1.155843437E-1,1.155897544E-1
1.066232787E1,3.477756400E-4,1.526396722E-3,1.162140593E-1,1.162246033E-1
1.067228487E1,-2.508997452E-3,-3.441464156E-3,1.177917197E-1,1.178686896E-1
1.068224187E1,-4.856067244E-4,6.904546171E-4,1.133622006E-1,1.133653433E-1
1.069219787E1,1.015883405E-3,-3.441842273E-4,1.093123332E-1,1.093175954E-1
1.070215487E1,1.173998346E-3,-7.069502026E-4,1.093277037E-1,1.093362925E-1
1.071211087E1,-2.520338632E-3,3.513908014E-4,1.150361896E-1,1.150643320E-1
1.072206787E1,-6.711401511E-4,1.025552861E-3,1.146646664E-1,1.146712165E-1
1.073202387E1,1.427164534E-3,-3.031507134E-3,1.180956140E-1,1.181431373E-1
1.074198087E1,-4.928263370E-4,2.179574221E-4,1.139293611E-1,1.139306355E-1
1.075193687E1,2.328848932E-4,-9.706113487E-4,1.133794114E-1,1.133838051E-1
1.076189387E1,3.076531924E-3,-3.035720438E-4,1.128641888E-1,1.129065203E-1
1.077184988E1,4.413342103E-4,1.666634344E-3,1.090955511E-1,1.091091734E-1
1.078180687E1,1.584435347E-3,1.020619646E-3,1.086435914E-1,1.086599377E-1
1.079176288E1,-2.014804631E-4,6.709471345E-4,1.119752079E-1,1.119773993E-1
1.080171987E1,-1.227758825E-3,2.339251339E-3,1.131137237E-1,1.131445711E-1
1.081167588E1,3.157935105E-3,2.771653235E-4,1.140516847E-1,1.140957325E-1
1.082163287E1,-1.448918600E-3,7.302556187E-4,1.150633320E-1,1.150747714E-1
1.083158988E1,1.737454440E-4,2.610059455E-4,1.125407889E-1,1.125412257E-1
1.084154587E1,1.163706998E-3,7.303617895E-4,1.091288179E-1,1.091374663E-1
1.085150287E1,-2.019569278E-3,-6.059650332E-5,1.127347350E-1,1.127528395E-1
1.086145887E1,1.103586983E-3,2.747159451E-4,1.147187427E-1,1.147243797E-1
1.087141587E1,2.067917725E-3,-2.773271874E-3,1.127253622E-1,1.127784314E-1
1.088137187E1,1.355168293E-3,-2.038870007E-3,1.134300306E-1,1.134564468E-1
1.089132887E1,6.417073309E-4,-1.714620739E-4,1.110206693E-1,1.110226563E-1
1.090128487E1,7.792827673E-4,1.782933250E-4,1.097709239E-1,1.097738347E-1
1.091124187E1,-1.801586477E-3,-1.915217377E-3,1.098518819E-1,1.098833460E-1
1.092119787E1,1.677674241E-3,-1.970166340E-3,1.137291789E-1,1.137586141E-1
1.093115487E1,1.029470004E-4,1.113241538E-3,1.162775531E-1,1.162829277E-1
1.094111087E1,1.370982733E-3,-8.052764460E-4,1.152970642E-1,1.153080269E-1
1.095106787E1,1.735569560E-3,1.469595358E-3,1.148531139E-1,1.148756270E-1
1.096102487E1,-1.062221127E-3,4.992904142E-4,1.140569746E-1,1.140630136E-1
1.097098087E1,-3.804520238E-4,-1.821921207E-3,1.102172285E-1,1.102329425E-1
1.098093787E1,5.267974921E-4,3.242706880E-4,1.123230383E-1,1.123247417E-1
1.099089387E1,8.402515668E-4,-3.287363797E-4,1.119584516E-1,1.119620872E-1
1.100085087E1,-4.959113430E-4,-6.338022649E-5,1.145445555E-1,1.145456466E-1
1.101080687E1,-6.596955936E-4,-6.479434669E-4,1.133266911E-1,1.133304634E-1
1.102076387E1,-1.398299821E-3,-1.867245883E-4,1.162250340E-1,1.162335951E-1
1.103071987E1,-2.012087498E-4,1.028741710E-3,1.150457859E-1,1.150505613E-1
1.104067687E1,2.270811005E-3,2.907868475E-5,1.129895449E-1,1.130123652E-1
1.105063287E1,1.222857041E-3,-1.247107983E-3,1.109514236E-1,1.109651705E-1
1.106058988E1,-1.181194093E-4,-1.701546833E-3,1.106418148E-1,1.106549610E-1
1.107054587E1,2.483315766E-4,6.777206436E-4,1.093272790E-1,1.093296616E-1
1.108050288E1,-1.035733614E-3,5.785506219E-4,1.096985564E-1,1.097049713E-1
1.109045987E1,-3.142831847E-4,-6.121490151E-4,1.129364297E-1,1.129385260E-1
1.110041588E1,2.374863019E-3,1.976783387E-3,1.149348021E-1,1.149763296E-1
1.111037287E1,7.119853981E-4,1.663329080E-3,1.146258786E-1,1.146401572E-1
1.112032888E1,-1.607877901E-3,8.110813797E-4,1.137632653E-1,1.137775182E-1
1.113028587E1,1.636571251E-4,-1.239552163E-3,1.117568389E-1,1.117638327E-1
1.114024188E1,9.961223695E-4,1.589395106E-4,1.127059534E-1,1.127104674E-1
1.115019887E1,-8.854006883E-4,-1.688953489E-4,1.117727831E-1,1.117764175E-1
1.116015488E1,-4.189289175E-4,-3.041960299E-4,1.131125242E-1,1.131137090E-1
1.117011187E1,-6.780542899E-4,-9.026089683E-4,1.128912121E-1,1.128968566E-1
1.118006788E1,-3.310752567E-3,3.696396016E-3,1.136211380E-1,1.137294484E-1
1.119002487E1,-2.047077287E-4,-1.156948507E-3,1.127193868E-1,1.127255100E-1
1.119998088E1,2.074109390E-3,-3.060074523E-4,1.129041165E-1,1.129235808E-1
1.120993825E1,-1.620760188E-3,5.964469165E-5,1.128798723E-1,1.128915231E-1
1.121989525E1,3.307661740E-3,1.437331550E-3,1.130093262E-1,1.130668579E-1
1.122985125E1,-2.351555275E-3,3.036241978E-4,1.137901619E-1,1.138148626E-1
1.123980825E1,-4.658962134E-4,-7.237307727E-5,1.130729020E-1,1.130738849E-1
1.124976425E1,1.450327691E-4,-2.316352911E-3,1.141312420E-1,1.141548375E-1
1.125972125E1,-4.230430350E-4,1.603914425E-3,1.146282330E-1,1.146402343E-1
1.126967725E1,2.643853193E-3,-2.234232612E-3,1.121184677E-1,1.121718884E-1
1.127963425E1,-1.326143742E-3,1.122434624E-3,1.105226725E-1,1.105363273E-1
1.128959025E1,1.289369538E-5,1.057719812E-3,1.085426211E-1,1.085477754E-1
1.129954725E1,-1.220826525E-4,8.059106767E-5,1.115197763E-1,1.115198722E-1
1.130950325E1,-3.526359797E-5,1.982087269E-3,1.175795346E-1,1.175962452E-1
1.131946025E1,3.800126724E-4,-5.932450294E-4,1.190917045E-1,1.190937884E-1
1.132941625E1,-5.845844280E-4,1.503098756E-4,1.181263030E-1,1.181278451E-1
1.133937325E1,8.284787182E-4,-7.694596425E-4,1.163228974E-1,1.163283925E-1
1.134932925E1,-1.983286813E-3,1.065458171E-3,1.117957905E-1,1.118184573E-1
1.135928625E1,3.133162390E-4,2.291749232E-3,1.080654040E-1,1.080901560E-1
1.136924325E1,-8.696597070E-4,-1.249190420E-3,1.082235947E-1,1.082342979E-1
1.137919925E1,-1.344967168E-4,3.946134821E-4,1.096478924E-1,1.096486850E-1
1.138915625E1,4.463389050E-4,-1.252551563E-3,1.128396913E-1,1.128475257E-1
1.139911225E1,-7.932656445E-4,2.681617159E-3,1.166970804E-1,1.167305826E-1
1.140906925E1,2.550865756E-3,3.723902628E-4,1.170470193E-1,1.170754044E-1
1.141902525E1,9.269497823E-4,2.414342016E-4,1.145411134E-1,1.145451185E-1
1.142898225E1,1.024421537E-3,2.917684615E-4,1.128303111E-1,1.128353387E-1
1.143893825E1,-3.926595673E-5,1.244514249E-3,1.119378880E-1,1.119448128E-1
1.144889525E1,8.520942647E-4,-1.206926070E-3,1.127671972E-1,1.127768748E-1
1.145885125E1,-1.293537207E-3,1.341686584E-3,1.085639670E-1,1.085799627E-1
1.146880825E1,-2.051033080E-4,-1.251965761E-3,1.103296429E-1,1.103369366E-1
1.147876425E1,6.309845485E-4,-2.160724252E-4,1.165632904E-1,1.165651984E-1
1.148872125E1,1.551373047E-3,-3.014522605E-3,1.170466542E-1,1.170957445E-1
1.149867825E1,1.607008628E-3,1.345658675E-3,1.123081222E-1,1.123276795E-1
1.150863425E1,-2.201860771E-4,-1.028017141E-3,1.119467318E-1,1.119516684E-1
1.151859125E1,3.425362520E-4,4.919739440E-4,1.102372780E-1,1.102389080E-1
1.152854725E1,-1.777606085E-3,5.273940042E-4,1.084167436E-1,1.084325980E-1
1.153850425E1,-2.377201803E-3,-8.394373581E-4,1.135874987E-1,1.136154725E-1
1.154846025E1,-1.122852787E-3,2.495292574E-4,1.118545756E-1,1.118604896E-1
1.155841725E1,8.819180075E-4,1.355210319E-3,1.128698289E-1,1.128814097E-1
1.156837325E1,5.181063898E-5,-9.889034554E-4,1.108498275E-1,1.108542506E-1
1.157833025E1,-1.565433107E-3,-2.524163574E-5,1.112519726E-1,1.112629886E-1
1.158828625E1,1.065503573E-3,-9.818486869E-4,1.106580868E-1,1.106675721E-1
1.159824325E1,-4.802830517E-4,1.974415034E-3,1.113265455E-1,1.113450884E-1
1.160819925E1,-1.085086958E-3,2.004839480E-4,1.131465510E-1,1.131519315E-1
1.161815625E1,-8.719139732E-4,1.492993906E-3,1.143451557E-1,1.143582261E-1
1.162811325E1,1.855162787E-3,-1.659390517E-3,1.179651916E-1,1.179914473E-1
1.163806925E1,9.518677834E-4,4.960875958E-5,1.154958233E-1,1.154997564E-1
1.164802625E1,-7.557510398E-4,2.473351546E-3,1.152769104E-1,1.153059178E-1
1.165798225E1,-2.436305396E-3,1.646014862E-3,1.150574088E-1,1.150949707E-1
1.166793925E1,2.605857328E-3,-1.311125234E-4,1.143964082E-1,1.144261591E-1
1.167789525E1,-7.670249324E-4,1.018894836E-3,1.128665805E-1,1.128737856E-1
1.168785225E1,-1.412841491E-3,7.240753621E-5,1.164149791E-1,1.164235746E-1
1.169780825E1,1.135163242E-3,-8.209021762E-4,1.143390685E-1,1.143476500E-1
1.170776525E1,4.201044794E-4,3.876397386E-4,1.135632917E-1,1.135647304E-1
1.171772125E1,-1.037803013E-3,5.443310365E-4,1.127620712E-1,1.127681605E-1
1.172767825E1,5.656862631E-4,5.777180195E-5,1.137088239E-1,1.137102457E-1
1.173763425E1,5.894261412E-4,1.506591216E-4,1.114790067E-1,1.114806667E-1
1.174759125E1,2.082926687E-3,-9.260568768E-4,1.090467423E-1,1.090705651E-1
1.175754825E1,8.298922330E-4,8.828192949E-5,1.105801240E-1,1.105832733E-1
1.176750425E1,2.801441588E-5,-1.435845159E-3,1.119202226E-1,1.119294361E-1
1.177746125E1,2.642245730E-3,1.228554174E-4,1.119065434E-1,1.119377997E-1
1.178741725E1,2.561285626E-3,1.496513374E-3,1.151334941E-1,1.151717032E-1
1.179737425E1,3.514027456E-3,-8.373698220E-4,1.132011265E-1,1.132587507E-1
1.180733025E1,9.099885356E-4,-1.230452210E-3,1.102463454E-1,1.102569670E-1
1.181728725E1,-1.908585429E-3,1.612148248E-3,1.099810451E-1,1.100094178E-1
1.182724325E1,-1.232408918E-3,3.820341080E-4,1.105355173E-1,1.105430476E-1
1.183720025E1,-4.472606815E-4,6.495350972E-4,1.108630821E-1,1.108658871E-1
1.184715625E1,7.338512223E-4,5.017295480E-4,1.088856831E-1,1.088893120E-1
1.185711325E1,-7.588786539E-4,1.431138255E-3,1.105114743E-1,1.105233460E-1
1.186706925E1,1.329039573E-3,-6.594434381E-4,1.107559502E-1,1.107658870E-1
1.187702625E1,-2.176484559E-4,1.276340336E-4,1.134693921E-1,1.134696726E-1
1.188698325E1,-4.679856356E-4,-1.566935331E-3,1.158342808E-1,1.158458239E-1
1.189693925E1,2.632841934E-4,-1.115175895E-3,1.156900227E-1,1.156956969E-1
1.190689625E1,-2.311459742E-3,2.456987277E-4,1.150263697E-1,1.150498541E-1
1.191685225E1,-4.837303422E-4,3.707092255E-4,1.124818251E-1,1.124834761E-1
1.192680925E1,-1.835817005E-3,-7.544765249E-4,1.112794131E-1,1.112971124E-1
1.193676525E1,-1.407259144E-3,-3.233026713E-3,1.107027680E-1,1.107589079E-1
1.194672225E1,-1.111381687E-3,-2.502864227E-4,1.119334176E-1,1.119392147E-1
1.195667825E1,-4.531163722E-5,-8.602887392E-4,1.139912680E-1,1.139945232E-1
1.196663525E1,-2.700823825E-4,-2.073358744E-3,1.114620641E-1,1.114816733E-1
1.197659125E1,-1.169396564E-3,1.840590499E-3,1.114303172E-1,1.114516525E-1
1.198654825E1,3.296970390E-4,-5.392106250E-4,1.107895672E-1,1.107913700E-1
1.199650425E1,2.637610305E-4,-4.540672526E-4,1.148924455E-1,1.148936455E-1
1.200646125E1,1.292806468E-3,1.560080796E-3,1.141622066E-1,1.141801849E-1
1.201641825E1,5.507634487E-4,7.328512147E-4,1.167215183E-1,1.167251184E-1
1.202637425E1,1.574216294E-3,-3.124391660E-4,1.143449172E-1,1.143561799E-1
1.203633125E1,2.554122824E-3,-5.967915058E-6,1.129185855E-1,1.129474681E-1
1.204628725E1,-2.343696542E-3,-3.511132672E-4,1.113899350E-1,1.114151418E-1
1.205624425E1,-9.673908353E-4,3.400864080E-4,1.134783551E-1,1.134829881E-1
1.206620025E1,-4.185135476E-4,1.510811970E-3,1.126327962E-1,1.126437059E-1
1.207615725E1,7.258448750E-5,1.857585274E-3,1.119311750E-1,1.119466115E-1
1.208611325E1,1.333046239E-4,-3.653559834E-4,1.129687428E-1,1.129694123E-1
1.209607025E1,1.428003889E-4,5.062175915E-4,1.121957153E-1,1.121969482E-1
1.210602625E1,1.699647401E-4,8.732015267E-4,1.125712097E-1,1.125747246E-1
1.211598325E1,4.176071379E-4,1.849215478E-3,1.133441553E-1,1.133600085E-1
1.212593925E1,-5.525823217E-4,-3.340752795E-3,1.129729152E-1,1.130236504E-1
1.213589625E1,2.588699572E-4,3.620488569E-4,1.118162349E-1,1.118171207E-1
1.214585325E1,-1.222284045E-4,5.998695269E-4,1.113046408E-1,1.113063243E-1
1.215580925E1,-5.126874894E-4,1.164574176E-3,1.118695214E-1,1.118767577E-1
1.216576625E1,2.051137853E-3,-2.294871956E-3,1.107888147E-1,1.108315617E-1
1.217572225E1,-2.444714773E-4,1.676726155E-3,1.143991128E-1,1.144116610E-1
1.218567925E1,-5.057274830E-4,5.909549072E-4,1.143293381E-1,1.143319839E-1
1.219563525E1,2.513616346E-4,1.134897582E-3,1.141745225E-1,1.141804395E-1
1.220559212E1,1.430609380E-3,-4.904288799E-4,1.135220528E-1,1.135321260E-1
1.221554812E1,1.801887993E-4,1.203846186E-4,1.144699380E-1,1.144701431E-1
1.222550512E1,-1.739684027E-3,-4.268949851E-4,1.123489961E-1,1.123632754E-1
1.223546112E1,2.105598105E-3,5.399100482E-4,1.101787612E-1,1.102002017E-1
1.224541812E1,-3.599958029E-3,1.001968980E-3,1.084482372E-1,1.085125974E-1
1.225537512E1,1.575373928E-3,9.151333943E-4,1.117962971E-1,1.118111413E-1
1.226533112E1,1.630234998E-3,1.497833058E-3,1.113230586E-1,1.113450697E-1
1.227528812E1,3.981206100E-4,-1.069975086E-3,1.146409288E-1,1.146466131E-1
1.228524412E1,1.282822574E-3,1.678407192E-3,1.131516844E-1,1.131714026E-1
1.229520112E1,2.616530983E-3,3.549270332E-6,1.144679785E-1,1.144978792E-1
1.230515712E1,1.913989079E-3,-1.298747957E-4,1.145334914E-1,1.145495564E-1
1.231511412E1,3.697498236E-3,9.513264522E-4,1.166147888E-1,1.166772706E-1
1.232507012E1,-3.052328248E-4,-1.269867644E-4,1.128813028E-1,1.128817869E-1
1.233502712E1,1.766265370E-3,5.385000259E-4,1.134539098E-1,1.134689355E-1
1.234498312E1,-2.085730899E-3,1.314545050E-3,1.131737456E-1,1.132005962E-1
1.235494012E1,-3.151964163E-3,1.395768486E-3,1.106373817E-1,1.106910713E-1
1.236489613E1,2.234012587E-3,7.488867268E-4,1.084709018E-1,1.084964893E-1
1.237485312E1,6.683208048E-4,5.619227886E-5,1.126538068E-1,1.126558032E-1
1.238481013E1,-2.906834707E-4,-9.968215600E-4,1.139094904E-1,1.139142228E-1
1.239476612E1,2.509404672E-3,2.408726141E-4,1.152073443E-1,1.152349223E-1
1.240472313E1,-4.736019764E-4,7.633846253E-4,1.161186770E-1,1.161221520E-1
1.241467912E1,3.088955302E-3,-1.777587458E-4,1.159719750E-1,1.160132416E-1
1.242463612E1,3.885100596E-4,9.863087907E-4,1.136646122E-1,1.136695553E-1
1.243459212E1,8.931925986E-4,1.428658143E-4,1.096867770E-1,1.096905067E-1
1.244454912E1,-2.716740128E-4,-7.357103750E-4,1.074878052E-1,1.074906663E-1
1.245450512E1,6.913719699E-4,-2.009142190E-5,1.089613289E-1,1.089635241E-1
1.246446212E1,-7.166413125E-4,-1.811067574E-3,1.112974510E-1,1.113144920E-1
1.247441812E1,-1.998886000E-4,-1.138445921E-3,1.153024286E-1,1.153082220E-1
1.248437512E1,1.063749660E-4,8.775675669E-4,1.159802005E-1,1.159835693E-1
1.249433112E1,2.319084946E-3,-8.394429460E-4,1.181402728E-1,1.181660140E-1
1.250428812E1,8.458241355E-4,1.655939035E-3,1.128560305E-1,1.128713478E-1
1.251424512E1,-1.644804142E-3,-9.460952133E-4,1.114183664E-1,1.114345227E-1
1.252420112E1,-1.120694447E-3,-7.724566385E-4,1.078015268E-1,1.078101193E-1
1.253415812E1,9.969379753E-4,-3.007180989E-3,1.079956964E-1,1.080421559E-1
1.254411412E1,6.536417641E-5,-7.956754416E-5,1.107065305E-1,1.107065784E-1
1.255407112E1,-9.896070696E-4,2.207375132E-3,1.129099876E-1,1.129358983E-1
1.256402712E1,-1.653799787E-3,-4.145065323E-4,1.156226844E-1,1.156352542E-1
1.257398412E1,2.788038924E-3,1.836100593E-3,1.150295064E-1,1.150779378E-1
1.258394012E1,1.230355934E-3,-3.080107272E-4,1.167773381E-1,1.167842255E-1
1.259389712E1,9.869993664E-5,-1.256391406E-4,1.168989092E-1,1.168990184E-1
1.260385312E1,7.093627937E-4,9.478814900E-4,1.170056984E-1,1.170116880E-1
1.261381012E1,-1.016154420E-3,-9.638015181E-4,1.117286906E-1,1.117374681E-1
1.262376612E1,-3.459072206E-3,3.430116922E-4,1.134248599E-1,1.134781111E-1
1.263372312E1,3.619580530E-3,2.459282055E-3,1.133625060E-1,1.134469356E-1
1.264368012E1,-8.758353069E-4,-9.271930903E-4,1.111739203E-1,1.111812364E-1
1.265363613E1,-1.069923397E-3,2.352374606E-3,1.111630723E-1,1.111931070E-1
1.266359312E1,-2.730404027E-3,1.490043476E-3,1.134001315E-1,1.134427836E-1
1.267354913E1,2.647252753E-3,6.822431460E-4,1.126909554E-1,1.127241094E-1
1.268350612E1,2.523149364E-3,2.107034437E-3,1.149370596E-1,1.149840578E-1
1.269346213E1,1.828582375E-3,1.691978425E-3,1.151784733E-1,1.152054131E-1
1.270341912E1,-3.951571416E-4,8.464250714E-4,1.166778281E-1,1.166815674E-1
1.271337513E1,5.301656201E-4,-1.811691560E-3,1.133902371E-1,1.134059486E-1
1.272333212E1,1.530621666E-4,-4.385663196E-4,1.114701033E-1,1.114710711E-1
1.273328813E1,-3.208429553E-4,-8.267154917E-4,1.118783876E-1,1.118819021E-1
1.274324512E1,-1.269194530E-3,-1.365207136E-3,1.076466218E-1,1.076627597E-1
1.275320212E1,-2.069715410E-4,-1.152819023E-4,1.096142083E-1,1.096144644E-1
1.276315812E1,-2.876652870E-4,-1.588276587E-3,1.112733558E-1,1.112850623E-1
1.277311512E1,-2.049400937E-4,1.696744934E-3,1.145144403E-1,1.145271932E-1
1.278307112E1,6.741692778E-4,1.696879044E-4,1.153011322E-1,1.153032280E-1
1.279302812E1,2.046206500E-4,8.306140080E-4,1.179728061E-1,1.179759076E-1
1.280298412E1,1.196115394E-3,1.717979088E-3,1.116019934E-1,1.116216246E-1
1.281294112E1,1.289781649E-3,-4.874290898E-4,1.092284322E-1,1.092371343E-1
1.282289712E1,1.040509669E-3,-1.228853129E-3,1.082233563E-1,1.082353343E-1
1.283285412E1,-8.006186690E-4,-2.321939915E-3,1.112591326E-1,1.112862390E-1
1.284281012E1,-8.517513052E-4,1.931497827E-4,1.134221554E-1,1.134255179E-1
1.285276712E1,6.371405907E-4,1.039477065E-3,1.095862687E-1,1.095930506E-1
1.286272312E1,-2.419690136E-4,9.585171938E-4,1.142795607E-1,1.142838366E-1
1.287268012E1,-5.546403117E-4,-6.151637062E-4,1.151707396E-1,1.151737180E-1
1.288263712E1,7.210136391E-4,-1.204255037E-3,1.151419804E-1,1.151505351E-1
1.289259312E1,2.321996959E-3,-1.775519922E-3,1.154308170E-1,1.154678209E-1
1.290255012E1,-8.976180106E-5,-3.320872784E-4,1.158500016E-1,1.158505123E-1
1.291250612E1,-1.699663699E-6,-9.950948879E-4,1.133455560E-1,1.133499240E-1
1.292246312E1,2.493415959E-3,-1.478458755E-3,1.148068309E-1,1.148434211E-1
1.293241912E1,-2.116281539E-4,4.414413124E-4,1.150456220E-1,1.150466636E-1
1.294237613E1,-4.861999769E-4,-1.615584828E-3,1.144136563E-1,1.144260952E-1
1.295233212E1,-1.964491792E-3,-2.870988101E-5,1.115902439E-1,1.116075382E-1
1.296228913E1,-4.587403964E-4,-2.212768421E-3,1.146315783E-1,1.146538509E-1
1.297224512E1,2.348894719E-3,2.253074199E-4,1.108856052E-1,1.109107096E-1
1.298220213E1,-2.950916532E-4,2.399552613E-4,1.142979115E-1,1.142985443E-1
1.299215912E1,-5.245613866E-4,1.213625073E-4,1.158976331E-1,1.158988838E-1
1.300211513E1,-2.022323199E-3,-1.798243262E-3,1.130877361E-1,1.131201110E-1
1.301207212E1,-1.305930316E-3,-9.935814887E-5,1.139228344E-1,1.139303626E-1
1.302202813E1,1.333262189E-3,3.451239318E-4,1.129561067E-1,1.129645021E-1
1.303198512E1,-1.767185982E-3,9.474009275E-4,1.123239398E-1,1.123418353E-1
1.304194113E1,-8.888756856E-4,-6.038909778E-4,1.117244586E-1,1.117296265E-1
1.305189812E1,-1.134531572E-3,4.948945716E-4,1.128467843E-1,1.128535724E-1
1.306185413E1,1.507590641E-3,1.607296988E-3,1.121431813E-1,1.121648311E-1
1.307181112E1,2.014603000E-3,-3.245372325E-3,1.131548285E-1,1.132192841E-1
1.308176713E1,1.412195968E-3,-6.200280041E-4,1.154126599E-1,1.154229648E-1
1.309172412E1,-7.737537380E-4,1.109344885E-3,1.181075349E-1,1.181152791E-1
1.310168112E1,1.900592702E-3,-4.169121385E-4,1.169160381E-1,1.169322284E-1
1.311163712E1,2.304222435E-3,9.654704481E-4,1.132983714E-1,1.133259129E-1
1.312159412E1,-1.078790985E-3,1.274663024E-3,1.136472523E-1,1.136595201E-1
1.313155012E1,1.478672610E-3,-1.942319795E-4,1.090271622E-1,1.090373619E-1
1.314150712E1,6.192706060E-4,3.983210772E-4,1.107422262E-1,1.107446740E-1
1.315146312E1,6.641284563E-4,2.397429198E-4,1.121284068E-1,1.121306298E-1
1.316142012E1,-1.458943821E-3,1.291425899E-3,1.136733145E-1,1.136900115E-1
1.317137612E1,2.197911032E-3,-1.000469550E-3,1.135854647E-1,1.136111330E-1
1.318133312E1,9.930969682E-4,-2.130981535E-3,1.139479205E-1,1.139721716E-1
1.319128912E1,3.259191057E-3,6.614783779E-4,1.174861342E-1,1.175331936E-1
1.320124612E1,8.972336072E-4,1.782668754E-3,1.135896668E-1,1.136071976E-1
1.321120304E1,4.755365662E-4,1.299389638E-3,1.145386249E-1,1.145469822E-1
1.322115904E1,1.247586915E-3,-3.184806556E-4,1.099553257E-1,1.099628644E-1
1.323111604E1,3.919568844E-4,-8.902736008E-4,1.101508290E-1,1.101551240E-1
1.324107204E1,1.619141432E-3,-1.933434047E-3,1.119476631E-1,1.119760647E-1
1.325102904E1,2.117820550E-3,1.283641905E-5,1.086362675E-1,1.086569093E-1
1.326098504E1,-1.142687863E-3,1.925252378E-3,1.152843162E-1,1.153060532E-1
1.327094204E1,-3.342177952E-3,1.194659621E-3,1.152973622E-1,1.153519792E-1
1.328089804E1,-1.363715390E-3,5.467124283E-4,1.148331687E-1,1.148425672E-1
1.329085504E1,-4.520250950E-4,7.834099233E-4,1.107289940E-1,1.107326879E-1
1.330081104E1,2.728854539E-3,-7.803989574E-4,1.115122288E-1,1.115483431E-1
1.331076804E1,-2.954467200E-4,2.527811565E-3,1.114294156E-1,1.114584756E-1
1.332072404E1,1.077679219E-3,3.570690751E-4,1.118390039E-1,1.118447660E-1
1.333068104E1,1.168884686E-3,4.588235170E-4,1.117831469E-1,1.117901996E-1
1.334063804E1,-7.062470540E-4,2.672443166E-3,1.125477403E-1,1.125816797E-1
1.335059404E1,8.309017867E-4,9.273048490E-4,1.136395708E-1,1.136463917E-1
1.336055104E1,-2.138789278E-3,1.773582771E-4,1.149346679E-1,1.149547031E-1
1.337050704E1,1.967937220E-3,-4.481477663E-4,1.164501756E-1,1.164676651E-1
1.338046404E1,-3.082666080E-4,5.353577435E-4,1.136786193E-1,1.136802978E-1
1.339042004E1,1.307620434E-3,1.813936979E-5,1.131048054E-1,1.131123653E-1
1.340037704E1,-5.757671315E-4,6.650211290E-4,1.125146523E-1,1.125180907E-1
1.341033304E1,1.200362458E-3,7.395455614E-4,1.117918417E-1,1.118007320E-1
1.342029004E1,-2.637519035E-3,3.541857004E-4,1.136416718E-1,1.136728267E-1
1.343024604E1,-6.670600269E-4,3.363098949E-5,1.169639230E-1,1.169658300E-1
1.344020304E1,9.995461442E-4,8.826460689E-4,1.164579168E-1,1.164655509E-1
1.345016004E1,-3.727152944E-4,-1.927418634E-4,1.154135019E-1,1.154142646E-1
1.346011604E1,-4.118636716E-4,-7.823659107E-4,1.149860620E-1,1.149894612E-1
1.347007304E1,-1.454143552E-3,-1.056285575E-3,1.149362922E-1,1.149503438E-1
1.348002904E1,1.083316281E-3,1.858128235E-4,1.136483923E-1,1.136537072E-1
1.348998604E1,-7.344558835E-4,3.880551085E-4,1.101324335E-1,1.101355661E-1
1.349994204E1,1.598338131E-4,3.257375211E-4,1.112030223E-1,1.112036142E-1
1.350989904E1,2.203253098E-4,-8.625257760E-5,1.105811596E-1,1.105814127E-1
1.351985504E1,3.377706744E-4,8.013788611E-4,1.074735150E-1,1.074770334E-1
1.352981204E1,4.522406962E-4,2.766015474E-3,1.117898151E-1,1.118249441E-1
1.353976804E1,-3.238900565E-3,3.798231483E-4,1.132795885E-1,1.133265190E-1
1.354972504E1,-1.187651418E-3,-7.910421118E-4,1.135523170E-1,1.135612829E-1
1.355968204E1,6.243633106E-5,5.226954818E-4,1.144135818E-1,1.144147928E-1
1.356963804E1,1.408534124E-3,3.124158829E-4,1.144780070E-1,1.144870982E-1
1.357959504E1,1.365657314E-3,1.082335599E-3,1.127842367E-1,1.127976973E-1
1.358955104E1,2.931387862E-3,-2.469746396E-4,1.140012592E-1,1.140392087E-1
1.359950804E1,3.770549782E-3,1.793540083E-3,1.111870930E-1,1.112654640E-1
1.360946404E1,6.798421964E-6,-5.324818194E-4,1.115798876E-1,1.115811583E-1
1.361942104E1,-1.355408225E-3,1.571148634E-3,1.115995944E-1,1.116188833E-1
1.362937704E1,1.379060908E-3,7.381783798E-4,1.146207079E-1,1.146313805E-1
1.363933404E1,-3.600517754E-3,-1.161454245E-3,1.158028841E-1,1.158646653E-1
1.364929004E1,2.006725874E-3,-8.764863014E-4,1.121466309E-1,1.121680079E-1
1.365924704E1,1.383812516E-3,6.260694936E-4,1.141330823E-1,1.141431881E-1
1.366920404E1,-2.672480419E-3,3.746289760E-3,1.140878275E-1,1.141805992E-1
1.367916004E1,9.214715101E-5,8.493028581E-4,1.134438738E-1,1.134470904E-1
1.368911704E1,-1.422807109E-4,1.054843888E-4,1.141067296E-1,1.141068671E-1
1.369907304E1,-3.236418124E-4,-1.647940837E-3,1.114326492E-1,1.114453039E-1
1.370903004E1,1.951270504E-3,-2.023782581E-4,1.075560004E-1,1.075738891E-1
1.371898604E1,-8.911211044E-4,1.584868878E-3,1.096668243E-1,1.096818958E-1
1.372894304E1,3.700122703E-3,-9.219469503E-4,1.117559373E-1,1.118209749E-1
1.373889904E1,-7.667974569E-4,1.401128247E-3,1.099772155E-1,1.099888134E-1
1.374885604E1,6.927805953E-5,-9.696539491E-4,1.097006798E-1,1.097049870E-1
1.375881204E1,-2.903874964E-3,1.153684221E-3,1.135619953E-1,1.136049746E-1
1.376876904E1,-2.478817245E-3,2.844259143E-5,1.125612706E-1,1.125885651E-1
1.377872604E1,1.295680762E-3,-1.563594677E-3,1.124776453E-1,1.124959746E-1
1.378868204E1,-2.668379806E-3,1.845411956E-3,1.120885834E-1,1.121355266E-1
1.379863904E1,1.576698967E-3,-2.009617165E-4,1.130422577E-1,1.130534316E-1
1.380859504E1,1.198990154E-3,-1.847423613E-3,1.129859984E-1,1.130074616E-1
1.381855204E1,-4.881222267E-4,2.948397305E-3,1.134842783E-1,1.135236219E-1
1.382850804E1,2.539034002E-3,-9.150234982E-4,1.124104187E-1,1.124428130E-1
1.383846504E1,-1.242388505E-3,-1.946998760E-3,1.087440476E-1,1.087685718E-1
1.384842104E1,-2.161958255E-3,6.483951584E-4,1.094879732E-1,1.095112357E-1
1.385837804E1,1.182172913E-3,-1.074936241E-3,1.106808037E-1,1.106923363E-1
1.386833404E1,-8.078082465E-4,1.961998641E-3,1.142487675E-1,1.142684684E-1
1.387829104E1,-6.378984544E-4,-1.174938865E-3,1.144114882E-1,1.144192992E-1
1.388824804E1,-2.232667990E-3,-2.817447297E-3,1.129806191E-1,1.130377950E-1
1.389820404E1,-6.400977727E-4,1.226828434E-3,1.166589782E-1,1.166671848E-1
1.390816104E1,-1.111950260E-3,-4.468439147E-4,1.139453053E-1,1.139516069E-1
1.391811704E1,2.336576814E-3,3.680838272E-4,1.114025190E-1,1.114276282E-1
1.392807404E1,-2.336129546E-4,-7.804129273E-4,1.124480814E-1,1.124510321E-1
1.393803004E1,-1.280235592E-3,-3.564376384E-4,1.125833690E-1,1.125912120E-1
1.394798704E1,-6.459155120E-4,-3.030998632E-4,1.111858413E-1,1.111881305E-1
1.395794304E1,-5.465797149E-4,-8.205696940E-5,1.118806601E-1,1.118820253E-1
1.396790004E1,1.024945872E-3,1.812450588E-3,1.119645387E-1,1.119838980E-1
1.397785604E1,9.144246578E-4,2.126898617E-4,1.129400581E-1,1.129439602E-1
1.398781304E1,1.862953650E-3,6.513241678E-4,1.144828275E-1,1.144998367E-1
1.399777004E1,7.686608005E-4,1.837495714E-3,1.146988049E-1,1.147160977E-1
1.400772604E1,8.315080777E-6,8.896626532E-4,1.169000342E-1,1.169034199E-1
1.401768304E1,1.611537882E-3,-1.202517189E-3,1.142904013E-1,1.143080878E-1
1.402763904E1,-3.063662909E-3,1.751708798E-3,1.163190082E-1,1.163725319E-1
1.403759604E1,-1.959516667E-3,-7.961373776E-4,1.138529181E-1,1.138725626E-1
1.404755204E1,6.084819324E-5,-1.480802894E-4,1.139131188E-1,1.139132313E-1
1.405750904E1,-3.560518147E-3,1.740100794E-3,1.140217781E-1,1.140906268E-1
1.406746504E1,-3.334134817E-7,1.704650931E-3,1.132561117E-1,1.132689396E-1
1.407742204E1,-2.869889373E-3,3.119056113E-3,1.100302264E-1,1.101118318E-1
1.408737804E1,-2.184665529E-3,-6.294259802E-4,1.115727127E-1,1.115958743E-1
1.409733504E1,-3.020770382E-4,4.752529785E-4,1.108179688E-1,1.108193996E-1
1.410729204E1,2.856928157E-3,1.190389507E-3,1.109353974E-1,1.109785631E-1
1.411724804E1,-8.129079361E-4,-1.508990303E-3,1.136313155E-1,1.136442420E-1
1.412720504E1,1.413678168E-3,-1.413282007E-4,1.104653850E-1,1.104745208E-1
1.413716104E1,1.718462445E-4,-2.436973155E-3,1.147498786E-1,1.147758817E-1
1.414711804E1,2.037223894E-4,-4.199119285E-4,1.142657101E-1,1.142666633E-1
1.415707404E1,-4.415616859E-4,-3.290977329E-4,1.135165617E-1,1.135178975E-1
1.416703104E1,2.276296029E-3,-2.397905104E-3,1.138816476E-1,1.139296324E-1
1.417698704E1,6.501700263E-4,-7.853610441E-4,1.109670773E-1,1.109717611E-1
1.418694404E1,2.189353108E-3,-2.215690911E-3,1.106578484E-1,1.107016801E-1
1.419690004E1,1.432482735E-3,3.025941551E-4,1.096903235E-1,1.097000940E-1
1.420685704E1,1.270017470E-3,-1.593185589E-4,1.107215807E-1,1.107289788E-1
1.421681404E1,-1.672509359E-3,1.564012840E-3,1.136728972E-1,1.136959585E-1
1.422677004E1,2.612941898E-4,-1.193664968E-3,1.138587967E-1,1.138653533E-1
1.423672704E1,-1.749317162E-4,-3.670202568E-4,1.139307022E-1,1.139314277E-1
1.424668304E1,-8.327474352E-4,-2.513770014E-4,1.148717850E-1,1.148750785E-1
1.425664004E1,1.535069081E-3,-7.800143212E-4,1.141503379E-1,1.141633238E-1
1.426659604E1,-1.576170325E-3,-4.505449906E-4,1.170349866E-1,1.170464668E-1
1.427655304E1,-5.023835693E-4,-3.399996087E-3,1.123225242E-1,1.123750942E-1
1.428650904E1,-1.184511930E-4,1.290971413E-4,1.122569814E-1,1.122571182E-1
1.429646604E1,1.465333626E-4,-3.777025267E-4,1.129427478E-1,1.129434744E-1
1.430642304E1,5.554209929E-4,-1.910300925E-4,1.129336134E-1,1.129351407E-1
1.431637904E1,-2.563104499E-4,4.832819104E-4,1.128124371E-1,1.128137635E-1
1.432633604E1,1.770117553E-3,6.572874263E-4,1.123247743E-1,1.123406438E-1
1.433629204E1,1.116844127E-3,-2.465900034E-4,1.148097739E-1,1.148154707E-1
1.434624904E1,1.547353691E-3,7.953401655E-5,1.113099307E-1,1.113207137E-1
1.435620504E1,1.313794404E-3,1.033478417E-3,1.132463217E-1,1.132586575E-1
1.436616204E1,1.501764986E-3,-3.138734028E-4,1.136367470E-1,1.136471033E-1
1.437611804E1,-2.693512710E-3,-1.888600178E-3,1.135352775E-1,1.135829260E-1
1.438607504E1,2.009236719E-3,-5.466882139E-4,1.111932844E-1,1.112127798E-1
1.439603104E1,-2.898704261E-4,8.264379576E-4,1.127669513E-1,1.127703522E-1
1.440598804E1,-3.799125552E-4,7.892316207E-4,1.105934829E-1,1.105969514E-1
1.441594504E1,-5.980255082E-4,-9.807050228E-4,1.110566109E-1,1.110625511E-1
1.442590104E1,7.169502787E-4,-3.110831603E-3,1.126465052E-1,1.126917319E-1
1.443585804E1,-8.892221376E-5,1.384904608E-4,1.109892204E-1,1.109893425E-1
1.444581404E1,2.240710892E-3,-6.217211485E-4,1.111371741E-1,1.111614987E-1
1.445577104E1,1.157070743E-3,-1.319735311E-3,1.106274500E-1,1.106413721E-1
1.446572704E1,3.627006430E-3,1.554650255E-3,1.157461554E-1,1.158134042E-1
1.447568404E1,1.602205099E-3,1.654518768E-3,1.120933592E-1,1.121170178E-1
1.448564004E1,4.999411758E-4,1.542367972E-3,1.146409661E-1,1.146524310E-1
1.449559704E1,1.254947390E-3,1.348756254E-3,1.118196100E-1,1.118347854E-1
1.450555304E1,9.049833752E-4,-1.391009428E-3,1.134681478E-1,1.134802823E-1
1.451551004E1,-6.641510408E-4,5.744034424E-4,1.136356592E-1,1.136390517E-1
1.452546704E1,7.374503184E-4,1.234232448E-3,1.105914116E-1,1.106007571E-1
1.453542304E1,-5.784176756E-4,-1.374334097E-3,1.121951714E-1,1.122050794E-1
1.454538004E1,8.619448636E-4,1.989169978E-3,1.131839305E-1,1.132046902E-1
1.455533604E1,-3.513914999E-4,-9.368825704E-5,1.166103557E-1,1.166109227E-1
1.456529304E1,8.203319740E-4,-4.984475672E-4,1.142306030E-1,1.142346360E-1
1.457524904E1,-5.158688873E-5,2.414251678E-3,1.139784008E-1,1.140039786E-1
1.458520604E1,-3.515074495E-4,1.615299843E-3,1.140215620E-1,1.140335449E-1
1.459516204E1,4.181461409E-4,-3.799404949E-4,1.145853549E-1,1.145867478E-1
1.460511904E1,4.811580293E-4,5.728993565E-4,1.134336069E-1,1.134360741E-1
1.461507504E1,-2.253642306E-3,2.377456985E-3,1.166949123E-1,1.167408830E-1
1.462503204E1,2.093827352E-4,-7.268115878E-4,1.159862205E-1,1.159886867E-1
1.463498904E1,-1.097430475E-3,5.110260099E-4,1.156096533E-1,1.156159913E-1
1.464494504E1,-2.012045588E-3,1.379243098E-3,1.146665141E-1,1.146924588E-1
1.465490204E1,-2.551335841E-3,-2.820295282E-3,1.133144274E-1,1.133782291E-1
1.466485804E1,-1.703179441E-5,-2.794967033E-3,1.099481210E-1,1.099836417E-1
1.467481504E1,4.221235868E-4,-1.265780069E-3,1.106706336E-1,1.106786770E-1
1.468477104E1,2.175374422E-3,1.694004051E-3,1.103552580E-1,1.103896955E-1
1.469472804E1,-2.028285526E-4,-1.122821122E-3,1.112998798E-1,1.113057282E-1
1.470468504E1,-5.503650755E-5,-9.179534391E-4,1.115857735E-1,1.115895628E-1
1.471464104E1,-5.551781505E-4,1.900736243E-3,1.133610308E-1,1.133783239E-1
1.472459804E1,2.709422493E-3,-4.403386265E-5,1.120935977E-1,1.121263463E-1
1.473455404E1,1.602447592E-4,-1.069351099E-3,1.120067760E-1,1.120119952E-1
1.474451104E1,-6.606210954E-4,7.300684229E-4,1.143097356E-1,1.143139758E-1
1.475446704E1,-1.653979998E-3,-1.030014828E-3,1.140474156E-1,1.140640591E-1
1.476442404E1,1.024515601E-3,-4.671933129E-4,1.137195677E-1,1.137251422E-1
1.477438004E1,-6.335685030E-4,-2.384278923E-4,1.137912124E-1,1.137932260E-1
1.478433704E1,1.145879156E-3,-1.153098419E-4,1.120374873E-1,1.120434063E-1
1.479429304E1,-5.673323758E-4,-3.372888081E-3,1.100939140E-1,1.101470296E-1
1.480425004E1,4.848220851E-4,9.490996599E-4,1.098391786E-1,1.098443490E-1
1.481420704E1,7.363012992E-5,-2.170260996E-3,1.104985774E-1,1.105199125E-1
1.482416304E1,1.343932585E-3,-3.031110391E-4,1.087405905E-1,1.087493175E-1
1.483412004E1,-4.089600407E-4,-9.704995900E-4,1.086319312E-1,1.086370361E-1
1.484407604E1,-3.108964302E-4,1.295303926E-3,1.118201688E-1,1.118281030E-1
1.485403304E1,-2.855280414E-3,-1.308202744E-3,1.102539599E-1,1.102986840E-1
1.486398904E1,-7.519591600E-4,-3.100270405E-4,1.100669056E-1,1.100699108E-1
1.487394604E1,6.403331645E-5,2.761343494E-4,1.118719950E-1,1.118723541E-1
1.488390204E1,3.404642921E-4,-2.020965330E-3,1.108557135E-1,1.108746564E-1
1.489385904E1,-2.435881179E-3,2.727191895E-5,1.138933152E-1,1.139193641E-1
1.490381604E1,1.519853948E-3,1.182531938E-3,1.123738736E-1,1.123903724E-1
1.491377204E1,6.476687267E-4,6.333878264E-4,1.165422574E-1,1.165457782E-1
1.492372904E1,-2.185113262E-3,-2.365736291E-4,1.156448051E-1,1.156656891E-1
1.493368504E1,8.070399053E-5,1.327234320E-3,1.177537665E-1,1.177612737E-1
1.494364204E1,1.832703128E-5,2.221567556E-4,1.127958521E-1,1.127960724E-1
1.495359804E1,4.449654371E-4,-1.696384512E-3,1.152976304E-1,1.153109678E-1
1.496355504E1,1.565341838E-3,-1.779235899E-3,1.126450300E-1,1.126699550E-1
1.497351104E1,-8.386936970E-4,-2.216527238E-3,1.091807932E-1,1.092065108E-1
1.498346804E1,1.321428223E-3,1.734768972E-3,1.111820862E-1,1.112034706E-1
1.499342404E1,3.432491794E-4,-1.113481820E-3,1.075684428E-1,1.075747533E-1
1.500338104E1,2.672995906E-4,-1.175277866E-3,1.103379130E-1,1.103444959E-1
1.501333804E1,-1.521812053E-3,-3.566220403E-4,1.087211072E-1,1.087323423E-1
1.502329404E1,-1.003141515E-4,6.030127406E-5,1.100559607E-1,1.100560230E-1
1.503325104E1,5.218002480E-4,7.426030934E-4,1.105393246E-1,1.105430505E-1
1.504320704E1,-7.558008656E-4,5.890522152E-4,1.079759970E-1,1.079802489E-1
1.505316404E1,-1.259404700E-3,1.316095702E-3,1.066401526E-1,1.066557095E-1
1.506312004E1,-1.958212350E-3,1.203371212E-3,1.097763255E-1,1.098003841E-1
1.507307704E1,-9.414176457E-4,-1.293874346E-3,1.065134183E-1,1.065254366E-1
1.508303304E1,-7.897922769E-4,-2.961587161E-4,1.073355079E-1,1.073388221E-1
1.509299004E1,5.404567346E-4,-6.165374070E-4,1.064705104E-1,1.064736671E-1
1.510294704E1,-1.623379067E-4,-1.721642911E-4,1.086269245E-1,1.086271822E-1
1.511290304E1,1.907972619E-4,-1.024642028E-3,1.095702201E-1,1.095751771E-1
1.512286004E1,-8.947241586E-4,2.031838521E-3,1.109658927E-1,1.109880995E-1
1.513281604E1,-1.430551754E-3,-1.479592174E-4,1.099285930E-1,1.099380004E-1
1.514277304E1,2.072062809E-3,1.991424710E-3,1.090831757E-1,1.091210265E-1
1.515272904E1,1.992966980E-3,-2.007578500E-3,1.096954495E-1,1.097319184E-1
1.516268604E1,2.848280594E-3,8.791498840E-5,1.131694168E-1,1.132052884E-1
1.517264204E1,1.005639555E-3,-5.397917703E-4,1.100689694E-1,1.100748869E-1
1.518259904E1,-6.102481857E-4,5.702814087E-4,1.116626039E-1,1.116657277E-1
1.519255504E1,2.416966949E-3,-1.048654318E-3,1.125752702E-1,1.126060961E-1
1.520251204E1,-8.226060309E-4,-1.182598993E-3,1.147681773E-1,1.147772178E-1
1.521246887E1,-4.684056621E-4,4.802793264E-4,1.133617610E-1,1.133637461E-1
1.522242487E1,1.334997360E-4,6.018225104E-4,1.132618785E-1,1.132635561E-1
1.523238187E1,-2.504094969E-3,4.787845537E-4,1.151420698E-1,1.151702911E-1
1.524233787E1,6.469432265E-4,6.040381268E-4,1.117499322E-1,1.117534373E-1
1.525229487E1,-2.056165133E-3,-5.243439227E-4,1.117272973E-1,1.117474461E-1
1.526225087E1,1.028836938E-3,1.449218020E-3,1.129123420E-1,1.129263287E-1
1.527220787E1,6.466733757E-4,-4.469519481E-4,1.080704480E-1,1.080733070E-1
1.528216387E1,7.788669318E-4,3.314334899E-4,1.121230647E-1,1.121262597E-1
1.529212087E1,-2.257669345E-3,-3.468630835E-3,1.136735603E-1,1.137488760E-1
1.530207787E1,-1.300063450E-3,2.211811021E-3,1.126386523E-1,1.126678671E-1
1.531203387E1,1.523686340E-3,2.168370411E-4,1.114852354E-1,1.114958580E-1
1.532199087E1,1.043277560E-3,4.625292495E-4,1.140319109E-1,1.140376213E-1
1.533194687E1,1.216915553E-3,-3.571920097E-4,1.111887246E-1,1.111959575E-1
1.534190387E1,1.558073680E-3,1.192577183E-4,1.136382297E-1,1.136489730E-1
1.535185987E1,2.486451529E-3,-9.095212445E-4,1.114275381E-1,1.114589876E-1
1.536181687E1,-3.759264946E-4,7.396955043E-4,1.115408689E-1,1.115439550E-1
1.537177287E1,7.471283898E-4,6.491476670E-4,1.114191636E-1,1.114235595E-1
1.538172988E1,-7.144152187E-5,-2.902643755E-4,1.145827621E-1,1.145831520E-1
1.539168687E1,2.854219638E-4,3.417031839E-4,1.133449227E-1,1.133457971E-1
1.540164288E1,4.657842219E-4,7.685460150E-4,1.121657416E-1,1.121693417E-1
1.541159987E1,1.740639447E-3,8.212765679E-4,1.104954109E-1,1.105121719E-1
1.542155588E1,1.627477119E-3,-1.112059690E-3,1.144451201E-1,1.144620936E-1
1.543151287E1,1.653043437E-3,-4.814229906E-4,1.108426601E-1,1.108560310E-1
1.544146888E1,1.475630794E-3,-8.451445028E-4,1.120190248E-1,1.120319315E-1
1.545142587E1,6.625675596E-4,-1.049675047E-3,1.103244573E-1,1.103314402E-1
1.546138188E1,1.966996584E-3,-3.291285597E-3,1.123832464E-1,1.124486359E-1
1.547133887E1,2.913483884E-3,-6.459681317E-4,1.110953391E-1,1.111354130E-1
1.548129587E1,6.535497960E-4,-1.386364922E-3,1.082784981E-1,1.082893452E-1
1.549125187E1,-5.888149608E-4,-1.911805943E-3,1.103584245E-1,1.103765535E-1
1.550120887E1,1.517303754E-4,-1.010257751E-3,1.107018068E-1,1.107065205E-1
1.551116487E1,2.296373947E-3,-1.436658204E-4,1.096035242E-1,1.096276721E-1
1.552112187E1,2.474498935E-3,-5.581472069E-4,1.116679460E-1,1.116967539E-1
1.553107787E1,-3.955899738E-4,2.618404105E-4,1.102034748E-1,1.102044958E-1
1.554103487E1,-1.634393353E-3,4.186984152E-4,1.097643375E-1,1.097773034E-1
1.555099087E1,5.033258349E-4,2.309456468E-4,1.081480682E-1,1.081494860E-1
1.556094787E1,4.180187825E-4,3.446415998E-3,1.093808413E-1,1.094359217E-1
1.557090487E1,-2.360534854E-4,-3.292180598E-3,1.085901484E-1,1.086402987E-1
1.558086087E1,1.166122733E-3,3.784568980E-4,1.073925570E-1,1.073995548E-1
1.559081787E1,7.815621793E-4,-1.702271402E-5,1.082381085E-1,1.082409315E-1
1.560077387E1,-1.811090624E-3,-8.072182536E-4,1.078669280E-1,1.078851510E-1
1.561073087E1,1.753610559E-4,-8.283834904E-5,1.064754128E-1,1.064755895E-1
1.562068687E1,3.787926398E-4,-1.925460994E-3,1.072719172E-1,1.072898648E-1
1.563064387E1,-4.329388030E-4,-4.202425480E-4,1.062756255E-1,1.062773382E-1
1.564059987E1,2.679402009E-3,-1.026038080E-4,1.047471836E-1,1.047814974E-1
1.565055687E1,1.730630174E-5,3.037946299E-4,1.084705442E-1,1.084709710E-1
1.566051387E1,2.082128078E-3,1.403558999E-3,1.057500690E-1,1.057798768E-1
1.567046987E1,2.629226074E-4,-6.870226935E-4,1.069815159E-1,1.069840449E-1
1.568042687E1,2.009274904E-4,1.209037378E-3,1.059073135E-1,1.059144051E-1
1.569038288E1,2.213212196E-3,-1.358516514E-3,1.035336405E-1,1.035662039E-1
1.570033987E1,2.251342870E-3,-5.513392389E-4,1.077245921E-1,1.077495256E-1
1.571029588E1,5.527788308E-4,-1.472260803E-3,1.079989001E-1,1.080103492E-1
1.572025287E1,4.315260798E-3,-1.086919568E-3,1.057432070E-1,1.058368022E-1
1.573020888E1,-2.300031483E-3,9.389473125E-4,1.031112075E-1,1.031411309E-1
1.574016587E1,8.720250335E-4,-1.730009913E-3,1.060700640E-1,1.060877554E-1
1.575012288E1,-1.599499956E-4,-8.746031672E-4,1.060508862E-1,1.060546132E-1
1.576007887E1,3.683099989E-3,4.907753319E-4,1.044473052E-1,1.045133755E-1
1.577003587E1,6.013573147E-5,-1.218974590E-3,1.038869768E-1,1.038941455E-1
1.577999187E1,2.679438796E-3,-1.144589856E-3,1.009380296E-1,1.009800738E-1
1.578994887E1,1.419763663E-3,4.834011197E-4,1.000847518E-1,1.000959887E-1
1.579990487E1,-4.596919753E-4,1.259708777E-3,9.536540508E-2,9.537483247E-2
1.580986187E1,1.568230800E-5,-1.225553453E-3,9.438189864E-2,9.438985654E-2
1.581981787E1,-2.782971133E-4,-1.299884170E-4,9.069657326E-2,9.069709338E-2
1.582977487E1,-2.503339201E-4,-1.204574481E-3,8.627972007E-2,8.628849148E-2
1.583973187E1,2.022147179E-3,-1.046017744E-3,8.584785461E-2,8.587803779E-2
1.584968787E1,1.072463812E-3,-3.421557136E-3,8.503718674E-2,8.511275087E-2
1.585964487E1,1.851707697E-3,-6.464701146E-4,8.024796098E-2,8.027192527E-2
1.586960087E1,1.314015477E-3,-8.608549833E-4,7.809107006E-2,7.810686865E-2
1.587955787E1,2.728283172E-3,1.767094247E-3,7.855077088E-2,7.861799894E-2
1.588951387E1,1.376196276E-3,4.277909175E-4,7.021746784E-2,7.023225549E-2
1.589947087E1,-1.127466792E-3,6.075128913E-4,6.921353936E-2,6.922538757E-2
1.590942687E1,6.081149913E-4,-8.500348777E-4,6.635117531E-2,6.635940648E-2
