"Time (s)","Gyroscope x (rad/s)","Gyroscope y (rad/s)","Gyroscope z (rad/s)","Absolute (rad/s)"
4.719291668E-3,4.070373252E-3,-6.649596617E-4,-2.823668420E-1,2.823969610E-1
1.467529167E-2,7.583334809E-4,-2.886944450E-3,-2.855018973E-1,2.855175002E-1
2.463129167E-2,2.345044864E-3,-4.048614763E-3,-2.871650457E-1,2.872031581E-1
3.458629167E-2,4.480352160E-3,-1.064911485E-3,-2.862787247E-1,2.863157624E-1
4.454229167E-2,1.762329950E-3,-2.871333621E-3,-2.876742184E-1,2.876939455E-1
5.449829167E-2,5.305930972E-3,-2.500325441E-3,-2.865091860E-1,2.865692206E-1
6.445429167E-2,4.066495690E-3,-3.564791754E-3,-2.870924175E-1,2.871433445E-1
7.441029167E-2,1.992088975E-3,-3.753143363E-3,-2.892899513E-1,2.893211545E-1
8.436629167E-2,3.149498720E-3,-3.613859415E-3,-2.888420224E-1,2.888817980E-1
9.432129167E-2,2.065618290E-3,-2.104543149E-3,-2.836999297E-1,2.837152551E-1
1.042772917E-1,2.468554769E-3,-1.792953350E-3,-2.825715542E-1,2.825880247E-1
1.142332917E-1,1.858019037E-3,-2.279882319E-3,-2.795855105E-1,2.796009796E-1
1.241892917E-1,3.094258718E-3,-8.654771373E-4,-2.846324742E-1,2.846506084E-1
1.341452917E-1,1.811004942E-3,-3.346743993E-3,-2.932869196E-1,2.933116050E-1
1.441002917E-1,7.642528974E-3,-4.483914003E-3,-2.980784774E-1,2.982101481E-1
1.540562917E-1,5.568420514E-3,-4.081211984E-3,-2.934592366E-1,2.935404353E-1
1.640122917E-1,3.303934820E-3,-1.079030335E-3,-2.855371237E-1,2.855582765E-1
1.739682917E-1,1.919832779E-3,-4.849287681E-3,-2.809493840E-1,2.809977895E-1
1.839251250E-1,3.313997760E-3,-8.502854034E-4,-2.807349861E-1,2.807558334E-1
1.938811250E-1,2.354357857E-3,-2.586668357E-3,-2.857844234E-1,2.858058265E-1
2.038361250E-1,4.063574597E-3,-3.296933137E-3,-2.891559899E-1,2.892033349E-1
2.137921250E-1,3.070233390E-3,-4.391234368E-3,-2.885459065E-1,2.885956504E-1
2.237481250E-1,2.358370461E-3,-2.570698038E-3,-2.842172086E-1,2.842386182E-1
2.337041250E-1,5.086560734E-3,-3.581372090E-3,-2.794328928E-1,2.795021304E-1
2.436601250E-1,1.611668384E-3,-4.323860630E-3,-2.758626640E-1,2.759012552E-1
2.536151250E-1,1.171330456E-3,-4.087816924E-3,-2.785734832E-1,2.786059364E-1
2.635711250E-1,1.470935997E-3,-3.785547800E-3,-2.880388796E-1,2.880675098E-1
2.735271250E-1,2.509252401E-3,-1.458751038E-3,-2.919204831E-1,2.919349119E-1
2.834831250E-1,2.907661255E-3,-4.163190722E-3,-2.940779030E-1,2.941217430E-1
2.934391250E-1,2.601509681E-3,-2.320235595E-3,-2.943577170E-1,2.943783568E-1
3.033951250E-1,1.708285534E-3,-2.316241153E-3,-2.910726964E-1,2.910869249E-1
3.133501250E-1,5.757851992E-3,2.253716812E-4,-2.862097919E-1,2.862677918E-1
3.233061250E-1,4.645183217E-3,-2.869754098E-3,-2.830763161E-1,2.831289705E-1
3.332621250E-1,6.114760414E-3,-1.562587917E-3,-2.822913826E-1,2.823619249E-1
3.432181250E-1,9.133403073E-4,-3.905637190E-3,-2.868152857E-1,2.868433306E-1
3.531741250E-1,4.586065188E-3,-3.366809338E-3,-2.902790904E-1,2.903348373E-1
3.631291250E-1,3.965016454E-3,-3.784126602E-3,-2.877850235E-1,2.878372121E-1
3.730851250E-1,4.557972308E-3,-2.814657055E-3,-2.878862023E-1,2.879360396E-1
3.830411250E-1,3.873273265E-3,-4.086583853E-3,-2.895368338E-1,2.895915754E-1
3.929971250E-1,1.192465308E-3,-2.272192389E-3,-2.872395217E-1,2.872509838E-1
4.029531250E-1,6.316036452E-4,-2.098288387E-3,-2.839651704E-1,2.839736251E-1
4.129091250E-1,2.996229101E-3,-2.529572695E-3,-2.857691944E-1,2.857960962E-1
4.228641250E-1,4.260964226E-3,-4.539193586E-3,-2.919173837E-1,2.919837649E-1
4.328201250E-1,4.341255408E-3,-4.740087315E-3,-2.958804369E-1,2.959502456E-1
4.427761250E-1,7.604426704E-3,-4.071101546E-3,-2.976892292E-1,2.978141675E-1
4.527321250E-1,5.623513833E-3,-1.967025921E-3,-2.940454185E-1,2.941057654E-1
4.626881250E-1,6.455752067E-3,-4.244560376E-3,-2.867880464E-1,2.868920992E-1
4.726431250E-1,1.168444520E-3,-3.984141164E-3,-2.750059962E-1,2.750373367E-1
4.825991250E-1,2.038475941E-4,-1.330033876E-3,-2.720200717E-1,2.720233997E-1
4.925551250E-1,1.159487641E-3,-1.404292881E-3,-2.711465955E-1,2.711527110E-1
5.025111250E-1,5.014205235E-4,-4.594037309E-4,-2.824476957E-1,2.824485144E-1
5.124671250E-1,6.718515884E-3,-2.097639255E-3,-2.944704294E-1,2.945545320E-1
5.224221250E-1,6.304128096E-3,-4.267720506E-4,-2.956598103E-1,2.957273197E-1
5.323781250E-1,2.972370246E-3,-2.246033400E-3,-2.917978764E-1,2.918216584E-1
5.423341250E-1,3.663727082E-3,-2.854032442E-3,-2.830235660E-1,2.830616670E-1
5.522901250E-1,4.149325192E-3,-2.344300039E-3,-2.759998143E-1,2.760409573E-1
5.622461250E-1,7.777630817E-4,-3.190386109E-3,-2.757702470E-1,2.757897979E-1
5.722021250E-1,-1.528824563E-3,-1.977491193E-3,-2.831573188E-1,2.831683510E-1
5.821571250E-1,4.132256843E-3,-9.697508067E-4,-2.933399081E-1,2.933706149E-1
5.921131250E-1,5.473578349E-3,-1.457490027E-3,-2.924671173E-1,2.925219634E-1
6.020691250E-1,1.360326074E-3,-1.988258213E-3,-2.876792848E-1,2.876893717E-1
6.120251250E-1,3.826661035E-3,-4.712934606E-3,-2.818527520E-1,2.819181244E-1
6.219811250E-1,1.069756807E-3,-1.830595545E-3,-2.804825604E-1,2.804905741E-1
6.319371250E-1,2.405791543E-3,-2.282176167E-3,-2.856693864E-1,2.856886320E-1
6.418921250E-1,3.539499128E-3,-3.476870246E-3,-2.862297297E-1,2.862727280E-1
6.518481250E-1,3.582576755E-3,-2.487537451E-3,-2.947142720E-1,2.947465434E-1
6.618041250E-1,2.928237896E-3,-2.726956271E-3,-2.940008342E-1,2.940280623E-1
6.717601250E-1,3.871100023E-3,-1.026343554E-3,-2.920170724E-1,2.920445332E-1
6.817161250E-1,1.838309341E-3,-1.536338590E-3,-2.852720618E-1,2.852821217E-1
6.916711250E-1,3.562445985E-3,-9.775077924E-4,-2.819477916E-1,2.819719910E-1
7.016271250E-1,2.462826669E-3,-2.459290437E-3,-2.829312980E-1,2.829527046E-1
7.115831250E-1,5.603224039E-3,-3.923017532E-3,-2.839998603E-1,2.840822184E-1
7.215391250E-1,3.349656938E-3,-2.477719449E-3,-2.858326435E-1,2.858630081E-1
7.314951250E-1,4.276932683E-3,-4.223735072E-3,-2.876400650E-1,2.877028659E-1
7.414501250E-1,1.343993470E-3,-4.072465934E-3,-2.872887850E-1,2.873207916E-1
7.514061250E-1,2.061473904E-3,-4.316495731E-3,-2.849915326E-1,2.850316745E-1
7.613621250E-1,2.300892025E-3,-1.569978893E-3,-2.803461850E-1,2.803600228E-1
7.713181250E-1,1.714461949E-3,-2.023367211E-3,-2.773867249E-1,2.773994026E-1
7.812741250E-1,6.220332580E-4,-3.229779191E-3,-2.802384198E-1,2.802577212E-1
7.912301250E-1,1.842945232E-3,-1.397536136E-3,-2.865108550E-1,2.865201905E-1
8.011851250E-1,4.758574069E-3,-3.352029249E-3,-2.965991795E-1,2.966562883E-1
8.111411250E-1,4.172417335E-3,-1.936715096E-3,-3.019409478E-1,3.019759856E-1
8.210971250E-1,3.789721290E-3,-2.999848686E-3,-2.964098155E-1,2.964492197E-1
8.310531250E-1,4.042656161E-3,-2.703379840E-3,-2.878799438E-1,2.879210194E-1
8.410091250E-1,2.940906677E-3,-1.550497487E-3,-2.787671387E-1,2.787869628E-1
8.509641250E-1,6.572282873E-4,-2.801084891E-3,-2.757113874E-1,2.757263991E-1
8.609201250E-1,8.681506151E-4,-1.601064578E-3,-2.765452266E-1,2.765512239E-1
8.708761250E-1,2.112028189E-3,-3.528150730E-3,-2.841132581E-1,2.841430132E-1
8.808321250E-1,2.363430569E-3,-4.124965519E-3,-2.884379625E-1,2.884771384E-1
8.907881250E-1,4.496708047E-3,-3.945209086E-3,-2.941473126E-1,2.942081348E-1
9.007441250E-1,4.585923627E-3,-1.394432969E-3,-2.914143801E-1,2.914537975E-1
9.106991250E-1,2.519165864E-3,-2.715425566E-3,-2.868837118E-1,2.869076225E-1
9.206551250E-1,3.404134419E-3,-2.367083915E-3,-2.822223604E-1,2.822528156E-1
9.306111250E-1,4.048201721E-3,-2.964964136E-3,-2.798668146E-1,2.799117948E-1
9.405671250E-1,3.572294489E-3,-4.421712831E-3,-2.837265134E-1,2.837834513E-1
9.505231250E-1,5.368457059E-4,-1.757682301E-3,-2.866791189E-1,2.866850098E-1
9.604781250E-1,3.182696179E-3,-3.355578519E-3,-2.881984413E-1,2.882355478E-1
9.704341250E-1,3.863322083E-3,-3.072832711E-3,-2.882244587E-1,2.882667274E-1
9.803901250E-1,3.913655411E-3,-1.436053775E-3,-2.799564004E-1,2.799874373E-1
9.903461250E-1,2.723953687E-3,-1.620659605E-3,-2.769907713E-1,2.770089057E-1
1.000302125E0,4.401745275E-3,-2.025726251E-3,-2.801021338E-1,2.801440420E-1
1.010258125E0,4.295858089E-3,-2.452351153E-3,-2.840203643E-1,2.840634361E-1
1.020213125E0,9.437372210E-4,-2.377250232E-3,-2.896350920E-1,2.896463852E-1
1.030169125E0,4.105971660E-3,-1.549821347E-3,-2.947954237E-1,2.948280903E-1
1.040125125E0,4.738206044E-3,-4.106455483E-3,-3.025521338E-1,3.026170967E-1
1.050081125E0,8.000496775E-3,-1.831931062E-3,-3.005270064E-1,3.006390618E-1
1.060037125E0,7.225516252E-3,-2.197583206E-3,-2.929766774E-1,2.930740025E-1
1.069992125E0,1.613605069E-3,-4.489272833E-4,-2.822934687E-1,2.822984374E-1
1.079948125E0,3.026678227E-3,-2.707820386E-3,-2.804433703E-1,2.804727742E-1
1.089904125E0,-1.240241108E-3,-3.268234432E-3,-2.792443335E-1,2.792662123E-1
1.099860125E0,3.477016231E-3,-5.268269219E-3,-2.863533795E-1,2.864229429E-1
1.109816125E0,5.493478850E-3,-3.364983015E-3,-2.924838960E-1,2.925548339E-1
1.119771125E0,4.654849879E-3,-2.172419801E-3,-2.952399850E-1,2.952846690E-1
1.129727125E0,4.213931039E-3,-1.751606353E-3,-2.870549560E-1,2.870912278E-1
1.139683125E0,-3.776249941E-4,-2.645629458E-3,-2.808780074E-1,2.808907208E-1
1.149639125E0,2.195209265E-3,-1.414667815E-3,-2.754710913E-1,2.754834702E-1
1.159595125E0,3.468466457E-3,-2.210953273E-3,-2.777973413E-1,2.778277910E-1
1.169551125E0,3.707658034E-3,-2.379368991E-3,-2.855051756E-1,2.855391627E-1
1.179506125E0,3.501795698E-3,-4.840662703E-3,-2.895707786E-1,2.896324057E-1
1.189462125E0,3.488648683E-3,-2.823097631E-3,-2.952821553E-1,2.953162572E-1
1.199418125E0,4.319288768E-3,-1.459825784E-3,-2.920868993E-1,2.921224813E-1
1.209374125E0,3.155613784E-3,-1.356733963E-3,-2.871943414E-1,2.872148819E-1
1.219330125E0,7.561057573E-4,-2.701629885E-3,-2.834643126E-1,2.834781949E-1
1.229285125E0,3.110365011E-3,-7.539130747E-4,-2.800195813E-1,2.800378701E-1
1.239241125E0,1.975059509E-3,-2.766197547E-3,-2.791883945E-1,2.792090836E-1
1.249197125E0,2.566234674E-3,-4.508302547E-3,-2.853353322E-1,2.853824839E-1
1.259153125E0,4.339899868E-3,-1.887485385E-3,-2.906771004E-1,2.907156240E-1
1.269109125E0,3.058061469E-3,-2.222212963E-3,-2.964355052E-1,2.964596072E-1
1.279064125E0,3.456319682E-4,-1.644307747E-3,-2.947199047E-1,2.947246943E-1
1.289020125E0,5.451845005E-3,-1.043966040E-3,-2.883057296E-1,2.883591618E-1
1.298976125E0,4.507488105E-3,-1.564613543E-3,-2.833357453E-1,2.833759165E-1
1.308932125E0,6.334889680E-3,-3.614047542E-3,-2.814099491E-1,2.815044433E-1
1.318888125E0,3.356943140E-3,-1.353023574E-3,-2.776935101E-1,2.777170957E-1
1.328844125E0,4.311430268E-3,-2.937695011E-3,-2.793433070E-1,2.793920215E-1
1.338799125E0,8.314773440E-4,-9.073009714E-4,-2.851724327E-1,2.851750881E-1
1.348755125E0,4.681222141E-3,-2.451795153E-3,-2.895570695E-1,2.896052860E-1
1.358711125E0,3.027665662E-3,-2.756726928E-3,-2.914481759E-1,2.914769383E-1
1.368667125E0,2.350200433E-3,-2.993215807E-3,-2.921702564E-1,2.921950402E-1
1.378623125E0,1.751255477E-3,-3.842230886E-3,-2.863261998E-1,2.863573333E-1
1.388578125E0,4.054079764E-3,-4.300940782E-4,-2.807489336E-1,2.807785324E-1
1.398534125E0,1.085720491E-3,-2.226395532E-3,-2.802224159E-1,2.802333635E-1
1.408490125E0,1.572326175E-3,-2.426830120E-3,-2.824233472E-1,2.824381504E-1
1.418446125E0,1.255143667E-3,-3.185564652E-3,-2.848564088E-1,2.848769855E-1
1.428402125E0,6.310957018E-3,-1.951556653E-3,-2.940474451E-1,2.941216359E-1
1.438358125E0,2.325802809E-3,-1.577381976E-3,-2.913118601E-1,2.913254148E-1
1.448313125E0,4.216928501E-3,-1.211614348E-3,-2.904477417E-1,2.904808792E-1
1.458269125E0,1.057886751E-3,-1.679797657E-3,-2.870937586E-1,2.871006218E-1
1.468225125E0,1.442700159E-5,-2.360202372E-3,-2.853843570E-1,2.853941169E-1
1.478181125E0,3.127928823E-3,-1.795345917E-3,-2.847843468E-1,2.848071828E-1
1.488137125E0,2.195969457E-3,-3.946255893E-3,-2.829918563E-1,2.830278890E-1
1.498092125E0,5.020251498E-3,-3.918027505E-3,-2.883780897E-1,2.884483948E-1
1.508048125E0,4.078282975E-3,-2.155217342E-3,-2.847105563E-1,2.847479205E-1
1.518004125E0,2.376789227E-3,-2.537114546E-3,-2.850967050E-1,2.851179006E-1
1.527960125E0,3.157339059E-3,-2.298851497E-3,-2.832879424E-1,2.833148634E-1
1.537916125E0,3.374120221E-3,-1.530263573E-3,-2.829750180E-1,2.829992707E-1
1.547871125E0,4.590223078E-3,-2.002003603E-3,-2.825120687E-1,2.825564495E-1
1.557827125E0,1.874065259E-3,-6.816079840E-4,-2.827285826E-1,2.827356153E-1
1.567783125E0,3.281664103E-3,-9.409980848E-4,-2.840099037E-1,2.840304212E-1
1.577739125E0,5.209526047E-3,-3.082445823E-3,-2.862909138E-1,2.863548986E-1
1.587695125E0,5.364080425E-3,-1.239560544E-3,-2.893750966E-1,2.894274631E-1
1.597651125E0,2.628215123E-3,-2.610555850E-3,-2.907644510E-1,2.907880474E-1
1.607606125E0,3.407846438E-3,-3.796540201E-3,-2.932932973E-1,2.933376644E-1
1.617562125E0,5.102149677E-3,-2.991201356E-3,-2.920892835E-1,2.921491549E-1
1.627518125E0,4.559633322E-3,-1.417164691E-3,-2.893139124E-1,2.893533109E-1
1.637474125E0,2.748684026E-3,-4.116012715E-3,-2.841444612E-1,2.841875642E-1
1.647430125E0,3.873691894E-3,8.737863973E-4,-2.900779843E-1,2.901051637E-1
1.657385125E0,4.185548052E-3,-1.989111304E-3,-2.908918560E-1,2.909287666E-1
1.667341125E0,2.619204344E-3,-2.093296498E-3,-2.971106172E-1,2.971295356E-1
1.677297125E0,-4.916341277E-4,-2.957225777E-3,-2.915193141E-1,2.915347275E-1
1.687253125E0,2.090372145E-3,-1.986475661E-3,-2.874832153E-1,2.874976780E-1
1.697209125E0,5.293089431E-3,-1.345719211E-3,-2.839635611E-1,2.840160766E-1
1.707164125E0,5.903344601E-3,-2.631660551E-3,-2.824532688E-1,2.825272096E-1
1.717120125E0,1.581034157E-3,-2.844180912E-3,-2.781826258E-1,2.782016576E-1
1.727076125E0,1.696562511E-3,-4.434083588E-3,-2.805856168E-1,2.806257789E-1
1.737032125E0,3.659046022E-3,-3.266287036E-3,-2.880576551E-1,2.880994098E-1
1.746988125E0,2.016531536E-3,-3.642255440E-3,-2.902973294E-1,2.903271808E-1
1.756944125E0,-4.381040344E-4,-2.220394090E-3,-2.927258909E-1,2.927346397E-1
1.766899125E0,5.307053216E-3,-4.683496431E-3,-2.921920717E-1,2.922777903E-1
1.776855125E0,3.447900526E-3,-1.266128384E-3,-2.888311744E-1,2.888545281E-1
1.786811125E0,-1.597816125E-3,-4.296784289E-3,-2.854785621E-1,2.855153670E-1
1.796767125E0,1.080524758E-3,-1.295402646E-3,-2.867502272E-1,2.867551890E-1
1.806723125E0,2.601226559E-3,-3.845893778E-3,-2.882899642E-1,2.883273500E-1
1.816678125E0,3.707237542E-3,-2.011507750E-3,-2.851548791E-1,2.851860706E-1
1.826634125E0,5.321451928E-3,-1.138163731E-3,-2.819342315E-1,2.819867447E-1
1.836590125E0,8.079265244E-4,-3.695748746E-4,-2.800929248E-1,2.800943339E-1
1.846546125E0,1.975304913E-3,-3.149466589E-3,-2.848163843E-1,2.848406462E-1
1.856502125E0,2.756143687E-3,-2.274618484E-3,-2.872616947E-1,2.872839213E-1
1.866457125E0,3.434638958E-3,-2.654732205E-3,-2.848754525E-1,2.849085253E-1
1.876413125E0,2.283087932E-3,-1.919433475E-3,-2.868554890E-1,2.868709959E-1
1.886369125E0,2.820617752E-3,-2.762267366E-3,-2.856965363E-1,2.857238122E-1
1.896325125E0,5.098951980E-3,-1.967047341E-3,-2.887581289E-1,2.888098433E-1
1.906281125E0,2.181980759E-3,-1.238034107E-3,-2.910412550E-1,2.910520673E-1
1.916236125E0,6.285112817E-3,-2.610627562E-3,-2.929494083E-1,2.930284523E-1
1.926192125E0,1.474251505E-3,-1.416844316E-3,-2.927546501E-1,2.927617906E-1
1.936148125E0,4.549403675E-3,-3.665351309E-3,-2.869119346E-1,2.869714099E-1
1.946104125E0,3.054233268E-3,-1.679320820E-3,-2.819958627E-1,2.820174020E-1
1.956060125E0,4.426560365E-3,-2.001296729E-3,-2.826856077E-1,2.827273464E-1
1.966016125E0,3.768033348E-3,-1.561182551E-3,-2.788764536E-1,2.789062777E-1
1.975971125E0,4.402132239E-3,-1.032012515E-3,-2.837862670E-1,2.838222845E-1
1.985927125E0,3.045721678E-3,-1.036774367E-3,-2.836550474E-1,2.836732932E-1
1.995883125E0,2.521877876E-3,-1.220799051E-3,-2.862069011E-1,2.862206150E-1
2.005839125E0,3.181413747E-3,-1.891240478E-3,-2.890814543E-1,2.891051459E-1
2.015795125E0,5.505553912E-3,-2.732533030E-3,-2.915209234E-1,2.915857106E-1
2.025750125E0,4.300538450E-3,-3.891760483E-3,-2.908416390E-1,2.908994662E-1
2.035706125E0,3.385742893E-3,-2.031010576E-3,-2.880581021E-1,2.880851584E-1
2.045662125E0,2.963935491E-3,-8.955961093E-4,-2.840354443E-1,2.840523202E-1
2.055618125E0,-3.831252689E-4,-1.677766442E-3,-2.797730565E-1,2.797783495E-1
2.065574125E0,2.703202190E-3,-6.173677742E-3,-2.846303880E-1,2.847101673E-1
2.075529125E0,1.582810422E-3,-2.764831297E-3,-2.842791378E-1,2.842969887E-1
2.085485125E0,2.396614989E-3,-2.644426189E-3,-2.899535298E-1,2.899754924E-1
2.095441125E0,3.332449822E-3,-3.155221231E-3,-2.875923812E-1,2.876289943E-1
2.105397125E0,1.934146276E-3,-1.894508488E-3,-2.863573134E-1,2.863701120E-1
2.115353125E0,3.950958140E-3,-4.447947256E-3,-2.829074562E-1,2.829700038E-1
2.125308125E0,2.948202658E-3,-2.588655800E-3,-2.831384242E-1,2.831656057E-1
2.135264125E0,2.434961498E-4,-3.747928888E-3,-2.890543938E-1,2.890787934E-1
2.145220125E0,4.876067396E-3,-2.653611824E-3,-2.951845825E-1,2.952367786E-1
2.155176125E0,3.999354783E-3,-1.618707553E-3,-2.949494421E-1,2.949809968E-1
2.165132125E0,3.016295377E-3,-1.954085194E-3,-2.859873772E-1,2.860099585E-1
2.175088125E0,2.154229907E-3,-2.895246260E-3,-2.807286978E-1,2.807518921E-1
2.185043125E0,3.378611524E-3,-3.409549594E-3,-2.804960310E-1,2.805370982E-1
2.194999125E0,1.849424443E-3,-7.024463266E-4,-2.804318368E-1,2.804388149E-1
2.204955125E0,1.230851514E-3,-9.204559028E-4,-2.824103832E-1,2.824145655E-1
2.214911125E0,2.859108150E-3,-9.782463312E-4,-2.863236368E-1,2.863395824E-1
2.224867125E0,5.752114579E-3,-3.582754172E-3,-2.899863124E-1,2.900654828E-1
2.234822125E0,9.272656171E-4,-4.756450653E-4,-2.898576856E-1,2.898595590E-1
2.244778125E0,4.338761326E-3,-8.895955980E-4,-2.901975513E-1,2.902313473E-1
2.254734125E0,1.824471052E-3,-4.085121676E-3,-2.900987566E-1,2.901332547E-1
2.264690125E0,-4.630885087E-6,-3.901215270E-3,-2.917032242E-1,2.917293103E-1
2.274646125E0,2.226565499E-3,-4.143388942E-4,-2.894054353E-1,2.894142969E-1
2.284601125E0,4.345065914E-3,-2.408641391E-3,-2.897997797E-1,2.898423596E-1
2.294557125E0,7.284931489E-4,-2.474687994E-3,-2.898160219E-1,2.898275027E-1
2.304513125E0,4.172752611E-3,-2.260277979E-3,-2.861101627E-1,2.861495168E-1
2.314469125E0,2.566333860E-3,-3.120479174E-3,-2.843855023E-1,2.844142004E-1
2.324425125E0,3.234549193E-3,-1.656174660E-3,-2.784219682E-1,2.784456816E-1
2.334380125E0,8.984241867E-4,-2.595737576E-3,-2.763518989E-1,2.763655497E-1
2.344336125E0,-8.715706645E-4,2.049505711E-4,-2.823774815E-1,2.823789009E-1
2.354292125E0,3.913863562E-3,-1.578568481E-3,-2.860127091E-1,2.860438428E-1
2.364248125E0,3.664065152E-3,-7.303953171E-4,-2.856969237E-1,2.857213522E-1
2.374204125E0,5.371151026E-3,-9.040338919E-4,-2.883372009E-1,2.883886405E-1
2.384160125E0,3.802687861E-3,9.982753545E-5,-2.951576114E-1,2.951821234E-1
2.394115125E0,4.810427781E-3,-3.730862401E-3,-2.958495021E-1,2.959121279E-1
2.404071125E0,4.453502130E-3,-2.017552964E-3,-2.893882692E-1,2.894295675E-1
2.414027125E0,1.834283001E-3,1.641092822E-4,-2.857756913E-1,2.857816251E-1
2.423983125E0,2.246524906E-3,-2.604627982E-3,-2.796542048E-1,2.796753569E-1
2.433939125E0,3.450279182E-4,-2.778265625E-3,-2.782453895E-1,2.782594734E-1
2.443894125E0,6.499886513E-4,-4.527725279E-3,-2.825948000E-1,2.826318166E-1
2.453850125E0,1.336551504E-3,-2.596667036E-3,-2.879637182E-1,2.879785270E-1
2.463806125E0,3.265529871E-3,-9.837709367E-4,-2.889979780E-1,2.890181011E-1
2.473762125E0,4.326000810E-3,1.105744392E-3,-2.903801501E-1,2.904144771E-1
2.483718125E0,2.637246158E-3,-4.839528352E-3,-2.848418057E-1,2.848951217E-1
2.493673125E0,1.138419029E-3,-1.793936826E-3,-2.803016305E-1,2.803096828E-1
2.503629125E0,2.897157799E-3,-1.594877802E-3,-2.801039219E-1,2.801234446E-1
2.513585125E0,7.301436272E-4,-7.439982146E-4,-2.795438468E-1,2.795457904E-1
2.523541125E0,1.852963120E-3,-1.738359220E-3,-2.838500440E-1,2.838614149E-1
2.533497125E0,2.206631005E-3,-2.447824925E-3,-2.914368510E-1,2.914554841E-1
2.543452125E0,3.823214676E-3,-2.312080935E-3,-2.917611897E-1,2.917953984E-1
2.553408125E0,2.091094851E-3,-3.261230886E-3,-2.861997187E-1,2.862259375E-1
2.563364125E0,3.152592108E-3,-4.708833061E-3,-2.774485052E-1,2.775063692E-1
2.573320125E0,2.325414214E-3,-2.544748597E-3,-2.786115110E-1,2.786328361E-1
2.583276125E0,2.961694496E-3,-2.949926071E-3,-2.814322412E-1,2.814632837E-1
2.593232125E0,3.611505963E-3,-3.349399194E-3,-2.863516212E-1,2.863939811E-1
2.603187125E0,3.155892948E-3,-1.331912354E-3,-2.908288538E-1,2.908490259E-1
2.613143125E0,5.391616840E-3,3.219107166E-4,-2.931119800E-1,2.931617403E-1
2.623099125E0,4.579147790E-3,-3.769696690E-3,-2.908967733E-1,2.909572339E-1
2.633055125E0,2.795628970E-3,-6.932131946E-4,-2.815985978E-1,2.816133277E-1
2.643011125E0,1.547299325E-5,-3.185317852E-3,-2.778224051E-1,2.778406652E-1
2.652966125E0,2.633360215E-3,-3.740587272E-3,-2.796839774E-1,2.797213860E-1
2.662922125E0,3.118693130E-3,-1.402841881E-3,-2.822315097E-1,2.822522263E-1
2.672878125E0,4.840959329E-3,-1.101639122E-3,-2.893578708E-1,2.894004594E-1
2.682834125E0,4.676870070E-3,-1.102868468E-3,-2.937546670E-1,2.937939650E-1
2.692790125E0,6.020700559E-3,-1.134294085E-3,-2.898224890E-1,2.898872377E-1
2.702745125E0,3.037271556E-3,-2.150370739E-3,-2.821768224E-1,2.822013611E-1
2.712701125E0,2.083060797E-3,-2.738662995E-3,-2.794361711E-1,2.794573547E-1
2.722657125E0,2.926925430E-3,-6.220061332E-4,-2.804665864E-1,2.804825482E-1
2.732613125E0,3.990059253E-3,-5.032289773E-4,-2.836818099E-1,2.837103154E-1
2.742569125E0,4.034656566E-3,-1.391536556E-3,-2.859234512E-1,2.859553020E-1
2.752524125E0,3.796037287E-3,2.875858918E-4,-2.874049544E-1,2.874301662E-1
2.762480125E0,3.551535774E-3,-1.607583836E-3,-2.914391160E-1,2.914651884E-1
2.772436125E0,3.517181147E-3,-1.224088483E-3,-2.909474969E-1,2.909713300E-1
2.782392125E0,2.315028571E-3,-8.408408612E-4,-2.872157097E-1,2.872262701E-1
2.792348125E0,3.059914801E-3,-3.384158947E-3,-2.876159847E-1,2.876521689E-1
2.802303125E0,1.952335704E-3,-7.006665692E-4,-2.878688872E-1,2.878763602E-1
2.812259125E0,3.479125910E-3,-1.544356346E-3,-2.856483459E-1,2.856737070E-1
2.822215125E0,1.405440154E-3,1.483839005E-4,-2.807136178E-1,2.807171753E-1
2.832171125E0,-1.010579523E-3,-1.150706783E-3,-2.829917073E-1,2.829958512E-1
2.842127125E0,1.307683648E-3,-1.538473181E-3,-2.845103741E-1,2.845175388E-1
2.852083125E0,2.276275307E-3,-1.667103730E-3,-2.920564413E-1,2.920700696E-1
2.862038125E0,2.941094572E-3,-1.631083898E-3,-2.932604849E-1,2.932797683E-1
2.871994125E0,2.200203249E-3,-1.908585429E-3,-2.960315049E-1,2.960458334E-1
2.881950125E0,3.211109433E-3,-1.653111540E-3,-2.946944237E-1,2.947165542E-1
2.891906125E0,1.775665442E-3,-2.592141740E-3,-2.884418666E-1,2.884589791E-1
2.901862125E0,6.260388764E-4,-1.339660026E-3,-2.851602733E-1,2.851641073E-1
2.911817125E0,7.069989224E-4,-2.208649181E-3,-2.830225527E-1,2.830320535E-1
2.921773125E0,3.110003425E-3,-2.091693692E-3,-2.836889923E-1,2.837137495E-1
2.931729125E0,4.034386482E-3,2.371764742E-3,-2.831723392E-1,2.832110083E-1
2.941685125E0,3.016757779E-3,-1.128048636E-3,-2.829144299E-1,2.829327623E-1
2.951641125E0,1.293159788E-3,-1.021788456E-3,-2.847783864E-1,2.847831555E-1
2.961596125E0,4.321841523E-3,-6.785560399E-4,-2.874471247E-1,2.874804137E-1
2.971552125E0,3.077612258E-3,-1.983771101E-3,-2.868426144E-1,2.868659835E-1
2.981508125E0,2.062465064E-3,-7.641790435E-4,-2.852378786E-1,2.852463586E-1
2.991464125E0,4.328016192E-3,-1.971921884E-3,-2.858152390E-1,2.858548076E-1
3.001420125E0,9.214946185E-4,-1.640570350E-3,-2.842824161E-1,2.842886433E-1
3.011375125E0,5.228891037E-3,-9.454851970E-4,-2.851181030E-1,2.851676137E-1
3.021331125E0,9.695406188E-4,-3.223955631E-3,-2.880646586E-1,2.880843305E-1
3.031287125E0,2.761848038E-3,-1.694235951E-3,-2.894718647E-1,2.894899976E-1
3.041243125E0,4.139572382E-3,-3.369729966E-3,-2.886945903E-1,2.887439309E-1
3.051199125E0,1.831144211E-3,-2.669052221E-3,-2.821682394E-1,2.821868038E-1
3.061154125E0,1.747047529E-3,-3.494965844E-3,-2.783506811E-1,2.783781037E-1
3.071110125E0,1.647711731E-3,-3.486710601E-3,-2.799229920E-1,2.799495554E-1
3.081066125E0,1.503765583E-3,-3.264436498E-3,-2.889688909E-1,2.889912417E-1
3.091022125E0,8.089468465E-4,-1.781589352E-3,-2.914024889E-1,2.914090579E-1
3.100978125E0,3.588189837E-3,3.788871691E-4,-2.920886874E-1,2.921109720E-1
3.110934125E0,1.601471566E-3,-2.033936791E-3,-2.888449430E-1,2.888565435E-1
3.120889125E0,2.408899367E-3,-2.167548984E-3,-2.851137519E-1,2.851321669E-1
3.130845125E0,2.472116030E-4,-8.407616988E-4,-2.822828293E-1,2.822841896E-1
3.140801125E0,3.068530001E-3,5.227653310E-4,-2.839050293E-1,2.839220929E-1
3.150757125E0,4.447515123E-3,-1.564886421E-3,-2.861831188E-1,2.862219537E-1
3.160713125E0,3.388602927E-4,-3.029292449E-3,-2.843414545E-1,2.843577926E-1
3.170668125E0,3.034512047E-3,-2.334207296E-3,-2.838327885E-1,2.838586067E-1
3.180624125E0,1.254240749E-3,-2.797228284E-3,-2.870545089E-1,2.870708775E-1
3.190579625E0,3.472387558E-3,-1.666716300E-3,-2.886057794E-1,2.886314801E-1
3.200535625E0,2.363995882E-3,-3.556116484E-3,-2.900220156E-1,2.900534502E-1
3.210491625E0,3.051890293E-3,-3.240532242E-3,-2.880099714E-1,2.880443693E-1
3.220446625E0,1.802231418E-3,-2.792784013E-3,-2.895055115E-1,2.895245912E-1
3.230402625E0,6.102005136E-4,-2.304093912E-3,-2.910714447E-1,2.910812037E-1
3.240358625E0,2.853485756E-3,-1.992711797E-3,-2.886978388E-1,2.887188172E-1
3.250314625E0,-8.523026481E-4,-1.065932214E-3,-2.912326455E-1,2.912358433E-1
3.260270625E0,4.642928950E-3,-2.882187255E-3,-2.878653705E-1,2.879172369E-1
3.270225625E0,2.760073869E-3,-1.810264774E-3,-2.807573974E-1,2.807767997E-1
3.280181625E0,1.650423161E-3,-1.871098764E-3,-2.801748514E-1,2.801859602E-1
3.290137625E0,2.395841992E-3,-2.675107680E-3,-2.773492336E-1,2.773724818E-1
3.300093625E0,4.141388461E-3,-1.425651833E-3,-2.834921777E-1,2.835260101E-1
3.310049625E0,5.275628529E-3,-2.104509622E-4,-2.896842957E-1,2.897324070E-1
3.320004625E0,4.014283884E-3,-1.534492709E-3,-2.916062176E-1,2.916378839E-1
3.329960625E0,6.484366022E-3,-9.680381045E-4,-2.929125130E-1,2.929858774E-1
3.339916625E0,1.278983662E-3,-7.898053154E-4,-2.862845957E-1,2.862885421E-1
3.349872625E0,4.125370178E-3,-1.484890468E-3,-2.802844942E-1,2.803187850E-1
3.359828625E0,-3.637064947E-4,-4.023546353E-4,-2.816648781E-1,2.816654003E-1
3.369784625E0,2.592934761E-3,-4.043057561E-5,-2.922746539E-1,2.922861582E-1
3.379739625E0,1.133409329E-3,-1.889974810E-3,-2.999657989E-1,2.999738940E-1
3.389695625E0,4.413358402E-3,6.818398833E-4,-3.018406630E-1,3.018736962E-1
3.399651625E0,2.959051635E-3,2.369275317E-4,-2.940054536E-1,2.940204395E-1
3.409607625E0,4.074649885E-3,-3.339431249E-3,-2.829256356E-1,2.829746806E-1
3.419563625E0,3.533403389E-3,-2.028248273E-3,-2.772022486E-1,2.772321867E-1
3.429518625E0,-1.082653878E-3,-8.881483227E-4,-2.753880918E-1,2.753916521E-1
3.439474625E0,-5.128105986E-4,-2.579320222E-3,-2.820537090E-1,2.820659686E-1
3.449430625E0,6.367199589E-3,-2.144958824E-3,-2.917425632E-1,2.918199193E-1
3.459386625E0,6.323929876E-3,-3.885357641E-3,-2.944309413E-1,2.945244766E-1
3.469342625E0,3.793128300E-3,-4.858328030E-4,-2.895027697E-1,2.895280255E-1
3.479297625E0,2.405827399E-3,-2.424407750E-3,-2.818579674E-1,2.818786610E-1
3.489253625E0,-1.098093460E-3,-1.452886499E-3,-2.784810662E-1,2.784870211E-1
3.499209625E0,-1.328031649E-4,1.992881298E-4,-2.816674709E-1,2.816675727E-1
3.509165625E0,4.666743916E-4,-2.550958656E-3,-2.866803408E-1,2.866920699E-1
3.519121625E0,2.612802200E-3,-7.978137583E-4,-2.897724211E-1,2.897852986E-1
3.529076625E0,3.757961560E-3,-3.309174441E-3,-2.916108072E-1,2.916537944E-1
3.539032625E0,3.805031069E-3,-1.604373567E-3,-2.903082967E-1,2.903376644E-1
3.548988625E0,4.075608216E-3,8.230973035E-4,-2.851593196E-1,2.851896310E-1
3.558944625E0,4.034728743E-3,-3.444139846E-3,-2.817222476E-1,2.817721880E-1
3.568900625E0,4.168419167E-3,-3.872108646E-3,-2.864317894E-1,2.864882876E-1
3.578855625E0,2.709150314E-3,1.773787662E-3,-2.896813452E-1,2.896994435E-1
3.588811625E0,3.852760419E-4,-2.528815530E-3,-2.908773720E-1,2.908886194E-1
3.598767625E0,5.777521874E-4,2.452740446E-4,-2.907338142E-1,2.907344918E-1
3.608723625E0,1.400935231E-3,3.278320655E-4,-2.882357836E-1,2.882393745E-1
3.618679625E0,2.409222303E-3,-8.809007704E-4,-2.833249569E-1,2.833365694E-1
3.628634625E0,2.918152371E-3,-4.289480858E-3,-2.803542018E-1,2.804021999E-1
3.638590625E0,1.477489248E-3,-4.251964390E-3,-2.835203409E-1,2.835560719E-1
3.648546625E0,2.815461485E-3,-2.219440416E-3,-2.907335162E-1,2.907556194E-1
3.658502625E0,3.848056076E-5,-3.348579630E-3,-2.890246511E-1,2.890440509E-1
3.668458625E0,2.750111278E-3,3.175288439E-4,-2.811046541E-1,2.811182856E-1
3.678413625E0,1.517055091E-3,-2.168794163E-3,-2.783538103E-1,2.783663932E-1
3.688369625E0,1.984706149E-3,-9.730346501E-4,-2.813578546E-1,2.813665371E-1
3.698325625E0,5.294937175E-3,-1.615224406E-3,-2.845670283E-1,2.846208687E-1
3.708281625E0,3.549501300E-3,-8.317222819E-4,-2.888989449E-1,2.889219463E-1
3.718237625E0,5.076480564E-3,-4.792972468E-3,-2.948446274E-1,2.949272750E-1
3.728192625E0,1.952326158E-3,1.770121045E-3,-2.932845354E-1,2.932963750E-1
3.738148625E0,5.193427205E-3,4.269061610E-4,-2.891287506E-1,2.891757050E-1
3.748104625E0,1.485507935E-3,-9.046746418E-4,-2.815571129E-1,2.815624851E-1
3.758060625E0,2.004062757E-3,-4.763994366E-4,-2.757829726E-1,2.757906655E-1
3.768016625E0,4.992129281E-3,-1.440198161E-3,-2.794043422E-1,2.794526471E-1
3.777972625E0,-6.983929779E-4,3.338698298E-4,-2.857867777E-1,2.857878261E-1
3.787927625E0,1.684659219E-4,-2.211579122E-3,-2.930734456E-1,2.930818383E-1
3.797883625E0,2.853869926E-3,-1.604023390E-3,-2.918775976E-1,2.918959565E-1
3.807839625E0,1.398185967E-3,-1.862083562E-3,-2.908962369E-1,2.909055567E-1
3.817795625E0,3.410875797E-3,-1.490416937E-3,-2.833820879E-1,2.834065334E-1
3.827751625E0,1.447326969E-3,-1.774042845E-3,-2.762796879E-1,2.762891745E-1
3.837706625E0,3.709979588E-3,-1.711025834E-4,-2.779664099E-1,2.779912198E-1
3.847662625E0,3.008236643E-3,-1.912543550E-3,-2.833307981E-1,2.833532221E-1
3.857618625E0,2.055317163E-3,-3.118542023E-3,-2.907442153E-1,2.907682038E-1
3.867574625E0,3.390626051E-3,-4.599075764E-4,-2.937496006E-1,2.937695283E-1
3.877530625E0,2.761860378E-3,-2.203901298E-3,-2.943097651E-1,2.943309751E-1
3.887485625E0,1.951460494E-3,-3.785705194E-4,-2.856555581E-1,2.856624746E-1
3.897441625E0,2.620166633E-3,-1.194954850E-3,-2.786551714E-1,2.786700517E-1
3.907397625E0,8.515613154E-4,2.780398354E-4,-2.757334411E-1,2.757348963E-1
3.917353625E0,2.230673330E-3,-1.195400953E-3,-2.822510302E-1,2.822623761E-1
3.927309625E0,3.912992310E-3,-2.942967229E-3,-2.896716595E-1,2.897130354E-1
3.937264625E0,4.495010711E-3,-3.214093857E-3,-2.992491126E-1,2.993001285E-1
3.947220625E0,7.373621687E-3,-1.962141134E-3,-2.990698814E-1,2.991672012E-1
3.957176625E0,3.045938443E-3,-3.481712192E-4,-2.949464321E-1,2.949623650E-1
3.967132625E0,3.143340873E-4,-4.685660824E-3,-2.822420895E-1,2.822811565E-1
3.977088625E0,1.457504812E-3,-4.865012132E-3,-2.736959159E-1,2.737430311E-1
3.987043625E0,-1.228825888E-3,-3.057257272E-3,-2.695853114E-1,2.696054468E-1
3.996999625E0,1.942930743E-3,-1.662672497E-3,-2.788535058E-1,2.788652312E-1
4.006955625E0,3.426045179E-3,-2.975078300E-3,-2.922254801E-1,2.922607057E-1
4.016911625E0,3.823477309E-3,-2.131787129E-3,-2.949357927E-1,2.949682785E-1
4.026867625E0,2.893767785E-3,2.328334376E-4,-2.908502519E-1,2.908647403E-1
4.036822625E0,3.064454067E-3,-1.766694710E-3,-2.844833434E-1,2.845053334E-1
4.046778625E0,2.827699063E-3,-1.867895015E-3,-2.769641578E-1,2.769848906E-1
4.056734625E0,1.730451011E-3,-4.904604517E-3,-2.820204198E-1,2.820683726E-1
4.066690625E0,1.395425294E-3,-2.831866033E-3,-2.875150442E-1,2.875323761E-1
4.076646625E0,3.388730343E-3,-1.302299090E-3,-2.913662493E-1,2.913888651E-1
4.086602625E0,2.613484161E-3,-1.552756876E-4,-2.906791568E-1,2.906909469E-1
4.096557625E0,2.683933126E-3,-1.985656098E-3,-2.899955511E-1,2.900147686E-1
4.106513625E0,2.302568406E-3,-1.852497458E-3,-2.885158956E-1,2.885310305E-1
4.116469625E0,2.059501596E-3,-6.153443828E-4,-2.898940444E-1,2.899020131E-1
4.126425625E0,1.317278482E-3,-2.076887526E-3,-2.870045304E-1,2.870150678E-1
4.136381625E0,9.773992933E-4,-6.257774308E-3,-2.866617739E-1,2.867317347E-1
4.146336625E0,4.367070738E-3,-6.483579054E-4,-2.845509350E-1,2.845851829E-1
4.156292625E0,4.371638875E-3,7.674098015E-5,-2.839025557E-1,2.839362222E-1
4.166248625E0,-1.056674519E-4,-4.718014970E-3,-2.807256579E-1,2.807653217E-1
4.176204625E0,1.929875114E-3,5.912762135E-4,-2.855691612E-1,2.855762943E-1
4.186160625E0,1.812163391E-3,-1.537388191E-3,-2.848844528E-1,2.848943646E-1
4.196116250E0,1.838498050E-3,-2.296378836E-3,-2.836119235E-1,2.836271788E-1
4.206072250E0,2.094427822E-3,-1.525393687E-3,-2.811737955E-1,2.811857335E-1
4.216028250E0,2.977055963E-3,-2.569107339E-3,-2.867933214E-1,2.868202788E-1
4.225984250E0,3.382122843E-3,-2.170166001E-3,-2.902250886E-1,2.902529077E-1
4.235940250E0,5.250980146E-3,-1.108200289E-3,-2.940916419E-1,2.941406037E-1
4.245895250E0,3.699155990E-3,9.624073282E-4,-2.952700853E-1,2.952948243E-1
4.255851250E0,2.924303990E-3,-3.079565242E-3,-2.935672700E-1,2.935979859E-1
4.265807250E0,2.552260645E-3,-1.167990267E-4,-2.851391733E-1,2.851506195E-1
4.275763250E0,3.145994851E-3,-1.963688992E-3,-2.810831666E-1,2.811076305E-1
4.285719250E0,6.045628106E-5,-1.139973290E-3,-2.768684328E-1,2.768707862E-1
4.295674250E0,3.931236919E-3,-2.120682970E-3,-2.804753482E-1,2.805109140E-1
4.305630250E0,5.695048254E-3,-1.706028357E-3,-2.906830013E-1,2.907437899E-1
4.315586250E0,3.033121116E-3,-3.316091374E-3,-2.905820608E-1,2.906168102E-1
4.325542250E0,2.403816208E-3,-2.023394220E-3,-2.913567722E-1,2.913737139E-1
4.335498250E0,1.412406098E-3,1.825843006E-3,-2.895774841E-1,2.895866846E-1
4.345453250E0,3.014031332E-3,1.582429744E-3,-2.909032106E-1,2.909231280E-1
4.355409250E0,3.365660319E-3,-9.829076007E-4,-2.853080928E-1,2.853296368E-1
4.365365250E0,4.957698286E-3,-1.732320525E-3,-2.799513936E-1,2.800006473E-1
4.375321250E0,2.513834508E-3,-1.122057438E-4,-2.831079662E-1,2.831191489E-1
4.385277250E0,3.344208235E-3,3.964584321E-4,-2.852166593E-1,2.852365398E-1
4.395232250E0,3.565592924E-3,-7.081786171E-4,-2.905045450E-1,2.905272889E-1
4.405188250E0,2.713115187E-3,1.767892390E-4,-2.905777693E-1,2.905904889E-1
4.415144250E0,5.175992381E-3,-1.107429154E-3,-2.887069285E-1,2.887554465E-1
4.425100250E0,2.963704523E-3,-2.336455509E-4,-2.833859324E-1,2.834015258E-1
4.435056250E0,1.556819072E-3,-9.831441566E-4,-2.782036662E-1,2.782097593E-1
4.445012250E0,1.333912369E-3,-3.381587565E-3,-2.797568142E-1,2.797804310E-1
4.454967250E0,3.494164674E-3,-1.308128238E-3,-2.865274549E-1,2.865517454E-1
4.464923250E0,-3.162861103E-4,-2.688169479E-5,-2.947600782E-1,2.947602491E-1
4.474879250E0,3.309102496E-3,-2.041890286E-3,-2.931445539E-1,2.931703412E-1
4.484835250E0,4.262513947E-3,-3.995187581E-4,-2.895724475E-1,2.896040936E-1
4.494791250E0,3.781888634E-3,-2.176593989E-5,-2.861190140E-1,2.861440080E-1
4.504746250E0,2.215417335E-3,-4.811612889E-4,-2.824257314E-1,2.824348303E-1
4.514702250E0,4.571066704E-3,-4.660090432E-3,-2.808433175E-1,2.809191700E-1
4.524658250E0,3.192082280E-3,-6.136829033E-4,-2.865408957E-1,2.865593323E-1
4.534614250E0,3.990386613E-3,-2.837459557E-3,-2.917097807E-1,2.917508706E-1
4.544570250E0,1.117101870E-3,-1.834513620E-3,-2.882458270E-1,2.882538293E-1
4.554525250E0,1.305323909E-3,-1.374024898E-3,-2.850532234E-1,2.850595236E-1
4.564481250E0,3.229724010E-3,-4.733437672E-4,-2.802406251E-1,2.802596353E-1
4.574437250E0,1.972860191E-3,-1.875059679E-4,-2.811298370E-1,2.811368219E-1
4.584393250E0,1.884709345E-3,-1.836001873E-3,-2.810076177E-1,2.810199357E-1
4.594349250E0,4.893852863E-3,-2.020324580E-3,-2.890159488E-1,2.890644394E-1
4.604304250E0,3.799027298E-3,-6.293551996E-4,-2.936386466E-1,2.936638954E-1
4.614260250E0,4.251203500E-3,-7.265089080E-4,-2.965885997E-1,2.966199555E-1
4.624216250E0,2.872218844E-3,-1.555018127E-3,-2.893413603E-1,2.893597942E-1
4.634172250E0,2.935120137E-3,-1.691365615E-3,-2.848438323E-1,2.848639753E-1
4.644128250E0,1.006725011E-3,-1.986443996E-3,-2.775577009E-1,2.775666348E-1
4.654083250E0,-1.288978499E-3,-2.761632204E-4,-2.740567923E-1,2.740599626E-1
4.664039250E0,-7.249210030E-4,-4.063711502E-3,-2.762472332E-1,2.762780720E-1
4.673995250E0,9.354872163E-4,-9.472351521E-4,-2.841188014E-1,2.841219204E-1
4.683951250E0,3.798651742E-3,-1.184789464E-3,-2.970673740E-1,2.970940224E-1
4.693907250E0,1.687575132E-3,-1.754001714E-3,-2.964737415E-1,2.964837329E-1
4.703862250E0,2.868154552E-3,1.356836408E-3,-2.906978726E-1,2.907151879E-1
4.713818250E0,2.034524921E-3,-4.974100739E-4,-2.837393880E-1,2.837471181E-1
4.723774250E0,2.274741884E-3,7.843701169E-4,-2.761301994E-1,2.761406829E-1
4.733730250E0,1.506251283E-3,-2.875427715E-3,-2.760779262E-1,2.760970087E-1
4.743686250E0,1.384012168E-3,-1.224800013E-3,-2.770987153E-1,2.771048784E-1
4.753641250E0,4.664003383E-3,-1.622900367E-3,-2.810020149E-1,2.810454040E-1
4.763597250E0,-5.964527372E-5,9.981822222E-4,-2.849477530E-1,2.849495075E-1
4.773553250E0,4.103134852E-3,-1.387879252E-3,-2.807907462E-1,2.808241533E-1
4.783509250E0,3.315371927E-3,-1.778831705E-3,-2.821585238E-1,2.821836078E-1
4.793465250E0,4.877333529E-3,-3.032903187E-3,-2.866593301E-1,2.867168611E-1
4.803420250E0,4.359881394E-3,-2.609460615E-3,-2.839679122E-1,2.840133677E-1
4.813376250E0,3.013916779E-3,1.809280366E-5,-2.862036228E-1,2.862194922E-1
4.823332250E0,2.976632444E-3,2.081244253E-3,-2.901863754E-1,2.902091046E-1
4.833288250E0,2.738493029E-3,-2.628527582E-4,-2.923811674E-1,2.923941099E-1
4.843244250E0,1.996536506E-3,-4.870910197E-4,-2.932530940E-1,2.932602948E-1
4.853199250E0,5.156199913E-4,-1.729807816E-3,-2.847487330E-1,2.847544540E-1
4.863155250E0,2.789693186E-3,-2.627292648E-3,-2.817686498E-1,2.817947073E-1
4.873111250E0,2.052703872E-3,1.635942608E-4,-2.816689610E-1,2.816764881E-1
4.883067250E0,3.971511498E-3,4.565417767E-4,-2.837411761E-1,2.837693365E-1
4.893023250E0,1.346295001E-3,-2.889825031E-3,-2.805622816E-1,2.805803939E-1
4.902978250E0,1.314070774E-3,-7.462473586E-4,-2.805175185E-1,2.805215889E-1
4.912934250E0,2.761384007E-3,-6.042616442E-4,-2.823915780E-1,2.824057253E-1
4.922890250E0,1.224473584E-3,-1.780846156E-3,-2.813912928E-1,2.813995921E-1
4.932846250E0,2.865407383E-3,-1.919459552E-3,-2.836169899E-1,2.836379591E-1
4.942802250E0,3.910165280E-3,-2.312276512E-3,-2.868825793E-1,2.869185430E-1
4.952758250E0,1.642534742E-3,1.165520400E-3,-2.864916921E-1,2.864987713E-1
4.962713250E0,3.976795357E-3,2.159678377E-3,-2.898949385E-1,2.899302579E-1
4.972669250E0,3.192079253E-3,-7.546460256E-4,-2.900609374E-1,2.900794827E-1
4.982625250E0,2.448258223E-3,-1.381020993E-3,-2.920508385E-1,2.920643652E-1
4.992581250E0,2.443948062E-3,-1.749079674E-3,-2.906158566E-1,2.906313959E-1
5.002537250E0,2.235955093E-3,3.079464659E-4,-2.857760787E-1,2.857849917E-1
5.012492250E0,3.335437505E-3,-1.652906649E-3,-2.794624567E-1,2.794872483E-1
5.022448250E0,2.373770112E-3,-4.016462713E-3,-2.824606299E-1,2.824991579E-1
5.032404250E0,1.952420687E-3,-1.533758827E-3,-2.804346681E-1,2.804456586E-1
5.042360250E0,3.431806806E-3,-4.082936794E-3,-2.838986516E-1,2.839487490E-1
5.052316250E0,3.210658440E-3,-1.611188054E-5,-2.882958353E-1,2.883137132E-1
5.062271250E0,2.304650843E-3,5.588652566E-4,-2.908567190E-1,2.908663864E-1
5.072227250E0,2.930628601E-3,-2.950700000E-3,-2.948449850E-1,2.948743129E-1
5.082183250E0,2.496799454E-3,-1.615391113E-3,-2.886400819E-1,2.886554007E-1
5.092139250E0,2.435970586E-3,-2.164523117E-3,-2.861495614E-1,2.861681160E-1
5.102095250E0,1.059915172E-3,-2.369852737E-3,-2.849812210E-1,2.849930454E-1
5.112050250E0,3.832660615E-3,-1.450804994E-3,-2.838313878E-1,2.838609709E-1
5.122006250E0,2.533836989E-3,-2.897168510E-3,-2.808430493E-1,2.808694221E-1
5.131962250E0,2.261911985E-3,-1.356564462E-3,-2.796210945E-1,2.796335334E-1
5.141918250E0,-1.168233575E-4,-2.972837538E-3,-2.820232809E-1,2.820389731E-1
5.151874250E0,1.716532744E-3,-1.639454626E-3,-2.801541686E-1,2.801642241E-1
5.161829250E0,1.499218866E-3,-3.140412271E-3,-2.816524804E-1,2.816739774E-1
5.171785250E0,4.846340977E-3,-2.797343768E-3,-2.847607136E-1,2.848156880E-1
5.181741250E0,-5.598757998E-4,-6.026327610E-4,-2.916127741E-1,2.916139343E-1
5.191696500E0,2.820264082E-3,-6.920797750E-4,-2.913444042E-1,2.913588762E-1
5.201652500E0,2.603748813E-3,-2.555226907E-3,-2.916642427E-1,2.916870569E-1
5.211607500E0,-2.015185310E-4,-4.859231412E-4,-2.839436829E-1,2.839441702E-1
5.221563500E0,1.315151691E-3,1.929298043E-3,-2.786482573E-1,2.786580397E-1
5.231519500E0,1.827090047E-3,-1.682095230E-3,-2.794811130E-1,2.794921469E-1
5.241475500E0,2.559192944E-3,-1.501266845E-3,-2.816225588E-1,2.816381880E-1
5.251431500E0,1.990746008E-3,1.434548758E-3,-2.876958251E-1,2.877062891E-1
5.261387500E0,3.797967220E-3,2.866610885E-5,-2.875892818E-1,2.876143605E-1
5.271342500E0,3.481632099E-3,-5.460046232E-4,-2.885709405E-1,2.885924593E-1
5.281298500E0,-8.364171954E-4,-1.836572774E-3,-2.866420150E-1,2.866491189E-1
5.291254500E0,2.014046302E-3,-1.296733506E-3,-2.839023173E-1,2.839124225E-1
5.301210500E0,2.903808374E-3,-2.498617396E-3,-2.827441096E-1,2.827700598E-1
5.311166500E0,7.217174862E-4,-1.477102749E-3,-2.843841612E-1,2.843889131E-1
5.321121500E0,1.622664859E-3,-2.294693142E-3,-2.887922525E-1,2.888059275E-1
5.331077500E0,2.075175522E-3,-6.277430803E-4,-2.933064699E-1,2.933144826E-1
5.341033500E0,1.367839868E-3,5.733426660E-4,-2.921519876E-1,2.921557522E-1
5.350989500E0,3.776143771E-3,-4.369532689E-4,-2.868953347E-1,2.869205173E-1
5.360945500E0,3.550307825E-3,-1.638571732E-3,-2.813969553E-1,2.814241213E-1
5.370900500E0,1.682073809E-3,-7.607322186E-5,-2.810948789E-1,2.810999219E-1
5.380856500E0,4.194766283E-3,1.209701411E-3,-2.836973071E-1,2.837308963E-1
5.390812500E0,5.736386520E-4,-1.740208827E-3,-2.863251865E-1,2.863310493E-1
5.400768500E0,1.553948270E-3,-1.409976743E-3,-2.915961146E-1,2.916036640E-1
5.410724500E0,4.261271097E-3,-5.911625922E-4,-2.922613323E-1,2.922929938E-1
5.420679500E0,3.724910086E-3,1.720990986E-4,-2.850921154E-1,2.851165005E-1
5.430635500E0,2.883184003E-3,-3.070494160E-3,-2.834129632E-1,2.834442597E-1
5.440591500E0,2.747629303E-3,-1.452357508E-3,-2.872756124E-1,2.872924229E-1
5.450547500E0,4.779487383E-3,4.369392991E-5,-2.926231921E-1,2.926622250E-1
5.460503500E0,5.569114350E-3,1.805908047E-3,-2.950266898E-1,2.950847743E-1
5.470458500E0,3.136333544E-3,-3.941776231E-4,-2.871346474E-1,2.871520463E-1
5.480414500E0,2.920883708E-3,-2.367846668E-3,-2.827987671E-1,2.828237630E-1
5.490370500E0,2.208777936E-3,-1.628169790E-3,-2.802784741E-1,2.802919062E-1
5.500326500E0,2.846871503E-3,-9.847497568E-4,-2.760320604E-1,2.760484971E-1
5.510282500E0,1.073067775E-3,-7.823174819E-4,-2.835382521E-1,2.835413619E-1
5.520237500E0,7.388410741E-4,-1.149034128E-3,-2.887535095E-1,2.887567409E-1
5.530193500E0,5.167603493E-3,-2.255197614E-5,-2.920150757E-1,2.920607969E-1
5.540149500E0,2.870094730E-3,-5.972618237E-4,-2.879582942E-1,2.879732164E-1
5.550105500E0,1.720025670E-3,-2.502864227E-3,-2.806625664E-1,2.806789964E-1
5.560061500E0,2.229754580E-3,-1.589933410E-3,-2.808540463E-1,2.808673976E-1
5.570016500E0,1.099974615E-3,-3.605473787E-3,-2.887788415E-1,2.888034430E-1
5.579972500E0,2.844611416E-3,-1.020875759E-3,-2.936758399E-1,2.936913907E-1
5.589928500E0,2.804576652E-3,-3.451677039E-4,-2.955924571E-1,2.956059632E-1
5.599884500E0,1.776596531E-3,4.007834941E-4,-2.910823822E-1,2.910880797E-1
5.609840500E0,1.666457509E-3,1.535721123E-3,-2.836509943E-1,2.836600467E-1
5.619796500E0,4.960521124E-3,-5.099084228E-5,-2.754910886E-1,2.755357496E-1
5.629751500E0,-2.465797006E-4,-8.270135149E-4,-2.779958844E-1,2.779972239E-1
5.639707500E0,-1.919849310E-4,8.406583220E-4,-2.859190404E-1,2.859203407E-1
5.649663500E0,2.989921020E-3,-8.703330532E-4,-2.964497805E-1,2.964661354E-1
5.659619500E0,3.069815924E-3,7.496671751E-4,-2.924702168E-1,2.924872877E-1
5.669575500E0,3.102521878E-3,-3.725066781E-3,-2.867349088E-1,2.867758876E-1
5.679530500E0,2.490527462E-3,-3.923866898E-4,-2.790399790E-1,2.790513690E-1
5.689486500E0,3.804382635E-3,-2.401541919E-3,-2.768531144E-1,2.768896670E-1
5.699442500E0,1.380905975E-3,-2.606604248E-3,-2.839696109E-1,2.839849313E-1
5.709398500E0,1.914052991E-3,7.814969867E-4,-2.954539359E-1,2.954611693E-1
5.719354500E0,2.361730440E-3,-1.462216489E-3,-2.984015048E-1,2.984144331E-1
5.729309500E0,1.907188562E-3,1.424723305E-3,-2.931300104E-1,2.931396769E-1
5.739265500E0,2.264318522E-3,-2.089051530E-3,-2.836661935E-1,2.836829226E-1
5.749221500E0,2.865995979E-3,-1.935242675E-3,-2.766842246E-1,2.767058352E-1
5.759177500E0,2.617789432E-3,-1.926454715E-3,-2.801226377E-1,2.801414932E-1
5.769133500E0,2.738384064E-3,-1.514025033E-3,-2.871282995E-1,2.871453489E-1
5.779088500E0,3.779147519E-3,1.016510651E-3,-2.933928370E-1,2.934189361E-1
5.789044500E0,1.155060483E-3,2.242886461E-3,-2.931882441E-1,2.931990982E-1
5.799000500E0,1.819252968E-3,9.624389932E-4,-2.896129489E-1,2.896202620E-1
5.808956500E0,2.096869983E-3,-1.961793751E-4,-2.841969430E-1,2.842047462E-1
5.818912500E0,2.200200688E-3,-1.516840421E-3,-2.843138576E-1,2.843264168E-1
5.828867500E0,4.749955144E-3,1.362739131E-4,-2.858763337E-1,2.859158247E-1
5.838823500E0,3.418641165E-3,3.424026072E-4,-2.916913629E-1,2.917115965E-1
5.848779500E0,6.429429632E-3,-2.258816734E-3,-2.902965844E-1,2.903765602E-1
5.858735500E0,1.299382187E-3,-1.422318630E-3,-2.830764651E-1,2.830830205E-1
5.868691500E0,1.995303901E-3,-1.817652956E-3,-2.789632082E-1,2.789762653E-1
5.878646500E0,-1.109903096E-4,-1.617116854E-3,-2.776148617E-1,2.776195938E-1
5.888602500E0,3.121370915E-3,-2.450364642E-3,-2.812950909E-1,2.813230801E-1
5.898558500E0,3.419378540E-3,-1.933351159E-4,-2.896693945E-1,2.896896402E-1
5.908514500E0,3.729425371E-3,-2.580915578E-3,-2.927921116E-1,2.928272364E-1
5.918470500E0,1.423127833E-3,1.940866001E-3,-2.900426686E-1,2.900526536E-1
5.928425500E0,3.733596997E-3,-3.115398809E-3,-2.882337868E-1,2.882748017E-1
5.938381500E0,2.781250747E-3,-1.932422630E-3,-2.891719937E-1,2.891918249E-1
5.948337500E0,2.901635366E-3,2.964586020E-5,-2.887399197E-1,2.887545005E-1
5.958293500E0,1.187092159E-3,-7.434692234E-4,-2.859896719E-1,2.859931020E-1
5.968249500E0,3.958292771E-3,-1.233010553E-3,-2.848586738E-1,2.848888423E-1
5.978205500E0,4.744724371E-3,-8.196877316E-4,-2.876707017E-1,2.877109955E-1
5.988160500E0,2.082743449E-3,-1.641245559E-3,-2.890242040E-1,2.890363680E-1
5.998116500E0,2.491272520E-3,-2.052690834E-4,-2.868859470E-1,2.868968371E-1
6.008072500E0,2.035363344E-3,-8.757691830E-5,-2.882254422E-1,2.882326420E-1
6.018028500E0,3.922745585E-3,-2.407087013E-4,-2.859228551E-1,2.859498644E-1
6.027984500E0,4.076547921E-3,1.023540273E-3,-2.855989337E-1,2.856298598E-1
6.037939500E0,2.570264274E-3,-4.878034815E-4,-2.856591046E-1,2.856710840E-1
6.047895500E0,2.669156762E-3,-2.345643938E-3,-2.880754471E-1,2.880973614E-1
6.057851500E0,2.170346677E-3,-6.936844438E-4,-2.902539372E-1,2.902628803E-1
6.067807500E0,2.777996007E-3,-1.398236491E-3,-2.908563316E-1,2.908729584E-1
6.077763500E0,1.186224632E-3,-8.062152192E-4,-2.872682512E-1,2.872718316E-1
6.087718500E0,2.185278572E-3,-2.720691264E-4,-2.846104205E-1,2.846189398E-1
6.097674500E0,-7.559164078E-4,4.808064550E-4,-2.819992006E-1,2.820006236E-1
6.107630500E0,2.377712633E-3,7.532695308E-4,-2.812603712E-1,2.812714300E-1
6.117586500E0,6.740886020E-4,-1.233980991E-3,-2.813112438E-1,2.813147578E-1
6.127542500E0,4.173733178E-4,-1.623572782E-3,-2.845531702E-1,2.845581081E-1
6.137497500E0,7.191094337E-4,-2.091224305E-3,-2.899380922E-1,2.899465255E-1
6.147453500E0,2.797083231E-3,2.653141506E-3,-2.936262190E-1,2.936515270E-1
6.157409500E0,2.259657253E-3,-2.167180181E-3,-2.930280864E-1,2.930448125E-1
6.167365500E0,1.548665110E-3,1.247029752E-3,-2.892048061E-1,2.892116410E-1
6.177321500E0,4.318885040E-3,1.334381290E-3,-2.887169421E-1,2.887523264E-1
6.187276500E0,3.185434733E-3,-1.301458105E-4,-2.827059329E-1,2.827239084E-1
6.197233167E0,1.207238762E-3,-2.325655892E-3,-2.835640013E-1,2.835761079E-1
6.207189167E0,2.500232309E-3,-2.232212573E-4,-2.812814116E-1,2.812926119E-1
6.217145167E0,1.868264168E-3,-2.357479185E-3,-2.866881490E-1,2.867039290E-1
6.227101167E0,8.712910931E-4,-7.677758113E-4,-2.906688452E-1,2.906711650E-1
6.237056167E0,4.988271743E-3,-3.246255219E-4,-2.885865271E-1,2.886298180E-1
6.247012167E0,1.511382987E-3,-1.434331760E-3,-2.873128653E-1,2.873204207E-1
6.256968167E0,1.840283396E-3,-2.270031720E-3,-2.817761302E-1,2.817912831E-1
6.266924167E0,3.053742228E-3,-7.930425927E-4,-2.810185254E-1,2.810362358E-1
6.276880167E0,3.008468542E-3,-6.532268599E-4,-2.851938307E-1,2.852104463E-1
6.286836167E0,3.203602275E-3,-2.141453326E-3,-2.924820185E-1,2.925074016E-1
6.296791167E0,9.942178440E-5,-1.608820632E-3,-2.909610868E-1,2.909655516E-1
6.306747167E0,4.088393878E-3,-1.435857266E-4,-2.926719785E-1,2.927005681E-1
6.316703167E0,2.225246280E-3,-1.063974574E-3,-2.851634622E-1,2.851741291E-1
6.326659167E0,3.473634366E-3,-2.106376924E-3,-2.810896635E-1,2.811190173E-1
6.336615167E0,3.954068758E-3,-5.185995251E-4,-2.848074436E-1,2.848353622E-1
6.346570167E0,4.086924251E-3,-1.117321663E-3,-2.860315740E-1,2.860629523E-1
6.356526167E0,1.362777082E-3,4.632649943E-4,-2.871181369E-1,2.871217447E-1
6.366482167E0,1.645971788E-3,-8.940361440E-4,-2.886221111E-1,2.886281891E-1
6.376438167E0,3.214573720E-3,-7.952330634E-4,-2.891153395E-1,2.891343034E-1
6.386394167E0,1.571134897E-3,-1.869513653E-3,-2.901125252E-1,2.901228030E-1
6.396349167E0,1.122552057E-4,1.110829413E-3,-2.837856412E-1,2.837878375E-1
6.406305167E0,3.020177130E-3,1.318620518E-3,-2.838176191E-1,2.838367509E-1
6.416261167E0,3.350941697E-3,-2.318193205E-3,-2.856104672E-1,2.856395312E-1
6.426217167E0,1.050052466E-3,-1.968834549E-3,-2.913095355E-1,2.913180811E-1
6.436173167E0,2.392285736E-3,-1.348583959E-3,-3.015142381E-1,3.015267443E-1
6.446128167E0,3.187088994E-3,9.325193241E-4,-3.024991453E-1,3.025173714E-1
6.456084167E0,1.765759895E-3,-2.086706460E-3,-2.923831344E-1,2.923959123E-1
6.466040167E0,2.170516644E-3,-2.240261063E-3,-2.814615071E-1,2.814787912E-1
6.475996167E0,6.874022074E-4,-2.329476178E-3,-2.730802596E-1,2.730910602E-1
6.485952167E0,4.394987132E-3,-2.858822234E-3,-2.758547664E-1,2.759045866E-1
6.495907167E0,2.201873809E-3,-3.278804012E-3,-2.855172455E-1,2.855445610E-1
6.505863167E0,5.609008018E-3,-1.569680870E-3,-2.966966927E-1,2.967538582E-1
6.515819167E0,1.361266011E-3,1.725448295E-3,-3.008344471E-1,3.008424751E-1
6.525775167E0,2.854134189E-3,1.697631553E-3,-2.915017307E-1,2.915206460E-1
6.535731167E0,3.879185067E-3,-2.254765481E-3,-2.810911834E-1,2.811269917E-1
6.545687167E0,1.885125879E-3,-2.113025635E-3,-2.801684737E-1,2.801827836E-1
6.555642167E0,2.775953384E-3,-1.217937097E-3,-2.856340706E-1,2.856501560E-1
6.565598167E0,2.345540561E-3,-5.425764248E-4,-2.970244288E-1,2.970341854E-1
6.575554167E0,2.714122180E-3,7.115053013E-4,-3.006785512E-1,3.006916425E-1
6.585510167E0,2.099266509E-3,1.016380265E-4,-2.952133715E-1,2.952208529E-1
6.595466167E0,5.322757177E-3,-1.299983822E-3,-2.849037349E-1,2.849564175E-1
6.605421167E0,2.115007024E-3,-1.470222138E-3,-2.773749232E-1,2.773868830E-1
6.615377167E0,8.678486338E-4,-6.600888446E-4,-2.667340040E-1,2.667362326E-1
6.625333167E0,6.885299226E-4,-3.081344068E-3,-2.727943361E-1,2.728126070E-1
6.635289167E0,3.817477729E-3,1.254015602E-3,-2.879413366E-1,2.879693717E-1
6.645245167E0,-1.093108207E-3,-9.693391621E-5,-2.996103466E-1,2.996123563E-1
6.655200167E0,1.543421182E-3,1.317203976E-3,-2.981339097E-1,2.981408145E-1
6.665156167E0,-9.152387502E-4,2.756367438E-3,-2.917980254E-1,2.918124789E-1
6.675112167E0,1.710105338E-3,-4.048459232E-5,-2.799014151E-1,2.799066421E-1
6.685068167E0,-6.617425825E-4,-2.033598721E-4,-2.720991969E-1,2.721000776E-1
6.695024167E0,2.368401969E-3,-2.732830122E-3,-2.734190524E-1,2.734429664E-1
6.704979167E0,6.028329488E-3,-2.281629480E-3,-2.817917466E-1,2.818654556E-1
6.714935167E0,3.452253528E-3,3.903191537E-4,-2.931176424E-1,2.931382314E-1
6.724891167E0,2.576711820E-3,1.325777732E-3,-2.948519588E-1,2.948661980E-1
6.734847167E0,2.037688158E-3,1.072777435E-3,-2.887900770E-1,2.887992583E-1
6.744803167E0,5.339187570E-3,3.882963210E-5,-2.787846029E-1,2.788357280E-1
6.754758167E0,3.119176254E-3,1.664423384E-3,-2.758761644E-1,2.758988178E-1
6.764714167E0,1.857803902E-3,-7.647741586E-4,-2.798465788E-1,2.798537904E-1
6.774670167E0,3.417084692E-3,-2.193590626E-4,-2.903799117E-1,2.904000993E-1
6.784626167E0,1.842204831E-3,2.957936376E-4,-3.024003506E-1,3.024061065E-1
6.794582167E0,1.097851200E-3,3.730254248E-4,-3.047740161E-1,3.047762217E-1
6.804537167E0,5.585734616E-4,-3.433162346E-4,-2.912386358E-1,2.912393738E-1
6.814493167E0,3.686456010E-3,-6.343992427E-4,-2.798858285E-1,2.799108240E-1
6.824449167E0,3.035608679E-3,-1.801352948E-3,-2.748823464E-1,2.749050093E-1
6.834405167E0,3.657989437E-3,-4.055900499E-4,-2.772024870E-1,2.772269182E-1
6.844361167E0,1.703667687E-3,-9.701941162E-4,-2.847807109E-1,2.847874595E-1
6.854317167E0,1.221901854E-3,-3.717821091E-4,-2.925233245E-1,2.925261127E-1
6.864272167E0,3.734011902E-3,3.681141883E-3,-2.980597615E-1,2.981058790E-1
6.874228167E0,3.151045879E-3,3.276341595E-3,-2.945025861E-1,2.945376661E-1
6.884184167E0,2.540509915E-3,8.643688634E-4,-2.829115391E-1,2.829242660E-1
6.894140167E0,3.617778420E-4,1.061975025E-3,-2.741542757E-1,2.741565712E-1
6.904096167E0,2.168816514E-3,-4.571238533E-3,-2.726070285E-1,2.726539785E-1
6.914051167E0,9.136686567E-4,-1.446552575E-3,-2.833747268E-1,2.833798918E-1
6.924007167E0,3.810513066E-3,-7.443288341E-4,-3.014751077E-1,3.015001071E-1
6.933963167E0,-2.018347383E-3,7.592421025E-5,-3.078717589E-1,3.078783842E-1
6.943919167E0,1.683279639E-3,2.595336176E-3,-3.003750145E-1,3.003909429E-1
6.953875167E0,2.129092813E-3,-9.868815541E-4,-2.887798846E-1,2.887894193E-1
6.963830167E0,3.780657426E-3,1.962017268E-5,-2.762440145E-1,2.762698849E-1
6.973786167E0,1.934554195E-3,3.706244752E-4,-2.654089332E-1,2.654162423E-1
6.983742167E0,2.921293955E-3,-2.536847256E-3,-2.710563540E-1,2.710839660E-1
6.993698167E0,1.385715441E-3,6.080800667E-4,-2.867543697E-1,2.867583626E-1
7.003654167E0,3.836309072E-3,-8.583441377E-4,-2.979903519E-1,2.980162812E-1
7.013609167E0,1.932947664E-3,-1.206952147E-3,-3.030165434E-1,3.030251121E-1
7.023565167E0,3.750104923E-3,2.827001736E-4,-2.919076681E-1,2.919318926E-1
7.033521167E0,3.000957659E-3,-1.862742938E-3,-2.791042626E-1,2.791266110E-1
7.043477167E0,4.263008013E-3,-1.183886081E-3,-2.667756677E-1,2.668123529E-1
7.053433167E0,3.281367011E-3,-1.785759814E-3,-2.769550681E-1,2.769802629E-1
7.063388167E0,3.327866318E-3,-1.293969341E-3,-2.880434394E-1,2.880655690E-1
7.073344167E0,1.362986164E-3,2.020866610E-3,-3.007049263E-1,3.007148056E-1
7.083300167E0,3.941692878E-3,9.828982875E-4,-2.957853377E-1,2.958132333E-1
7.093256167E0,1.992791891E-3,-2.635538578E-3,-2.847777009E-1,2.847968683E-1
7.103212167E0,3.425315488E-3,4.845680669E-4,-2.745672464E-1,2.745890391E-1
7.113167167E0,2.892683260E-3,-1.040358096E-3,-2.747978568E-1,2.748150507E-1
7.123123167E0,4.109668080E-3,-3.551163711E-3,-2.836401463E-1,2.836921442E-1
7.133079167E0,3.598873969E-3,-5.995817482E-4,-2.950280905E-1,2.950506491E-1
7.143035167E0,3.533362411E-3,-3.855777904E-4,-2.966269553E-1,2.966482495E-1
7.152991167E0,3.534427844E-3,1.294780523E-4,-2.930724323E-1,2.930937725E-1
7.162947167E0,3.016509349E-3,9.031184018E-4,-2.899477482E-1,2.899648455E-1
7.172902167E0,4.567001481E-3,9.079119191E-4,-2.820770442E-1,2.821154741E-1
7.182858167E0,2.879027277E-3,-9.782239795E-4,-2.835813165E-1,2.835976177E-1
7.192815042E0,4.630587995E-3,-1.397672109E-3,-2.781090736E-1,2.781511328E-1
7.202771042E0,4.804043565E-3,-2.039440908E-3,-2.811870277E-1,2.812354578E-1
7.212727042E0,1.795736840E-3,-3.363499418E-4,-2.843694985E-1,2.843753672E-1
7.222682042E0,1.536719035E-3,-2.794916742E-3,-2.911022604E-1,2.911197332E-1
7.232638042E0,1.677600318E-3,-1.358407550E-3,-2.904399335E-1,2.904479551E-1
7.242594042E0,2.195353154E-3,4.354864359E-5,-2.913507521E-1,2.913590263E-1
7.252550042E0,2.142277954E-4,9.974930435E-4,-2.850574255E-1,2.850592512E-1
7.262506042E0,1.503186999E-3,6.980355829E-4,-2.821188867E-1,2.821237549E-1
7.272461042E0,3.137036460E-3,-2.708230168E-4,-2.782767415E-1,2.782945548E-1
7.282417042E0,1.707452815E-3,-2.524530515E-3,-2.871216238E-1,2.871377988E-1
7.292373042E0,1.220729901E-4,3.021489829E-4,-3.004278243E-1,3.004280010E-1
7.302329042E0,1.955583692E-3,1.568616368E-3,-3.021967709E-1,3.022071694E-1
7.312285042E0,4.089841153E-3,-2.023857087E-4,-2.965911031E-1,2.966193692E-1
7.322240042E0,2.535968786E-3,-1.058997586E-4,-2.835370004E-1,2.835483609E-1
7.332196042E0,1.728764619E-3,5.532326177E-4,-2.722534537E-1,2.722595044E-1
7.342152042E0,2.993770409E-3,-4.615802318E-4,-2.648699582E-1,2.648872788E-1
7.352108042E0,3.976210952E-3,-1.982244663E-3,-2.751100659E-1,2.751459393E-1
7.362064042E0,2.673695795E-3,4.135714844E-4,-2.912683487E-1,2.912809136E-1
7.372019042E0,3.571979702E-3,-2.212170511E-5,-3.059351742E-1,3.059560268E-1
7.381975042E0,-2.075214870E-3,1.727796160E-3,-3.032240570E-1,3.032360805E-1
7.391931042E0,6.111874711E-3,4.401579499E-4,-2.915764749E-1,2.916408570E-1
7.401887042E0,1.946008997E-3,-1.837179065E-3,-2.799158394E-1,2.799286326E-1
7.411843042E0,2.117782831E-3,-2.097370103E-3,-2.720765471E-1,2.720928729E-1
7.421799042E0,3.467654344E-3,-2.261720598E-3,-2.798998356E-1,2.799304520E-1
7.431754042E0,8.433754556E-4,-1.337603666E-3,-2.900605798E-1,2.900648900E-1
7.441710042E0,2.934846096E-3,-9.047789499E-4,-2.982241809E-1,2.982399940E-1
7.451666042E0,-5.123496521E-4,7.375925779E-4,-2.964510620E-1,2.964524223E-1
7.461622042E0,3.825501073E-3,-2.258523367E-3,-2.829113603E-1,2.829462372E-1
7.471578042E0,4.501678050E-3,5.638953298E-4,-2.762531936E-1,2.762904451E-1
7.481533042E0,1.982297748E-3,-2.296056598E-3,-2.739494443E-1,2.739662377E-1
7.491489042E0,-7.685850142E-5,-2.228146419E-3,-2.777340710E-1,2.777430193E-1
7.501445042E0,2.403792460E-3,-9.944885969E-4,-2.827561498E-1,2.827681161E-1
7.511401042E0,1.508704154E-3,-5.673179403E-4,-2.939691246E-1,2.939735434E-1
7.521357042E0,2.605181187E-3,-6.007310003E-4,-2.931353152E-1,2.931475070E-1
7.531312042E0,2.512502950E-3,2.334604971E-3,-2.898721397E-1,2.898924291E-1
7.541268042E0,5.796328187E-4,-1.674943604E-3,-2.809765339E-1,2.809821240E-1
7.551224042E0,4.463320598E-3,-2.637144178E-3,-2.805757523E-1,2.806236421E-1
7.561180042E0,3.636195324E-3,9.108614177E-5,-2.810602784E-1,2.810838137E-1
7.571136042E0,3.553370945E-3,-3.888150677E-4,-2.856217623E-1,2.856441295E-1
7.581092042E0,4.735855851E-3,-2.833642066E-5,-2.837559879E-1,2.837955070E-1
7.591047042E0,2.306253882E-3,-1.265641302E-3,-2.839019299E-1,2.839141181E-1
7.601003042E0,3.181994427E-3,-1.606118865E-3,-2.844544053E-1,2.844767361E-1
7.610959042E0,2.756687580E-3,-2.045806497E-3,-2.833957970E-1,2.834165881E-1
7.620915042E0,3.923018929E-3,1.109351404E-3,-2.856504023E-1,2.856794936E-1
7.630871042E0,2.821535105E-3,2.126945183E-3,-2.899487317E-1,2.899702605E-1
7.640826042E0,1.874871319E-3,2.285363153E-4,-2.896203995E-1,2.896265581E-1
7.650782042E0,2.494588960E-3,-2.499669790E-5,-2.858565450E-1,2.858674306E-1
7.660738042E0,-5.765267415E-4,-3.518080339E-4,-2.840739787E-1,2.840747815E-1
7.670694042E0,2.218460664E-3,5.491394550E-4,-2.827423811E-1,2.827516175E-1
7.680650042E0,3.063045209E-3,-1.999693923E-3,-2.852448225E-1,2.852682769E-1
7.690605042E0,-4.166798317E-5,-1.177042723E-3,-2.881098390E-1,2.881122463E-1
7.700561042E0,2.742483979E-3,-1.131841913E-3,-2.878246009E-1,2.878398916E-1
7.710517042E0,3.638371360E-3,1.552091911E-3,-2.873582840E-1,2.873855078E-1
7.720473042E0,1.697075902E-3,-4.501808435E-4,-2.823284566E-1,2.823339161E-1
7.730429042E0,2.297618659E-3,-2.271249890E-3,-2.845846713E-1,2.846030090E-1
7.740384042E0,-9.080014424E-4,1.014726236E-3,-2.899909317E-1,2.899941286E-1
7.750340042E0,1.143860427E-4,-2.018081024E-3,-2.937987149E-1,2.938056681E-1
7.760296042E0,3.163151443E-3,-2.529606223E-3,-2.903023362E-1,2.903305889E-1
7.770252042E0,4.925631452E-3,-2.730408683E-3,-2.872335911E-1,2.872887969E-1
7.780208042E0,1.403400907E-3,-3.251712769E-4,-2.865233123E-1,2.865269338E-1
7.790164042E0,1.575742062E-4,5.850968882E-4,-2.847895920E-1,2.847902367E-1
7.800119042E0,2.783768345E-3,-1.862803474E-4,-2.828404009E-1,2.828541611E-1
7.810075042E0,3.590173554E-3,-1.816401258E-3,-2.858580351E-1,2.858863496E-1
7.820031042E0,1.079280395E-3,-1.427276991E-3,-2.860710025E-1,2.860765989E-1
7.829987042E0,1.170360483E-3,-4.467004910E-4,-2.869021595E-1,2.869048943E-1
7.839943042E0,3.180704545E-3,-1.144604757E-3,-2.847113609E-1,2.847314279E-1
7.849898042E0,5.867834203E-3,-1.440481283E-3,-2.828814983E-1,2.829460171E-1
7.859854042E0,-2.103541512E-3,-4.059281200E-4,-2.842189670E-1,2.842270410E-1
7.869810042E0,8.373873425E-4,-3.220357001E-3,-2.902044356E-1,2.902235110E-1
7.879766042E0,5.277858581E-4,-1.859096810E-4,-2.941907942E-1,2.941913264E-1
7.889722042E0,2.527819714E-3,7.469961420E-4,-2.930972874E-1,2.931091397E-1
7.899677042E0,2.583520953E-3,1.534298062E-4,-2.919253409E-1,2.919368130E-1
7.909633042E0,1.682573697E-3,-3.794692457E-4,-2.854823470E-1,2.854875575E-1
7.919589042E0,2.083844272E-3,5.465606228E-4,-2.795920670E-1,2.796003667E-1
7.929545042E0,1.803413499E-3,-5.664490163E-5,-2.768450081E-1,2.768508877E-1
7.939501042E0,1.178679173E-3,-2.804333344E-4,-2.810788453E-1,2.810814565E-1
7.949456042E0,4.559296183E-3,-5.211839452E-4,-2.810175717E-1,2.810550380E-1
7.959412042E0,4.527746234E-3,-2.061803825E-3,-2.822523117E-1,2.822961547E-1
7.969368042E0,2.490694402E-3,-3.274341114E-3,-2.828195691E-1,2.828494892E-1
7.979324042E0,1.173739904E-3,-1.268634573E-3,-2.880458534E-1,2.880510384E-1
7.989280042E0,2.762049204E-3,-3.059022129E-4,-2.900759578E-1,2.900892686E-1
7.999235042E0,2.202557866E-3,-3.185467795E-4,-2.890705466E-1,2.890791132E-1
8.009191042E0,3.723755479E-3,-9.457487613E-5,-2.891879976E-1,2.892119867E-1
8.019147042E0,-3.438927233E-4,7.125539705E-4,-2.859026790E-1,2.859037737E-1
8.029103042E0,4.483976518E-4,5.892496556E-4,-2.847609818E-1,2.847619445E-1
8.039059042E0,4.535291344E-3,-4.422124475E-4,-2.864027321E-1,2.864389802E-1
8.049015042E0,4.060450010E-3,-4.233038053E-4,-2.887415290E-1,2.887703880E-1
8.058970042E0,1.901450567E-3,1.040780917E-4,-2.913806140E-1,2.913868367E-1
8.068926042E0,3.329970175E-3,1.721415669E-3,-2.890208066E-1,2.890451152E-1
8.078882042E0,2.937796991E-3,2.346970141E-4,-2.851275504E-1,2.851427813E-1
8.088838042E0,1.408343669E-3,-1.235368662E-3,-2.878698111E-1,2.878759067E-1
8.098794042E0,8.132940275E-4,2.359691076E-3,-2.879469991E-1,2.879578161E-1
8.108749042E0,2.239949536E-3,4.552640021E-4,-2.862886488E-1,2.862977735E-1
8.118705042E0,2.206698526E-3,-1.961386763E-3,-2.839008868E-1,2.839162378E-1
8.128661042E0,4.620321095E-3,-2.194130793E-4,-2.857981026E-1,2.858355313E-1
8.138617042E0,3.654509783E-3,-2.319877967E-3,-2.875224054E-1,2.875549876E-1
8.148573042E0,1.218782738E-3,-1.544365659E-3,-2.906343341E-1,2.906409927E-1
8.158528042E0,8.981790743E-4,2.729649656E-3,-2.881549299E-1,2.881692581E-1
8.168484042E0,2.119504847E-3,1.632693224E-3,-2.864001691E-1,2.864126653E-1
8.178440042E0,3.757757600E-3,1.806212589E-3,-2.828068733E-1,2.828376049E-1
8.188396042E0,2.094347030E-3,-1.289179549E-3,-2.775186300E-1,2.775295269E-1
8.198350625E0,4.499674309E-3,-1.401519403E-3,-2.772516608E-1,2.772917142E-1
8.208306625E0,4.459194373E-3,-1.310706139E-3,-2.800836861E-1,2.801222476E-1
8.218261625E0,3.719573142E-4,-1.310304739E-3,-2.892812788E-1,2.892844855E-1
8.228217625E0,4.233563086E-4,5.824035034E-4,-2.984518707E-1,2.984527392E-1
8.238173625E0,4.068106413E-3,-8.448353037E-4,-3.011301458E-1,3.011588085E-1
8.248129625E0,1.610541251E-3,1.821788028E-3,-2.967742682E-1,2.967842297E-1
8.258085625E0,4.653289448E-3,-1.111468300E-4,-2.873426378E-1,2.873803350E-1
8.268040625E0,1.004758989E-3,-1.518627629E-3,-2.824906409E-1,2.824965096E-1
8.277996625E0,4.913163837E-3,-1.396112144E-3,-2.784554958E-1,2.785023366E-1
8.287952625E0,3.554419149E-3,-1.507432200E-3,-2.855424583E-1,2.855685587E-1
8.297908625E0,5.774579011E-3,4.463493824E-4,-2.939331234E-1,2.939901801E-1
8.307864625E0,2.002211288E-3,-6.767055020E-4,-2.938614786E-1,2.938690786E-1
8.317819625E0,4.814476706E-3,-6.874743849E-4,-2.899245322E-1,2.899653189E-1
8.327775625E0,4.427785985E-3,-2.842722461E-4,-2.796836197E-1,2.797188110E-1
8.337731625E0,2.960205777E-3,-2.234194428E-3,-2.737062275E-1,2.737313527E-1
8.347687625E0,8.802769589E-4,-1.481852494E-3,-2.692915201E-1,2.692970360E-1
8.357643625E0,1.246865024E-3,-5.108267069E-4,-2.776803672E-1,2.776836365E-1
8.367598625E0,1.194667071E-3,3.070300445E-4,-2.878080904E-1,2.878107337E-1
8.377554625E0,-1.692363760E-3,1.409501769E-3,-2.983884215E-1,2.983965497E-1
8.387510625E0,2.606510650E-3,1.339993440E-3,-3.000835180E-1,3.000978295E-1
8.397466625E0,1.227802364E-3,-1.273257658E-4,-2.950132787E-1,2.950158612E-1
8.407422625E0,4.165535327E-3,-6.178803742E-4,-2.871255279E-1,2.871564072E-1
8.417378625E0,1.962598413E-3,-1.193787903E-3,-2.797343731E-1,2.797438050E-1
8.427333625E0,3.698180430E-3,-1.367160119E-3,-2.784893215E-1,2.785172308E-1
8.437289625E0,4.623375833E-3,1.607647166E-3,-2.890388072E-1,2.890802521E-1
8.447245625E0,2.068871632E-3,7.792748511E-5,-2.934617996E-1,2.934691025E-1
8.457201625E0,2.213713014E-3,1.501003280E-3,-2.949708402E-1,2.949829658E-1
8.467157625E0,-5.394628388E-4,-2.953932621E-3,-2.885355651E-1,2.885511897E-1
8.477112625E0,1.269239117E-3,-1.167933457E-3,-2.822534442E-1,2.822587143E-1
8.487068625E0,3.251696238E-3,-2.571418881E-3,-2.795979977E-1,2.796287289E-1
8.497024625E0,2.232285682E-3,-1.007959247E-3,-2.779149115E-1,2.779257043E-1
8.506980625E0,2.286614152E-3,-2.644043416E-4,-2.863667309E-1,2.863759821E-1
8.516936625E0,2.438582014E-3,2.839146182E-3,-2.948587239E-1,2.948824757E-1
8.526892625E0,3.738737199E-3,-7.721008733E-4,-2.961133420E-1,2.961379503E-1
8.536847625E0,2.947933739E-3,6.591798738E-4,-2.893836200E-1,2.893993856E-1
8.546803625E0,1.749511342E-3,-1.119279303E-3,-2.800388336E-1,2.800465353E-1
8.556759625E0,1.153952908E-3,-1.993676648E-3,-2.806834579E-1,2.806929103E-1
8.566715625E0,1.748104114E-3,-2.536427230E-3,-2.784274817E-1,2.784445221E-1
8.576671625E0,1.926499885E-3,-2.183887176E-3,-2.837666869E-1,2.837816297E-1
8.586626625E0,1.671368955E-3,-1.172950491E-3,-2.913713455E-1,2.913785000E-1
8.596582625E0,2.389021218E-3,-1.291778870E-3,-2.950408161E-1,2.950533160E-1
8.606538625E0,1.626025420E-3,5.330191925E-4,-2.910580635E-1,2.910630935E-1
8.616494625E0,2.878646366E-3,-2.988445573E-3,-2.861672342E-1,2.861973154E-1
8.626450625E0,2.282364527E-3,-3.306959756E-3,-2.816145718E-1,2.816432357E-1
8.636405625E0,2.513529500E-3,3.287314437E-3,-2.861776352E-1,2.862075526E-1
8.646361625E0,3.210745053E-3,1.024398953E-4,-2.924224734E-1,2.924401175E-1
8.656317625E0,1.619507908E-3,-6.551379338E-4,-2.931761146E-1,2.931813196E-1
8.666273625E0,4.535760381E-4,1.769936644E-3,-2.920341790E-1,2.920398947E-1
8.676229625E0,4.208308645E-3,2.669431269E-3,-2.866756320E-1,2.867189455E-1
8.686184625E0,2.302017994E-3,-7.567256689E-4,-2.783684134E-1,2.783789603E-1
8.696140625E0,3.151282202E-3,-1.444648951E-3,-2.790738940E-1,2.790954244E-1
8.706096625E0,2.437288873E-3,-1.100301743E-3,-2.876546085E-1,2.876670381E-1
8.716052625E0,2.441312652E-3,-3.016609699E-4,-2.930347323E-1,2.930450569E-1
8.726008625E0,4.231223371E-3,-1.647889614E-3,-2.911087275E-1,2.911441395E-1
8.735964625E0,7.227949682E-4,-2.935439348E-3,-2.903548181E-1,2.903705557E-1
8.745919625E0,1.973947976E-3,-8.011823520E-4,-2.889316082E-1,2.889394618E-1
8.755875625E0,2.236576285E-3,-7.995404303E-5,-2.850640714E-1,2.850728564E-1
8.765831625E0,2.355619567E-3,-1.034963876E-3,-2.829719186E-1,2.829836158E-1
8.775787625E0,2.496867091E-5,-1.630024053E-3,-2.817689180E-1,2.817736339E-1