"Time (s)","Gyroscope x (rad/s)","Gyroscope y (rad/s)","Gyroscope z (rad/s)","Absolute (rad/s)"
4.050416668E-3,3.367083613E-3,1.873513684E-3,-1.203578711E-1,1.204195351E-1
1.400641667E-2,1.730038435E-3,3.533810377E-4,-1.183834001E-1,1.183965681E-1
2.396341667E-2,3.031466622E-4,-2.180796117E-3,-1.114298627E-1,1.114516131E-1
3.392041667E-2,9.154074360E-4,-1.385043375E-3,-1.043162942E-1,1.043295047E-1
4.387741667E-2,7.823646301E-4,-1.857886091E-4,-9.676385671E-2,9.676719784E-2
5.383441667E-2,3.110233694E-3,-3.472927958E-3,-9.141383320E-2,9.153263725E-2
6.379041667E-2,-1.702139387E-3,-9.426912293E-4,-8.564726263E-2,8.566936174E-2
7.374741667E-2,8.510332555E-4,-3.858853132E-3,-8.148660511E-2,8.158236217E-2
8.370441667E-2,-1.134367194E-3,-2.884773538E-3,-9.297292680E-2,9.302458720E-2
9.366141667E-2,3.951471299E-3,-9.009847417E-4,-1.195190474E-1,1.195877444E-1
1.036184167E-1,-7.712617517E-4,1.367665827E-4,-1.392316669E-1,1.392338702E-1
1.135744167E-1,1.044747652E-3,5.607306957E-5,-1.435292065E-1,1.435330198E-1
1.235314167E-1,1.360074151E-3,3.138548695E-3,-1.303977072E-1,1.304425634E-1
1.334884167E-1,2.869287506E-3,-6.789714098E-5,-1.226726696E-1,1.227062398E-1
1.434454167E-1,2.501323353E-3,-5.027884617E-4,-1.161839291E-1,1.162119392E-1
1.534014167E-1,-8.567119949E-5,-1.261256635E-3,-1.115068793E-1,1.115140451E-1
1.633584167E-1,3.275447059E-3,-3.603008576E-3,-1.116823852E-1,1.117884850E-1
1.733154167E-1,-6.119692698E-4,-3.149206750E-3,-1.285287440E-1,1.285687755E-1
1.832724167E-1,2.526060212E-3,-2.699227072E-3,-1.477502137E-1,1.477964562E-1
1.932294167E-1,-1.377335051E-3,2.476627007E-3,-1.588523984E-1,1.588776737E-1
2.031854167E-1,2.235238906E-3,1.077940688E-4,-1.565084606E-1,1.565244587E-1
2.131424167E-1,-4.007578827E-4,-6.554676220E-4,-1.502697468E-1,1.502717107E-1
2.230994167E-1,2.928414382E-3,-2.499157563E-3,-1.409615129E-1,1.410140756E-1
2.330564167E-1,-1.065013930E-5,-4.738609307E-3,-1.357582361E-1,1.358409113E-1
2.430134167E-1,7.557669887E-4,-3.594953567E-3,-1.390163749E-1,1.390649035E-1
2.529694167E-1,1.399453031E-3,-2.049521543E-3,-1.493558288E-1,1.493764459E-1
2.629264167E-1,5.185494665E-4,-1.657154411E-3,-1.663166583E-1,1.663257222E-1
2.728834167E-1,-8.806753904E-4,6.922855973E-4,-1.753943115E-1,1.753978887E-1
2.828404167E-1,2.224821597E-3,1.886112615E-3,-1.763963848E-1,1.764204972E-1
2.927974167E-1,2.959055128E-3,-1.777864061E-3,-1.716522276E-1,1.716869362E-1
3.027534167E-1,4.435913637E-3,-1.846256666E-3,-1.615076810E-1,1.615791355E-1
3.127104167E-1,4.517673049E-3,-3.742161207E-3,-1.602559984E-1,1.603633317E-1
3.226674167E-1,1.254287781E-3,-4.076350480E-3,-1.650661081E-1,1.651211977E-1
3.326244167E-1,2.653246280E-3,-3.583398648E-3,-1.800282747E-1,1.800834810E-1
3.425804167E-1,1.716823783E-3,3.810869530E-4,-1.891910583E-1,1.891992316E-1
3.525374167E-1,2.623097505E-3,3.517922014E-4,-1.917034835E-1,1.917217514E-1
3.624944167E-1,5.591384834E-4,-1.569380052E-3,-1.867190897E-1,1.867265221E-1
3.724514167E-1,2.028670860E-3,-2.546760254E-3,-1.784577072E-1,1.784874078E-1
3.824084167E-1,1.995062456E-3,-2.291048877E-3,-1.701657325E-1,1.701928485E-1
3.923644167E-1,1.454973361E-3,-2.465406433E-4,-1.664303839E-1,1.664369263E-1
4.023214167E-1,4.707344808E-3,-1.259167679E-3,-1.725349128E-1,1.726037101E-1
4.122784167E-1,1.014339272E-3,-1.126808114E-3,-1.815579683E-1,1.815642983E-1
4.222354167E-1,4.113464383E-4,-6.217584014E-4,-1.866720319E-1,1.866735206E-1
4.321924167E-1,4.837843589E-4,-2.839905210E-3,-1.883239895E-1,1.883460223E-1
4.421484167E-1,1.758856699E-3,-1.927543432E-3,-1.851260215E-1,1.851444108E-1
4.521054167E-1,-5.831271410E-4,1.574456692E-4,-1.807864010E-1,1.807874100E-1
4.620624167E-1,2.013631631E-3,1.341970637E-4,-1.753823310E-1,1.753939416E-1
4.720194167E-1,-2.045151778E-4,-4.954039119E-3,-1.739056110E-1,1.739762796E-1
4.819754167E-1,3.051950596E-3,-2.916117199E-3,-1.775918007E-1,1.776419596E-1
4.919324167E-1,9.650976863E-4,-3.028236330E-3,-1.835445017E-1,1.835720178E-1
5.018894167E-1,-3.224292304E-4,-3.719571047E-3,-1.889989674E-1,1.890358401E-1
5.118464167E-1,2.449655207E-3,-2.326738089E-3,-1.920125932E-1,1.920423142E-1
5.218034167E-1,2.711676294E-3,-3.513424657E-3,-1.873319298E-1,1.873844958E-1
5.317594167E-1,3.710240126E-4,-1.553870738E-3,-1.779179275E-1,1.779250997E-1
5.417164167E-1,1.025085454E-3,-2.968374640E-3,-1.722985506E-1,1.723271673E-1
5.516734167E-1,1.288738335E-3,-5.234457552E-3,-1.698958427E-1,1.699813453E-1
5.616304167E-1,3.424305934E-3,-3.461721353E-3,-1.739763170E-1,1.740444434E-1
5.715874167E-1,1.255693845E-3,-2.301648259E-3,-1.850856841E-1,1.851042539E-1
5.815434167E-1,1.151304459E-3,-1.593801193E-3,-1.911608726E-1,1.911709834E-1
5.915004167E-1,4.240571521E-3,-2.911266871E-3,-1.925372034E-1,1.926058998E-1
6.014574167E-1,8.784879465E-4,-8.470285684E-4,-1.819767505E-1,1.819808422E-1
6.114144167E-1,2.462003613E-3,-2.088860609E-3,-1.744077802E-1,1.744376639E-1
6.213704167E-1,3.239812562E-3,-1.634578221E-3,-1.677242815E-1,1.677635325E-1
6.313274167E-1,1.619545394E-3,-3.060966730E-3,-1.710774601E-1,1.711125062E-1
6.412844167E-1,3.759584390E-3,-3.279248253E-3,-1.824380010E-1,1.825061976E-1
6.512414167E-1,1.035170513E-3,-2.109055407E-3,-1.902405322E-1,1.902550387E-1
6.611984167E-1,2.799123060E-3,-2.222510055E-3,-1.918266118E-1,1.918599062E-1
6.711544167E-1,1.090172678E-3,-2.570585348E-3,-1.855476797E-1,1.855686876E-1
6.811114167E-1,1.281907316E-3,-3.368780948E-3,-1.767041683E-1,1.767409264E-1
6.910684167E-1,2.140510362E-3,-2.007372677E-3,-1.753044128E-1,1.753289722E-1
7.010254167E-1,4.615024664E-3,-3.558556549E-3,-1.769170314E-1,1.770129876E-1
7.109824167E-1,2.053330420E-3,-3.846178763E-3,-1.838625520E-1,1.839142390E-1
7.209384167E-1,1.520072576E-3,-1.548142172E-3,-1.874011010E-1,1.874136602E-1
7.308954167E-1,2.423683181E-3,2.356432378E-4,-1.901540160E-1,1.901696074E-1
7.408524167E-1,7.866419619E-4,-2.069418319E-3,-1.861055791E-1,1.861187467E-1
7.508094167E-1,1.679333509E-3,-4.254009575E-3,-1.794807017E-1,1.795389624E-1
7.607654167E-1,-3.264767583E-4,-2.438634634E-3,-1.754175425E-1,1.754347962E-1
7.707224167E-1,-1.650892664E-4,-1.058850437E-3,-1.705495566E-1,1.705529234E-1
7.806794167E-1,2.516263165E-3,-1.449799165E-4,-1.731685102E-1,1.731868515E-1
7.906364167E-1,-1.134664519E-3,-3.726799041E-4,-1.751650870E-1,1.751691584E-1
8.005934167E-1,2.355340635E-3,3.164587542E-4,-1.829054654E-1,1.829209038E-1
8.105494167E-1,1.133482205E-3,-3.530743532E-3,-1.843283921E-1,1.843656885E-1
8.205064167E-1,1.103348797E-3,-2.286505885E-3,-1.856817603E-1,1.856991158E-1
8.304634167E-1,1.227452070E-3,-1.589822583E-3,-1.838556379E-1,1.838666086E-1
8.404204167E-1,5.037811352E-4,-2.376593649E-3,-1.786479354E-1,1.786644531E-1
8.503774167E-1,1.222568331E-3,-1.843960956E-3,-1.725317240E-1,1.725459088E-1
8.603334167E-1,2.082917839E-3,-2.721872181E-3,-1.708076149E-1,1.708419985E-1
8.702904167E-1,-2.958176192E-4,-4.930963740E-3,-1.778151840E-1,1.778837867E-1
8.802474167E-1,1.430246863E-3,-6.609540433E-4,-1.862947196E-1,1.863013822E-1
8.902044167E-1,2.854771679E-3,5.383882672E-5,-1.915619224E-1,1.915832006E-1
9.001604167E-1,9.093345143E-4,-4.597175866E-4,-1.898480356E-1,1.898507699E-1
9.101174167E-1,1.122653717E-3,-1.917798072E-3,-1.847507358E-1,1.847641000E-1
9.200744167E-1,1.091029495E-3,-1.218719408E-3,-1.734448373E-1,1.734525503E-1
9.300314167E-1,-1.414472470E-3,-7.547968999E-4,-1.718706340E-1,1.718781117E-1
9.399884167E-1,1.712100580E-3,-1.243585721E-4,-1.761405766E-1,1.761489412E-1
9.499444167E-1,4.241958959E-4,-4.772907123E-3,-1.795616746E-1,1.796255983E-1
9.599014167E-1,3.628619947E-3,-2.250514925E-3,-1.902190596E-1,1.902669765E-1
9.698584167E-1,3.677355591E-3,-1.459555700E-3,-1.889021248E-1,1.889435524E-1
9.798154167E-1,-1.556457719E-3,-1.465783454E-3,-1.820455790E-1,1.820581333E-1
9.897714167E-1,1.599388197E-3,-7.531214505E-4,-1.751951277E-1,1.752040468E-1
9.997284167E-1,1.770545612E-3,-5.175108090E-4,-1.720321029E-1,1.720419922E-1
1.009685417E0,1.169470139E-3,-1.144419424E-3,-1.747751534E-1,1.747828127E-1
1.019642417E0,3.190744203E-3,-7.869740948E-4,-1.841580421E-1,1.841873629E-1
1.029599417E0,-7.134496700E-4,-2.239196561E-3,-1.862592697E-1,1.862740953E-1
1.039555417E0,1.555954339E-3,-1.370358281E-3,-1.851916760E-1,1.852032822E-1
1.049512417E0,1.690177713E-3,-8.321329951E-4,-1.844172329E-1,1.844268552E-1
1.059469417E0,2.106467960E-3,-3.624854609E-3,-1.803686321E-1,1.804173501E-1
1.069426417E0,1.868114923E-3,-1.676486805E-3,-1.776447594E-1,1.776624918E-1
1.079383417E0,1.151681179E-3,-2.969555557E-3,-1.776125431E-1,1.776410991E-1
1.089339417E0,3.056640271E-3,-2.557298169E-3,-1.816624105E-1,1.817061205E-1
1.099296417E0,4.349222872E-3,-2.709344961E-3,-1.825272441E-1,1.825991542E-1
1.109253417E0,3.590221750E-3,-1.907935366E-4,-1.840164959E-1,1.840516147E-1
1.119210417E0,2.963790204E-3,-2.043887042E-3,-1.842179894E-1,1.842531659E-1
1.129166417E0,7.405832876E-4,-4.600788467E-3,-1.827188879E-1,1.827783021E-1
1.139123417E0,-1.275788876E-3,-2.858774737E-3,-1.808644980E-1,1.808915887E-1
1.149080417E0,1.388170989E-3,-1.683255658E-3,-1.780759096E-1,1.780892752E-1
1.159037417E0,9.312845068E-4,-8.808160201E-4,-1.753568202E-1,1.753615053E-1
1.168994417E0,3.267469583E-4,-2.641964704E-3,-1.748361737E-1,1.748564393E-1
1.178950417E0,1.989784185E-3,-1.179324463E-3,-1.819612980E-1,1.819759985E-1
1.188907417E0,1.656356500E-3,-3.238480538E-3,-1.887100190E-1,1.887450729E-1
1.198864417E0,1.079326728E-3,3.541596234E-4,-1.894054711E-1,1.894088774E-1
1.208821417E0,5.871746689E-4,-1.074892469E-3,-1.892113239E-1,1.892152881E-1
1.218777417E0,3.351771738E-5,-1.145892777E-3,-1.797290146E-1,1.797326706E-1
1.228734417E0,2.806667471E-3,-3.307314590E-3,-1.737382263E-1,1.737923675E-1
1.238691417E0,3.671153914E-3,-4.187536426E-3,-1.732949317E-1,1.733843885E-1
1.248648417E0,2.241302747E-3,-3.683664836E-3,-1.763250679E-1,1.763777831E-1
1.258605417E0,2.696210286E-3,-1.752562821E-4,-1.886932850E-1,1.887126283E-1
1.268561417E0,1.019217772E-3,-1.256234013E-3,-1.925761700E-1,1.925829644E-1
1.278518417E0,1.435343060E-3,-7.405923679E-4,-1.892325729E-1,1.892394656E-1
1.288475417E0,5.354983732E-3,-1.282545738E-3,-1.844047904E-1,1.844869846E-1
1.298432417E0,3.598815296E-3,-3.442004323E-3,-1.739132255E-1,1.739845076E-1
1.308388417E0,9.873196250E-4,-4.236426204E-3,-1.735648811E-1,1.736193827E-1
1.318345417E0,1.590779051E-3,-2.553715371E-3,-1.793770045E-1,1.794022346E-1
1.328302417E0,2.056832192E-3,-3.212581389E-3,-1.813333482E-1,1.813734666E-1
1.338259417E0,-5.987691693E-4,1.491811126E-4,-1.879023015E-1,1.879033148E-1
1.348216417E0,1.188478083E-3,-3.049541265E-3,-1.854026616E-1,1.854315483E-1
1.358172417E0,4.656200763E-3,-2.828183584E-3,-1.796729267E-1,1.797554990E-1
1.368129417E0,2.708364744E-3,-3.680129535E-3,-1.754262596E-1,1.754857577E-1
1.378086417E0,-4.830933176E-4,-7.471917197E-4,-1.751073897E-1,1.751096502E-1
1.388043417E0,1.555822790E-3,-2.277975902E-3,-1.751228273E-1,1.751445529E-1
1.397999417E0,8.301587077E-4,-6.325049326E-4,-1.792105436E-1,1.792135826E-1
1.407956417E0,1.867459971E-3,-2.291121520E-3,-1.816489398E-1,1.816729864E-1
1.417913417E0,3.011832014E-3,-2.558697015E-4,-1.843967587E-1,1.844215313E-1
1.427870417E0,2.068540547E-3,-1.260147430E-3,-1.864838749E-1,1.864996044E-1
1.437827417E0,9.804815054E-4,-5.622226745E-4,-1.841271222E-1,1.841305910E-1
1.447783500E0,1.541609643E-3,-1.791537739E-3,-1.787619144E-1,1.787775383E-1
1.457740500E0,1.116444822E-3,-2.830068581E-3,-1.753462404E-1,1.753726312E-1
1.467697500E0,1.019505668E-3,-3.856983036E-3,-1.762597114E-1,1.763048541E-1
1.477654500E0,1.993723214E-3,-2.507932484E-3,-1.859579533E-1,1.859855507E-1
1.487610500E0,4.450950073E-4,-5.049686879E-4,-1.912278086E-1,1.912289933E-1
1.497567500E0,2.367614070E-4,-7.182527333E-4,-1.882003993E-1,1.882019188E-1
1.507524500E0,2.092185663E-3,-1.478851773E-3,-1.830157638E-1,1.830336964E-1
1.517481500E0,2.458792645E-3,-2.169553190E-3,-1.729522347E-1,1.729833175E-1
1.527438500E0,2.331760013E-3,-2.486202866E-3,-1.681771874E-1,1.682117258E-1
1.537394500E0,4.222969990E-3,-2.355544828E-3,-1.759247929E-1,1.759912351E-1
1.547351500E0,4.532652674E-4,-3.435988910E-3,-1.862759590E-1,1.863081973E-1
1.557308500E0,5.681801122E-5,1.951320097E-3,-1.936091632E-1,1.936190046E-1
1.567265500E0,4.613521742E-4,-1.093205065E-3,-1.880591363E-1,1.880628796E-1
1.577221500E0,1.243172679E-3,6.725527346E-4,-1.825837791E-1,1.825892499E-1
1.587178500E0,3.458656371E-3,-2.658795565E-3,-1.758704931E-1,1.759245913E-1
1.597135500E0,8.745701634E-4,9.379815310E-5,-1.754294038E-1,1.754316088E-1
1.607092500E0,1.520653022E-3,-4.281775095E-3,-1.766115874E-1,1.766700280E-1
1.617048500E0,3.798842663E-4,-1.705153845E-3,-1.811097860E-1,1.811182113E-1
1.627005500E0,6.837509573E-4,-1.615405083E-3,-1.871114820E-1,1.871197043E-1
1.636962500E0,6.563272327E-4,3.673434258E-4,-1.862689257E-1,1.862704442E-1
1.646919500E0,-1.488049980E-3,-3.256153315E-3,-1.805625707E-1,1.805980586E-1
1.656876500E0,1.247467473E-3,-1.116117463E-3,-1.767830253E-1,1.767909498E-1
1.666832500E0,1.934829401E-3,-6.572548300E-4,-1.774171144E-1,1.774288816E-1
1.676789500E0,2.167651663E-3,-4.513477907E-3,-1.775362492E-1,1.776068410E-1
1.686746500E0,4.183398094E-3,-4.212006927E-3,-1.826761663E-1,1.827726007E-1
1.696703500E0,8.973593358E-4,-5.705934018E-4,-1.837586910E-1,1.837617679E-1
1.706659500E0,1.955433283E-3,-1.215077937E-3,-1.839586943E-1,1.839730995E-1
1.716616500E0,1.435824903E-3,1.741921529E-3,-1.790862828E-1,1.791005097E-1
1.726573500E0,3.278465942E-3,-2.804627642E-3,-1.774122268E-1,1.774646796E-1
1.736530500E0,2.053468954E-3,1.197503880E-3,-1.751273870E-1,1.751435196E-1
1.746486500E0,-4.472392611E-4,-2.334913239E-3,-1.768509895E-1,1.768669678E-1
1.756443500E0,-1.522636740E-4,-1.779950224E-3,-1.795669347E-1,1.795758209E-1
1.766400500E0,1.534049981E-3,-2.279292792E-3,-1.808247566E-1,1.808456278E-1
1.776357500E0,-5.019130185E-4,-3.329725005E-3,-1.847345531E-1,1.847652405E-1
1.786314500E0,2.204391407E-3,-3.911360167E-3,-1.871598959E-1,1.872137407E-1
1.796270500E0,1.897270326E-3,-1.567847095E-3,-1.830910742E-1,1.831076166E-1
1.806227500E0,-1.526223379E-3,1.709302887E-4,-1.789027154E-1,1.789093071E-1
1.816184500E0,6.837673718E-4,-3.204558045E-3,-1.762320548E-1,1.762625141E-1
1.826141500E0,2.285658848E-3,-1.505727880E-3,-1.768086255E-1,1.768298094E-1
1.836097500E0,4.952210002E-4,-2.539780922E-3,-1.798107028E-1,1.798293207E-1
1.846054500E0,-3.798938124E-4,-4.593199119E-4,-1.871192157E-1,1.871201651E-1
1.856011500E0,1.832526992E-3,7.073357701E-4,-1.928463280E-1,1.928563318E-1
1.865968500E0,1.111875637E-3,-1.627990045E-3,-1.949337274E-1,1.949436962E-1
1.875924500E0,7.893437869E-4,6.492156535E-4,-1.917882860E-1,1.917910091E-1
1.885881500E0,2.153681125E-3,-3.145522438E-3,-1.786309481E-1,1.786716213E-1
1.895838500E0,1.318287104E-3,-2.966254950E-3,-1.712390184E-1,1.712697813E-1
1.905795500E0,3.424314782E-3,-1.096715219E-3,-1.711327583E-1,1.711705280E-1
1.915752500E0,-2.542079892E-4,-7.614688948E-4,-1.778380573E-1,1.778398692E-1
1.925708500E0,2.214808716E-3,-1.907160506E-3,-1.836245805E-1,1.836478402E-1
1.935665500E0,-1.821244718E-3,7.696365938E-4,-1.865308285E-1,1.865413071E-1
1.945622500E0,2.111977898E-3,-1.761431806E-3,-1.887037009E-1,1.887237394E-1
1.955579500E0,1.741358545E-3,1.700576395E-4,-1.830464154E-1,1.830547772E-1
1.965535500E0,1.698481617E-3,-1.741027460E-3,-1.817678362E-1,1.817841090E-1
1.975492500E0,-2.693913411E-3,-3.005095758E-3,-1.818623692E-1,1.819071442E-1
1.985449500E0,4.771124804E-4,-9.054597467E-4,-1.833870262E-1,1.833898821E-1
1.995406500E0,7.691547507E-4,-7.877210155E-4,-1.817755252E-1,1.817788592E-1
2.005362500E0,1.441336586E-3,-3.945963457E-3,-1.819132119E-1,1.819617123E-1
2.015319500E0,5.464410409E-3,-2.246368676E-3,-1.794711649E-1,1.795683853E-1
2.025276500E0,1.644372125E-3,-1.191490330E-3,-1.817918420E-1,1.818031832E-1
2.035233500E0,-1.066549332E-3,-2.214852720E-3,-1.839387119E-1,1.839551381E-1
2.045190500E0,2.788376063E-3,-1.831091009E-3,-1.891449243E-1,1.891743384E-1
2.055146500E0,3.472147044E-3,2.971822396E-4,-1.870010048E-1,1.870334727E-1
2.065103500E0,-4.616084043E-4,-1.537735574E-3,-1.825314313E-1,1.825384922E-1
2.075060500E0,2.596832113E-3,-9.465459734E-4,-1.759908497E-1,1.760125526E-1
2.085017500E0,3.299107775E-3,-2.876538783E-3,-1.737876087E-1,1.738427207E-1
2.094973500E0,1.347184530E-3,-1.076134853E-3,-1.785024256E-1,1.785107529E-1
2.104930500E0,8.995071403E-4,-1.819689758E-3,-1.850250512E-1,1.850361856E-1
2.114887500E0,-5.090356572E-4,-1.070335507E-3,-1.834343970E-1,1.834382259E-1
2.124844500E0,-8.187611820E-4,-6.679315120E-4,-1.805115789E-1,1.805146715E-1
2.134800500E0,6.609322736E-4,-1.594611444E-3,-1.786804199E-1,1.786887576E-1
2.144757500E0,1.835652627E-3,-3.488384187E-3,-1.788138449E-1,1.788572883E-1
2.154714500E0,5.288723391E-3,-1.911838539E-3,-1.802348047E-1,1.803225182E-1
2.164671500E0,1.250572037E-3,-2.868978307E-3,-1.827008873E-1,1.827276914E-1
2.174628500E0,5.125111900E-3,-2.301941626E-3,-1.813836694E-1,1.814706622E-1
2.184584500E0,1.109331148E-3,-3.551762551E-3,-1.789077371E-1,1.789464278E-1
2.194541500E0,2.600311302E-3,-1.877884381E-3,-1.776788682E-1,1.777078171E-1
2.204498500E0,4.301272333E-3,-8.714757860E-4,-1.782109588E-1,1.782649889E-1
2.214455500E0,1.785603468E-3,4.266621545E-4,-1.823303252E-1,1.823395676E-1
2.224411500E0,1.807973953E-3,-2.377646044E-3,-1.856464893E-1,1.856705172E-1
2.234368500E0,9.061828605E-4,-2.150964923E-3,-1.863009036E-1,1.863155240E-1
2.244325500E0,5.168287316E-4,-2.238050103E-3,-1.780698746E-1,1.780846884E-1
2.254282500E0,2.290080069E-3,-3.236628138E-3,-1.774172336E-1,1.774615310E-1
2.264238500E0,2.037612488E-3,-4.898430780E-4,-1.781932861E-1,1.782056088E-1
2.274195500E0,2.071376424E-3,-1.245578751E-3,-1.828137636E-1,1.828297411E-1
2.284152500E0,1.413309365E-3,-1.035988331E-3,-1.920027286E-1,1.920107250E-1
2.294109500E0,7.398347952E-4,-1.145406626E-3,-1.906751245E-1,1.906800001E-1
2.304065500E0,-1.322943717E-6,-2.581914887E-3,-1.823817641E-1,1.824000388E-1
2.314022500E0,2.438132418E-3,-1.659169793E-3,-1.755823940E-1,1.756071594E-1
2.323979500E0,2.294321777E-3,-3.047476523E-3,-1.715863198E-1,1.716287160E-1
2.333936500E0,2.580311615E-3,-2.185502090E-3,-1.739668697E-1,1.739997304E-1
2.343893500E0,2.282303991E-3,2.286536619E-4,-1.839151084E-1,1.839294112E-1
2.353849500E0,1.006773906E-3,-1.315345056E-3,-1.902005821E-1,1.902077947E-1
2.363806500E0,1.309308922E-3,-5.646888167E-5,-1.918935627E-1,1.918980377E-1
2.373763500E0,2.544169314E-3,-3.403173760E-4,-1.827747375E-1,1.827927605E-1
2.383720500E0,4.139136523E-3,-3.406149335E-3,-1.777205914E-1,1.778014143E-1
2.393676500E0,-1.103534130E-3,-4.948964342E-4,-1.772253364E-1,1.772294631E-1
2.403633500E0,6.328469608E-4,-3.008920699E-3,-1.796104759E-1,1.796367923E-1
2.413590500E0,3.428562311E-3,-1.322502270E-3,-1.861623228E-1,1.861985888E-1
2.423547500E0,4.634773359E-5,9.523704648E-4,-1.857346147E-1,1.857370622E-1
2.433503500E0,2.052359981E-3,-1.034646295E-3,-1.845743656E-1,1.845886755E-1
2.443460375E0,1.810811227E-3,-1.078055240E-3,-1.876950562E-1,1.877068868E-1
2.453417375E0,8.709105896E-4,-1.054474153E-3,-1.863765568E-1,1.863815745E-1
2.463374375E0,4.376142751E-4,-8.531389758E-4,-1.837370992E-1,1.837396010E-1
2.473331375E0,6.212227745E-4,6.718905643E-4,-1.823281199E-1,1.823304161E-1
2.483287375E0,3.224729095E-3,-6.493031979E-4,-1.776180565E-1,1.776485139E-1
2.493244375E0,1.099910820E-3,-2.037347294E-3,-1.772114187E-1,1.772265429E-1
2.503201375E0,4.192069173E-4,-4.088780843E-3,-1.782745570E-1,1.783219323E-1
2.513158375E0,-6.244615652E-4,-2.107946202E-3,-1.813053489E-1,1.813186778E-1
2.523114375E0,3.294113558E-3,-2.029864118E-4,-1.865853369E-1,1.866145234E-1
2.533071375E0,-4.205381265E-4,-1.968189143E-3,-1.837984025E-1,1.838094214E-1
2.543028375E0,-1.714568003E-3,-2.539120615E-4,-1.832404733E-1,1.832486706E-1
2.552985375E0,2.280104440E-3,-2.538632601E-3,-1.770232171E-1,1.770561010E-1
2.562941375E0,-1.068867277E-4,-1.180686057E-3,-1.759030968E-1,1.759070917E-1
2.572898375E0,1.947553828E-4,7.418356836E-5,-1.807697862E-1,1.807699064E-1
2.582855375E0,3.012819216E-4,-1.822786406E-3,-1.840438843E-1,1.840531572E-1
2.592812375E0,1.661493676E-3,8.898843080E-4,-1.878852546E-1,1.878947082E-1
2.602768375E0,7.839821628E-4,-8.659381419E-4,-1.853094399E-1,1.853131215E-1
2.612725375E0,2.550995443E-3,-1.054068096E-3,-1.828880161E-1,1.829088436E-1
2.622682375E0,1.554440591E-3,-2.088439651E-3,-1.811529696E-1,1.811716762E-1
2.632639375E0,9.940033779E-4,-2.218386158E-3,-1.819453239E-1,1.819615624E-1
2.642595375E0,-8.736716118E-4,-1.968847588E-3,-1.833011359E-1,1.833137913E-1
2.652552375E0,-6.504695630E-4,-1.566800289E-3,-1.837832630E-1,1.837910926E-1
2.662509375E0,9.817818645E-4,-1.260293648E-4,-1.846147031E-1,1.846173566E-1
2.672466375E0,1.913980814E-4,-1.354254782E-4,-1.836668402E-1,1.836669899E-1
2.682422375E0,3.498562146E-4,9.215837345E-4,-1.816034168E-1,1.816060922E-1
2.692379375E0,-3.902753815E-4,-2.913711593E-3,-1.814644039E-1,1.814882142E-1
2.702336375E0,2.625221852E-3,-1.327534206E-3,-1.822822541E-1,1.823059908E-1
2.712293375E0,1.519553713E-3,-2.105576918E-3,-1.779221445E-1,1.779410914E-1
2.722250375E0,1.129400567E-3,-1.564688981E-3,-1.809184700E-1,1.809287611E-1
2.732206375E0,7.108277641E-4,-1.852016896E-3,-1.816079617E-1,1.816187958E-1
2.742163375E0,1.009638654E-4,-7.454734296E-4,-1.861339957E-1,1.861355159E-1
2.752120375E0,3.140574321E-3,-1.600495540E-3,-1.896733195E-1,1.897060698E-1
2.762077375E0,1.269969973E-3,-1.414340921E-3,-1.836697459E-1,1.836795817E-1
2.772033375E0,7.199510001E-4,-1.718443818E-3,-1.781525314E-1,1.781622738E-1
2.781990375E0,-6.940995809E-5,-2.291821875E-3,-1.780175120E-1,1.780322775E-1
2.791947375E0,1.668676035E-3,-4.185110331E-3,-1.772198528E-1,1.772771160E-1
2.801904375E0,-1.318591647E-3,-3.888433799E-3,-1.792518497E-1,1.792988684E-1
2.811860375E0,2.886110917E-3,-3.890171647E-4,-1.868354380E-1,1.868581330E-1
2.821817375E0,5.039132666E-4,-3.282275051E-3,-1.904139221E-1,1.904428759E-1
2.831774375E0,1.323616365E-3,-1.534339041E-3,-1.863842160E-1,1.863952309E-1
2.841731375E0,-1.264443505E-3,-7.758708671E-4,-1.782298833E-1,1.782360572E-1
2.851687375E0,1.631831750E-3,-2.504296601E-3,-1.719965339E-1,1.720225045E-1
2.861644375E0,2.053676639E-3,-3.217491321E-3,-1.767449528E-1,1.767861651E-1
2.871601375E0,1.707053510E-3,-9.660460055E-4,-1.822503954E-1,1.822609500E-1
2.881558375E0,1.664709300E-3,-2.480577677E-4,-1.900726408E-1,1.900800925E-1
2.891514375E0,2.800540533E-3,-1.763630658E-3,-1.910908967E-1,1.911195548E-1
2.901471375E0,-9.838112164E-4,-2.070125192E-4,-1.858838797E-1,1.858865984E-1
2.911428375E0,2.972899005E-3,1.150775701E-3,-1.807211787E-1,1.807492927E-1
2.921385375E0,-9.880203288E-4,-2.457008697E-3,-1.751780808E-1,1.751980966E-1
2.931342375E0,1.224039355E-3,-2.548458055E-3,-1.756341755E-1,1.756569285E-1
2.941298375E0,1.771851559E-3,-1.362819225E-3,-1.796323806E-1,1.796462883E-1
2.951255375E0,5.034245551E-4,-2.525696531E-3,-1.861134022E-1,1.861312200E-1
2.961212375E0,4.246231169E-3,-5.885120481E-4,-1.851695776E-1,1.852191926E-1
2.971169375E0,2.704778453E-4,-2.643093467E-4,-1.819674373E-1,1.819678302E-1
2.981125375E0,-8.176896954E-4,-2.891784534E-3,-1.788339615E-1,1.788592095E-1
2.991082375E0,6.309745950E-4,-1.460099593E-4,-1.808662713E-1,1.808674308E-1
3.001039375E0,1.608887338E-3,-1.020326279E-3,-1.842082739E-1,1.842181255E-1
3.010996375E0,1.605425379E-3,-1.511735842E-3,-1.862703860E-1,1.862834384E-1
3.020952375E0,1.041101525E-3,-1.671791077E-3,-1.868948936E-1,1.869052703E-1
3.030909375E0,3.239191603E-3,1.456327736E-4,-1.841733754E-1,1.842019157E-1
3.040866375E0,2.455689479E-3,-1.034946181E-3,-1.829640418E-1,1.829834477E-1
3.050823375E0,2.218352165E-3,-3.991555423E-4,-1.763145030E-1,1.763289096E-1
3.060779375E0,3.860190976E-3,-1.799445599E-3,-1.749552190E-1,1.750070506E-1
3.070736375E0,-7.419101894E-4,-1.148457639E-3,-1.795834601E-1,1.795886648E-1
3.080693375E0,3.656566842E-3,-1.465907320E-3,-1.779551953E-1,1.779987947E-1
3.090650375E0,1.582070952E-3,-1.242510043E-3,-1.762803197E-1,1.762917976E-1
3.100606375E0,3.077968489E-3,-1.210818067E-3,-1.802257895E-1,1.802561377E-1
3.110563375E0,2.378450707E-3,-1.440887339E-3,-1.851486564E-1,1.851695389E-1
3.120520375E0,-1.203234773E-3,-1.642222516E-3,-1.860472113E-1,1.860583497E-1
3.130477375E0,2.221000614E-3,-1.501586288E-3,-1.866002828E-1,1.866195412E-1
3.140433375E0,1.911008614E-3,-8.456492797E-4,-1.849717498E-1,1.849835541E-1
3.150390375E0,1.739548054E-3,-1.219468191E-3,-1.814478338E-1,1.814602698E-1
3.160347375E0,2.287444659E-5,-9.401021525E-4,-1.752437353E-1,1.752462584E-1
3.170304375E0,2.121991012E-3,-2.412616275E-3,-1.788976043E-1,1.789264553E-1
3.180260375E0,1.226369757E-3,-1.336432993E-3,-1.764320433E-1,1.764413669E-1
3.190217375E0,1.110577490E-3,3.070876002E-3,-1.840642095E-1,1.840931744E-1
3.200174375E0,-8.548353799E-4,1.789489761E-4,-1.867643893E-1,1.867664313E-1
3.210131375E0,3.496401478E-4,2.259155735E-4,-1.859747916E-1,1.859752575E-1
3.220087375E0,1.796269207E-3,-2.325925045E-3,-1.821193248E-1,1.821430344E-1
3.230044375E0,2.006885596E-3,-3.155917861E-3,-1.809403747E-1,1.809790226E-1
3.240001375E0,8.273714338E-4,-8.080760017E-4,-1.823068410E-1,1.823105093E-1
3.249958375E0,7.256892859E-4,1.502144150E-3,-1.829861253E-1,1.829937298E-1
3.259914375E0,2.052742522E-3,-2.153310925E-3,-1.810026020E-1,1.810270489E-1
3.269871375E0,1.506462577E-3,-2.252858132E-3,-1.797055751E-1,1.797260096E-1
3.279828375E0,2.086765366E-3,-1.678148285E-3,-1.773316264E-1,1.773518438E-1
3.289785375E0,1.983763650E-4,-5.965260789E-4,-1.778846681E-1,1.778857789E-1
3.299742375E0,-1.311369590E-3,-1.606396399E-3,-1.830677092E-1,1.830794537E-1
3.309698375E0,-8.450368186E-4,-6.875656545E-4,-1.844330132E-1,1.844362307E-1
3.319655375E0,1.294813119E-3,-5.786418915E-4,-1.818545312E-1,1.818600612E-1
3.329612375E0,2.939836122E-6,-1.094457693E-3,-1.776466221E-1,1.776499935E-1
3.339569375E0,1.066073659E-3,-8.398592472E-4,-1.723522544E-1,1.723575977E-1
3.349525375E0,3.471609671E-4,-1.279368997E-3,-1.752364337E-1,1.752414478E-1
3.359482375E0,-1.808401663E-3,-2.885786816E-3,-1.815523952E-1,1.815843338E-1
3.369439375E0,2.341492567E-3,1.362772658E-3,-1.851413101E-1,1.851611310E-1
3.379396375E0,1.632825471E-3,-3.378986381E-3,-1.880686581E-1,1.881060973E-1
3.389352375E0,-4.635590594E-4,-2.111013047E-3,-1.836248785E-1,1.836375977E-1
3.399309375E0,1.564970706E-3,-1.522188075E-3,-1.805364043E-1,1.805496038E-1
3.409266375E0,1.549478620E-3,-6.072288379E-4,-1.816956699E-1,1.817032913E-1
3.419223375E0,1.168646617E-3,-2.109518275E-3,-1.807323992E-1,1.807484880E-1
3.429179375E0,3.089074045E-3,-7.772538811E-5,-1.778077483E-1,1.778345967E-1
3.439136375E0,2.387597458E-3,-5.258372054E-3,-1.806485355E-1,1.807408213E-1
3.449093542E0,5.122761359E-4,6.135525182E-4,-1.802701205E-1,1.802718925E-1
3.459050542E0,7.857827586E-4,-1.940684393E-3,-1.837737709E-1,1.837856975E-1
3.469006542E0,4.071751609E-3,4.490418360E-4,-1.850350499E-1,1.850803893E-1
3.478963542E0,-9.955780115E-5,1.755356789E-4,-1.840635240E-1,1.840636346E-1
3.488920542E0,2.980169374E-3,-1.260798424E-3,-1.850389987E-1,1.850672907E-1
3.498877542E0,1.536469790E-3,-2.011277713E-3,-1.843244731E-1,1.843418492E-1
3.508833542E0,4.212664440E-3,-8.752569556E-6,-1.806897819E-1,1.807388832E-1
3.518790542E0,8.449866436E-5,-7.741451263E-4,-1.804953665E-1,1.804970464E-1
3.528747542E0,4.762231256E-4,-8.451724425E-4,-1.806234568E-1,1.806260620E-1
3.538704542E0,4.117746139E-4,-1.680339687E-3,-1.768649369E-1,1.768733983E-1
3.548660542E0,7.542828098E-5,5.651367828E-4,-1.804587245E-1,1.804596252E-1
3.558617542E0,1.535639516E-3,-1.924385317E-3,-1.793324649E-1,1.793493642E-1
3.568574542E0,1.302836114E-3,4.714056849E-4,-1.778288484E-1,1.778342456E-1
3.578531542E0,2.992345486E-3,7.627550513E-4,-1.782442927E-1,1.782710403E-1
3.588487542E0,2.453499008E-3,-1.282901503E-3,-1.793499291E-1,1.793712980E-1
3.598444542E0,1.817802433E-3,-3.271217458E-3,-1.866206229E-1,1.866581425E-1
3.608401542E0,1.286282204E-3,-4.271194339E-4,-1.879922301E-1,1.879971157E-1
3.618358542E0,1.540880417E-3,-3.281229176E-3,-1.857996434E-1,1.858350028E-1
3.628314542E0,1.667923061E-4,-9.336741641E-4,-1.795327663E-1,1.795352716E-1
3.638271542E0,4.701263388E-4,1.414436847E-4,-1.781947911E-1,1.781954674E-1
3.648228542E0,-7.229973562E-6,4.422934726E-4,-1.803195775E-1,1.803201200E-1
3.658185542E0,1.991649624E-4,-1.025907695E-3,-1.842533350E-1,1.842562987E-1
3.668141542E0,2.026647795E-3,-9.849956259E-4,-1.828211695E-1,1.828350555E-1
3.678098542E0,3.115348052E-3,-3.053206950E-3,-1.804544181E-1,1.805071313E-1
3.688055542E0,1.983341528E-3,-8.214088157E-4,-1.793793589E-1,1.793922037E-1
3.698012542E0,-1.101397909E-3,1.026292332E-3,-1.785598993E-1,1.785662454E-1
3.707968542E0,-7.422342896E-4,1.721880399E-3,-1.810463518E-1,1.810560612E-1
3.717925542E0,1.019979245E-3,-5.383444950E-4,-1.863167584E-1,1.863203280E-1
3.727882542E0,-7.362598553E-4,1.881551929E-3,-1.858832389E-1,1.858942194E-1
3.737839542E0,1.939823851E-4,-6.473856047E-4,-1.867855191E-1,1.867867417E-1
3.747795542E0,1.567134168E-3,-5.527306348E-4,-1.843230724E-1,1.843305630E-1
3.757752542E0,1.930922037E-3,-1.915469766E-3,-1.809525639E-1,1.809730031E-1
3.767709542E0,2.316443715E-4,-1.457143575E-3,-1.841403693E-1,1.841462803E-1
3.777666542E0,2.612476237E-6,-1.157005318E-3,-1.839227974E-1,1.839264366E-1
3.787622542E0,7.558327634E-4,1.739603467E-3,-1.869658083E-1,1.869754288E-1
3.797579542E0,-1.845294610E-4,7.885601372E-5,-1.842879951E-1,1.842881044E-1
3.807536542E0,-9.841436986E-4,7.629599422E-4,-1.815871447E-1,1.815914144E-1
3.817493542E0,-6.544443313E-4,8.431207389E-4,-1.769993156E-1,1.770025335E-1
3.827449542E0,1.128137810E-3,-1.052274369E-3,-1.794179082E-1,1.794245406E-1
3.837406542E0,1.024008263E-3,6.785141304E-4,-1.809787899E-1,1.809829588E-1
3.847363542E0,2.003391273E-5,7.993858308E-4,-1.806129068E-1,1.806146769E-1
3.857320542E0,-2.707833191E-4,-9.708171710E-4,-1.833575517E-1,1.833603217E-1
3.867276542E0,1.095167594E-3,-1.911371946E-4,-1.810754538E-1,1.810788665E-1
3.877233542E0,-2.377445344E-4,-8.601238951E-4,-1.859136224E-1,1.859157640E-1
3.887190542E0,-2.696848242E-4,-4.105465487E-4,-1.812707037E-1,1.812713692E-1
3.897147542E0,2.327429829E-3,-2.415907569E-3,-1.822728515E-1,1.823037189E-1
3.907103542E0,7.005392108E-4,3.599822521E-4,-1.795439124E-1,1.795456400E-1
3.917060542E0,3.129342105E-3,-2.033933066E-3,-1.780003458E-1,1.780394697E-1
3.927017542E0,-6.324925926E-5,5.428865552E-4,-1.740412861E-1,1.740421443E-1
3.936974542E0,-4.086612025E-4,-1.321592368E-3,-1.791114062E-1,1.791167481E-1
3.946930542E0,1.538589946E-3,8.803065866E-4,-1.809074283E-1,1.809161126E-1
3.956887542E0,-1.096075284E-3,-1.798034646E-3,-1.858689040E-1,1.858808322E-1
3.966844542E0,-6.228452548E-5,5.885157734E-4,-1.892124265E-1,1.892133520E-1
3.976801542E0,-9.778791573E-4,5.389805883E-4,-1.881740540E-1,1.881773667E-1
3.986757542E0,2.742477693E-3,-1.065297052E-3,-1.793452352E-1,1.793693659E-1
3.996714542E0,-4.426627420E-4,-3.054146655E-3,-1.752972305E-1,1.753243930E-1
4.006671542E0,3.126972821E-3,6.537521258E-4,-1.743855774E-1,1.744148359E-1
4.016628542E0,4.150159191E-3,-5.031256005E-4,-1.789017618E-1,1.789506002E-1
4.026584542E0,-1.500669168E-3,-5.423994735E-4,-1.836198270E-1,1.836267603E-1
4.036541542E0,2.724968595E-3,-4.473244771E-4,-1.873479933E-1,1.873683435E-1
4.046498542E0,1.642136718E-3,-2.060163766E-3,-1.813428402E-1,1.813619767E-1
4.056455542E0,-2.460444812E-4,9.284354746E-4,-1.767635345E-1,1.767661440E-1
4.066411542E0,-9.735033382E-5,8.494826034E-4,-1.740202457E-1,1.740223463E-1
4.076368542E0,7.820254541E-4,9.709224105E-4,-1.780453473E-1,1.780497120E-1
4.086325542E0,-8.026810829E-4,-2.094044350E-3,-1.834920347E-1,1.835057386E-1
4.096282542E0,2.662357874E-3,-4.585962743E-4,-1.883376539E-1,1.883570289E-1
4.106238542E0,9.825092275E-4,5.964245647E-4,-1.872747391E-1,1.872782661E-1
4.116195542E0,2.048572525E-3,-2.033445984E-3,-1.826315224E-1,1.826543307E-1
4.126152542E0,5.588308559E-4,-1.600302756E-3,-1.750058681E-1,1.750140769E-1
4.136109542E0,-8.565408643E-5,-2.101775259E-3,-1.736601740E-1,1.736729134E-1
4.146065542E0,-1.581848133E-3,-7.794443518E-4,-1.780015677E-1,1.780103028E-1
4.156022542E0,5.761113716E-4,-8.175279945E-4,-1.826043129E-1,1.826070517E-1
4.165979542E0,1.128717558E-3,4.761153832E-4,-1.870274544E-1,1.870314663E-1
4.175936542E0,-9.301721584E-4,-5.718385801E-4,-1.854335517E-1,1.854367663E-1
4.185892542E0,1.941019087E-3,7.410068065E-5,-1.762870550E-1,1.762977561E-1
4.195849542E0,-1.010928536E-4,-1.838847995E-3,-1.733120382E-1,1.733218225E-1
4.205806542E0,2.746773185E-3,1.286286861E-4,-1.726804674E-1,1.727023599E-1
4.215763542E0,1.541692764E-3,5.496740341E-4,-1.820404083E-1,1.820477662E-1
4.225719542E0,3.134119324E-3,1.391389407E-3,-1.909001023E-1,1.909308977E-1
4.235676542E0,-5.996325053E-4,6.228014827E-4,-1.917978525E-1,1.917998010E-1
4.245633542E0,1.451917458E-3,8.942764252E-4,-1.836733967E-1,1.836813122E-1
4.255590542E0,1.553117530E-3,1.469785348E-3,-1.759749949E-1,1.759879862E-1
4.265546542E0,4.090913106E-3,3.762207925E-4,-1.718977690E-1,1.719468525E-1
4.275503542E0,2.542018425E-3,-1.260517165E-4,-1.720399708E-1,1.720587960E-1
4.285460542E0,1.124373637E-3,-6.102519110E-4,-1.804619730E-1,1.804665074E-1
4.295417542E0,1.904413570E-3,2.607912757E-3,-1.877603680E-1,1.877881354E-1
4.305373542E0,1.452923985E-3,9.574554861E-5,-1.873078048E-1,1.873134643E-1
4.315330542E0,2.411395777E-3,-6.281016394E-4,-1.843397170E-1,1.843565584E-1
4.325287542E0,2.767037135E-3,-3.280201927E-4,-1.823737621E-1,1.823950471E-1
4.335244542E0,2.458643168E-3,-5.461331457E-4,-1.803942323E-1,1.804118129E-1
4.345200542E0,-4.087770358E-4,7.186802104E-4,-1.815160364E-1,1.815179194E-1
4.355157542E0,-1.075366279E-3,-8.315462619E-4,-1.843882501E-1,1.843932609E-1
4.365114542E0,2.363214735E-3,-2.025345340E-3,-1.834750921E-1,1.835014883E-1
4.375071542E0,-6.893003592E-4,6.612511352E-4,-1.864010990E-1,1.864035463E-1
4.385027542E0,-2.980979392E-3,4.753414541E-4,-1.826217473E-1,1.826466938E-1
4.394984542E0,4.417154123E-4,-1.390735619E-3,-1.797748357E-1,1.797807576E-1
4.404941542E0,4.753107787E-4,5.190651864E-4,-1.745726168E-1,1.745740356E-1
4.414898542E0,1.414075028E-3,-9.019980207E-4,-1.791220903E-1,1.791299429E-1
4.424854542E0,8.172740345E-4,-9.944913909E-4,-1.795947850E-1,1.795993979E-1
4.434811542E0,2.961651422E-3,-5.042040721E-4,-1.861445606E-1,1.861688025E-1
4.444768542E0,1.274010632E-3,-2.129864879E-3,-1.869907081E-1,1.870071773E-1
4.454725625E0,3.060991643E-3,1.681772992E-4,-1.848830879E-1,1.849085021E-1
4.464681625E0,1.231078990E-3,-2.106459811E-3,-1.771621108E-1,1.771789102E-1
4.474638625E0,-3.793345531E-4,-9.213536978E-4,-1.778776944E-1,1.778804850E-1
4.484595625E0,2.806794830E-3,1.826127991E-3,-1.782646030E-1,1.782960502E-1
4.494552625E0,1.450180775E-3,-3.970786929E-4,-1.875585020E-1,1.875645285E-1
4.504508625E0,3.732784651E-3,-6.271786988E-4,-1.873930693E-1,1.874312926E-1
4.514465625E0,2.736047609E-4,-1.104417257E-3,-1.864987761E-1,1.865022468E-1
4.524422625E0,-1.060402952E-3,7.915310562E-6,-1.794439703E-1,1.794471036E-1
4.534379625E0,1.232845127E-3,-1.939121634E-3,-1.740079224E-1,1.740230938E-1
4.544335625E0,4.947185516E-5,-1.354677603E-3,-1.727984846E-1,1.728038017E-1
4.554292625E0,1.811685506E-3,-2.840987407E-3,-1.773058921E-1,1.773379057E-1
4.564249625E0,3.532959614E-3,-1.090817153E-3,-1.850157380E-1,1.850526817E-1
4.574205625E0,3.036546521E-3,9.963018820E-4,-1.897010356E-1,1.897279530E-1
4.584162625E0,1.010624575E-3,2.166705206E-3,-1.897345483E-1,1.897496108E-1
4.594119625E0,4.625460133E-4,2.974327654E-4,-1.824460179E-1,1.824468466E-1
4.604076625E0,1.802301966E-3,-1.752569340E-3,-1.754992753E-1,1.755172796E-1
4.614032625E0,7.817786536E-4,8.080592379E-4,-1.732824594E-1,1.732861070E-1
4.623989625E0,3.683932824E-3,-4.404727370E-4,-1.790066808E-1,1.790451261E-1
4.633946625E0,2.475123852E-3,-9.227711707E-4,-1.865527481E-1,1.865714489E-1
4.643903625E0,2.490693005E-4,-6.001843140E-4,-1.903601736E-1,1.903612827E-1
4.653859625E0,2.860871609E-4,1.210002229E-4,-1.907668412E-1,1.907670941E-1
4.663816625E0,-1.485509332E-3,1.171844080E-3,-1.878345162E-1,1.878440455E-1
4.673773625E0,1.473262673E-3,-6.905049086E-4,-1.861063987E-1,1.861135109E-1
4.683730625E0,1.368841738E-3,7.184492424E-4,-1.821312159E-1,1.821377767E-1
4.693686625E0,-9.462441085E-4,-9.193951264E-4,-1.782065183E-1,1.782114021E-1
4.703643625E0,1.897281967E-3,-1.844104379E-3,-1.761651784E-1,1.761850462E-1
4.713600625E0,8.866122807E-4,1.086704433E-3,-1.775140762E-1,1.775196166E-1
4.723557625E0,1.086489414E-3,2.057087608E-3,-1.763231307E-1,1.763384771E-1
4.733513625E0,1.163987443E-3,-4.071351141E-4,-1.833320260E-1,1.833361731E-1
4.743470625E0,2.057149541E-4,-5.182838067E-4,-1.893153638E-1,1.893161850E-1
4.753427625E0,-1.189515227E-3,4.812013358E-4,-1.911039501E-1,1.911082580E-1
4.763384625E0,4.271398066E-4,2.223290503E-4,-1.857324541E-1,1.857330783E-1
4.773340625E0,1.855925657E-3,-2.891172655E-3,-1.776079535E-1,1.776411791E-1
4.783297625E0,1.423204434E-3,6.588548422E-4,-1.708554775E-1,1.708626752E-1
4.793254625E0,5.003824364E-3,-1.317476854E-3,-1.726051718E-1,1.726827129E-1
4.803211625E0,1.909720246E-3,-1.919008791E-4,-1.799125224E-1,1.799227601E-1
4.813167625E0,1.134740305E-3,8.160620928E-5,-1.852404326E-1,1.852439261E-1
4.823124625E0,2.883038484E-3,-7.145032287E-4,-1.885273606E-1,1.885507574E-1
4.833081625E0,7.865982479E-4,-1.821368933E-4,-1.854221076E-1,1.854238655E-1
4.843038625E0,2.386272419E-3,1.073724590E-3,-1.826468706E-1,1.826656140E-1
4.852994625E0,1.948715188E-3,-1.705284230E-3,-1.800950319E-1,1.801136474E-1
4.862951625E0,2.866679570E-3,-5.930373445E-4,-1.790743619E-1,1.790982877E-1
4.872908625E0,3.508501453E-3,-8.809249848E-4,-1.833271682E-1,1.833628540E-1
4.882865625E0,-1.910011051E-4,3.051105887E-5,-1.807372421E-1,1.807373456E-1
4.892821625E0,1.839392935E-3,-1.570846885E-3,-1.841104031E-1,1.841262921E-1
4.902778625E0,-5.431910977E-4,-2.377703786E-3,-1.834258139E-1,1.834420283E-1
4.912735625E0,2.256635344E-4,-9.885989130E-4,-1.849677861E-1,1.849705656E-1
4.922692625E0,1.131505938E-3,-1.428088173E-3,-1.824548990E-1,1.824639962E-1
4.932648625E0,1.222586026E-3,-2.583367750E-3,-1.832991242E-1,1.833214048E-1
4.942605625E0,1.242572791E-3,-3.679821268E-3,-1.808627695E-1,1.809044678E-1
4.952562625E0,6.678723730E-5,8.747167885E-4,-1.779146492E-1,1.779168120E-1
4.962519625E0,1.601613243E-3,-4.315208644E-4,-1.763099432E-1,1.763177457E-1
4.972475625E0,-2.096452285E-3,-1.281602308E-3,-1.803877801E-1,1.804045144E-1
4.982432625E0,2.645311644E-3,-1.780273393E-3,-1.881047487E-1,1.881317717E-1
4.992389625E0,-1.992050791E-3,3.206944093E-4,-1.891646832E-1,1.891754437E-1
5.002345625E0,-1.068343176E-3,8.985446766E-4,-1.838111430E-1,1.838164439E-1
5.012302625E0,7.194367354E-4,1.656214707E-3,-1.749790460E-1,1.749883630E-1
5.022259625E0,5.097588291E-4,-5.621714517E-4,-1.704704165E-1,1.704721057E-1
5.032216625E0,2.240280854E-3,-2.942238003E-3,-1.694006175E-1,1.694409774E-1
5.042172625E0,1.110920799E-3,-7.684351876E-4,-1.794141382E-1,1.794192231E-1
5.052129625E0,2.800163813E-3,2.518668771E-5,-1.914723963E-1,1.914928721E-1
5.062086625E0,-1.627030782E-3,2.537026070E-3,-1.957395077E-1,1.957627099E-1
5.072043625E0,1.895798719E-3,-2.443799749E-4,-1.924960464E-1,1.925055367E-1
5.081999625E0,3.161241533E-3,9.225383401E-4,-1.814626306E-1,1.814925090E-1
5.091956625E0,1.007809537E-3,-8.559208363E-4,-1.708105206E-1,1.708156382E-1
5.101913625E0,8.462319383E-4,-1.233378425E-4,-1.683478057E-1,1.683499778E-1
5.111870625E0,1.481662155E-3,-1.795301214E-4,-1.769074649E-1,1.769137606E-1
5.121826625E0,7.518249913E-4,1.698882319E-3,-1.873838007E-1,1.873930101E-1
5.131783625E0,-9.049276123E-4,-2.460246906E-4,-1.941735297E-1,1.941757943E-1
5.141740625E0,1.911331667E-3,7.574008778E-4,-1.903489083E-1,1.903600109E-1
5.151697625E0,6.660376093E-4,-2.593947574E-4,-1.790520549E-1,1.790534815E-1
5.161653625E0,9.689987637E-4,-5.104299635E-4,-1.743531674E-1,1.743566072E-1
5.171610625E0,-1.147681614E-3,-3.684384748E-3,-1.769050062E-1,1.769470912E-1
5.181567625E0,-4.766660277E-5,4.212092608E-4,-1.798401773E-1,1.798406769E-1
5.191524625E0,2.114820294E-3,-1.779094338E-3,-1.844367981E-1,1.844575022E-1
5.201480625E0,2.429717686E-3,1.017662697E-3,-1.826460809E-1,1.826650761E-1
5.211437625E0,1.211853931E-3,-1.241496764E-3,-1.782816947E-1,1.782901359E-1
5.221394625E0,8.099452825E-4,-3.642309457E-5,-1.788671017E-1,1.788689392E-1
5.231351625E0,1.205957378E-3,-1.036440022E-3,-1.762662530E-1,1.762734254E-1
5.241307625E0,1.534943469E-3,3.233421594E-4,-1.807799637E-1,1.807867691E-1
5.251264625E0,4.664832959E-4,-1.888146624E-3,-1.845811009E-1,1.845913474E-1
5.261221625E0,-1.096273772E-3,-7.172990590E-4,-1.876143068E-1,1.876188809E-1
5.271178625E0,8.797918563E-4,1.151973382E-3,-1.875802130E-1,1.875858133E-1
5.281134625E0,1.287758001E-3,5.948357284E-4,-1.834162027E-1,1.834216878E-1
5.291091625E0,6.022604066E-4,1.040383242E-3,-1.779242307E-1,1.779282917E-1
5.301048625E0,8.746188250E-4,-1.514127478E-3,-1.755723655E-1,1.755810727E-1
5.311004625E0,1.433083671E-3,-4.150411114E-4,-1.782730818E-1,1.782793249E-1
5.320961625E0,1.009916770E-3,3.483602777E-4,-1.814020872E-1,1.814052329E-1
5.330918625E0,-1.158428960E-3,3.670025617E-4,-1.840513945E-1,1.840554059E-1
5.340875625E0,-1.116617350E-3,4.033250734E-4,-1.845412254E-1,1.845450443E-1
5.350831625E0,1.530830981E-3,2.030249685E-3,-1.830184311E-1,1.830360933E-1
5.360788625E0,7.976256893E-4,8.477652445E-4,-1.803600490E-1,1.803638051E-1
5.370745625E0,8.218605071E-4,2.869032323E-4,-1.765775532E-1,1.765796988E-1
5.380702625E0,7.183481357E-4,-1.961747184E-3,-1.789810061E-1,1.789931983E-1
5.390658625E0,1.885078964E-3,5.831690505E-4,-1.810588092E-1,1.810695612E-1
5.400615625E0,5.605979823E-5,-1.343362965E-3,-1.843508333E-1,1.843557363E-1
5.410572625E0,1.567403786E-3,7.610665634E-4,-1.832512170E-1,1.832595005E-1
5.420529625E0,1.749567571E-3,5.508540198E-4,-1.834050715E-1,1.834142434E-1
5.430485625E0,4.217154928E-4,-9.501036257E-4,-1.823097169E-1,1.823126804E-1
5.440442625E0,4.876280203E-3,-1.229132526E-3,-1.819134504E-1,1.819829451E-1
5.450400042E0,6.538386224E-4,-7.997825742E-5,-1.830988228E-1,1.831000077E-1
5.460357042E0,1.423034351E-3,-7.530171424E-4,-1.840740442E-1,1.840810849E-1
5.470313042E0,-4.449068801E-4,-2.062760293E-3,-1.839456856E-1,1.839577891E-1
5.480270042E0,4.449405242E-5,8.654221892E-4,-1.773817837E-1,1.773839004E-1
5.490227042E0,-6.576080341E-5,5.863234401E-4,-1.775128245E-1,1.775138050E-1
5.500184042E0,1.134200371E-3,-3.079042770E-3,-1.781934947E-1,1.782237034E-1
5.510140042E0,2.355792327E-3,-8.289376274E-4,-1.833989024E-1,1.834159053E-1
5.520097042E0,2.711509587E-4,1.518232748E-4,-1.861122847E-1,1.861125441E-1
5.530054042E0,-1.236464479E-3,-1.108917408E-3,-1.857279837E-1,1.857354099E-1
5.540011042E0,1.890904736E-3,7.043965161E-4,-1.860170215E-1,1.860279656E-1
5.549967042E0,-1.778387232E-4,-3.118654713E-4,-1.797833592E-1,1.797837176E-1
5.559924042E0,1.648857258E-3,1.943210140E-3,-1.756619960E-1,1.756804817E-1
5.569881042E0,1.015024958E-3,-1.514905132E-3,-1.717354357E-1,1.717451167E-1
5.579837042E0,9.095940040E-4,2.182312310E-4,-1.763298810E-1,1.763323620E-1
5.589794042E0,3.402101574E-4,-1.540253870E-3,-1.823164076E-1,1.823232311E-1
5.599751042E0,-3.277320648E-4,5.091121420E-4,-1.848711222E-1,1.848721137E-1
5.609708042E0,8.533798391E-4,-5.843825638E-4,-1.824439168E-1,1.824468485E-1
5.619664042E0,2.718429314E-4,-5.159154534E-5,-1.790654659E-1,1.790656797E-1
5.629621042E0,1.351754763E-3,-5.418797955E-4,-1.786007434E-1,1.786066808E-1
5.639578042E0,2.943045925E-3,-6.281780079E-4,-1.805644929E-1,1.805895685E-1
5.649535042E0,4.697683034E-4,1.126844436E-3,-1.855978668E-1,1.856018820E-1
5.659491042E0,6.236893823E-4,1.648537815E-3,-1.894805133E-1,1.894887110E-1
5.669448042E0,7.453958970E-4,1.215240918E-3,-1.905721426E-1,1.905774750E-1
5.679405042E0,1.113285543E-3,-2.693798393E-3,-1.874281764E-1,1.874508396E-1
5.689362042E0,-2.078779507E-3,-8.562169969E-4,-1.824174374E-1,1.824312909E-1
5.699318042E0,-8.167752530E-4,2.831146121E-4,-1.800538898E-1,1.800559649E-1
5.709275042E0,2.888480667E-3,-1.451224089E-4,-1.825135946E-1,1.825365076E-1
5.719232042E0,2.235680353E-3,1.927072182E-3,-1.846453398E-1,1.846689292E-1
5.729189042E0,1.091586426E-3,8.306484669E-4,-1.887338310E-1,1.887388156E-1
5.739145042E0,-5.452198675E-4,-3.349590115E-3,-1.828955710E-1,1.829270535E-1
5.749102042E0,1.345624449E-3,6.384924054E-4,-1.754376590E-1,1.754439813E-1
5.759059042E0,1.385322539E-4,8.931569755E-4,-1.728821397E-1,1.728845023E-1
5.769016042E0,3.909834661E-3,-2.490729094E-4,-1.737886816E-1,1.738328355E-1
5.778972042E0,2.925641835E-3,-5.855914205E-4,-1.777844280E-1,1.778094630E-1
5.788929042E0,3.038293682E-3,-1.588804647E-3,-1.842900068E-1,1.843218981E-1
5.798886042E0,2.594688442E-3,-1.432226971E-3,-1.862040758E-1,1.862276605E-1
5.808843042E0,3.656226327E-4,-1.433825120E-3,-1.836335957E-1,1.836395573E-1
5.818799042E0,2.122808481E-3,-6.630206481E-4,-1.823291481E-1,1.823427107E-1
5.828756042E0,2.607503906E-3,-2.959198318E-3,-1.795589179E-1,1.796022297E-1
5.838713042E0,-8.979330305E-4,2.194534987E-3,-1.805827022E-1,1.805982685E-1
5.848669042E0,-8.742308710E-4,7.303291932E-4,-1.829577088E-1,1.829612551E-1
5.858626042E0,1.797903678E-3,1.177026890E-3,-1.801863909E-1,1.801992045E-1
5.868583042E0,2.461296972E-3,-6.669452414E-4,-1.800100952E-1,1.800281566E-1
5.878540042E0,5.601128796E-4,-1.704130322E-3,-1.771445423E-1,1.771536245E-1
5.888496042E0,2.118062228E-3,-2.565929666E-3,-1.825411767E-1,1.825714966E-1
5.898453042E0,-7.601387333E-4,2.090545371E-3,-1.875457615E-1,1.875589530E-1
5.908410042E0,1.288098516E-3,-6.383955479E-4,-1.886381954E-1,1.886436734E-1
5.918367042E0,8.814820321E-4,2.268553711E-3,-1.835675091E-1,1.835836423E-1
5.928323042E0,7.890703273E-4,-2.665217966E-3,-1.773775220E-1,1.773992991E-1
5.938280042E0,2.917042468E-3,-1.123360358E-3,-1.721841246E-1,1.722124962E-1
5.948237042E0,4.692838062E-3,1.206639223E-3,-1.748571396E-1,1.749242635E-1
5.958194042E0,1.542175072E-3,1.667780802E-3,-1.813355982E-1,1.813498249E-1
5.968150042E0,1.466274960E-3,-2.291882411E-4,-1.845122129E-1,1.845181812E-1
5.978107042E0,1.736634411E-3,2.539101988E-4,-1.851244271E-1,1.851327466E-1
5.988064042E0,9.083913174E-4,-1.826817170E-3,-1.822253168E-1,1.822367375E-1
5.998021042E0,2.303486923E-3,3.436161205E-4,-1.791600138E-1,1.791751508E-1
6.007977042E0,-1.591381151E-4,-3.404783085E-3,-1.821845621E-1,1.822164442E-1
6.017934042E0,8.202961180E-4,-2.839198336E-3,-1.853684932E-1,1.853920500E-1
6.027891042E0,2.200196031E-4,1.235970296E-3,-1.857541203E-1,1.857583626E-1
6.037847042E0,1.126827323E-3,4.298612475E-5,-1.848505735E-1,1.848540130E-1
6.047804042E0,2.110865433E-3,1.213711686E-3,-1.809325367E-1,1.809489201E-1
6.057761042E0,-1.900098287E-4,-1.117709093E-3,-1.760531664E-1,1.760568169E-1
6.067718042E0,-5.071923370E-4,-1.515851356E-3,-1.787674576E-1,1.787746038E-1
6.077674042E0,1.898928080E-3,1.187015325E-3,-1.863729060E-1,1.863863595E-1
6.087631042E0,-1.362378942E-3,8.393358439E-5,-1.911831051E-1,1.911879777E-1
6.097588042E0,1.327278558E-3,-5.027391016E-4,-1.940498799E-1,1.940550703E-1
6.107545042E0,3.730679746E-4,-8.401619270E-4,-1.857485473E-1,1.857508220E-1
6.117501042E0,1.202169689E-3,1.039635390E-4,-1.759642661E-1,1.759684033E-1
6.127458042E0,3.273576265E-3,5.149934441E-5,-1.747240275E-1,1.747546988E-1
6.137415042E0,1.477703918E-3,2.024914138E-3,-1.758558750E-1,1.758737407E-1
6.147372042E0,1.795951743E-3,2.621114254E-5,-1.763075441E-1,1.763166930E-1
6.157328042E0,1.068250393E-3,-7.817428559E-4,-1.807284355E-1,1.807332833E-1
6.167285042E0,1.445353962E-3,-2.632252872E-4,-1.824573576E-1,1.824632722E-1
6.177242042E0,1.146970317E-3,5.264291540E-4,-1.849491596E-1,1.849534653E-1
6.187199042E0,-1.119379769E-3,-8.088797331E-4,-1.849286556E-1,1.849338124E-1
6.197155042E0,2.431985922E-4,9.544361383E-4,-1.844040751E-1,1.844067055E-1
6.207112042E0,3.968629753E-4,-5.676690489E-5,-1.832330823E-1,1.832335209E-1
6.217069042E0,1.900598872E-3,1.516783610E-3,-1.792681813E-1,1.792846724E-1
6.227026042E0,-1.291732187E-3,8.464660496E-4,-1.749221683E-1,1.749289857E-1
6.236982042E0,1.078810543E-3,-1.769372262E-3,-1.756139845E-1,1.756262112E-1
6.246939042E0,2.701740945E-3,1.323902979E-4,-1.804433614E-1,1.804636351E-1
6.256896042E0,-1.625610748E-4,1.187228598E-3,-1.887354404E-1,1.887392444E-1
6.266852042E0,6.931124954E-4,-3.046747297E-4,-1.900318712E-1,1.900333794E-1
6.276809042E0,2.438986208E-3,1.741258428E-3,-1.861609817E-1,1.861851007E-1
6.286766042E0,1.375319669E-3,-3.415153362E-3,-1.815459877E-1,1.815833154E-1
6.296723042E0,3.430455225E-3,9.947437793E-4,-1.787225008E-1,1.787581882E-1
6.306679042E0,-1.314765075E-3,2.927351743E-4,-1.798756421E-1,1.798806852E-1
6.316636042E0,1.236778102E-3,2.630540170E-3,-1.826184839E-1,1.826416164E-1
6.326593042E0,2.205635887E-3,-1.125048846E-3,-1.869695485E-1,1.869859423E-1
6.336550042E0,5.402017850E-4,1.286813058E-3,-1.826266944E-1,1.826320268E-1
6.346506042E0,-2.094463445E-3,6.838738918E-4,-1.799504906E-1,1.799639784E-1
6.356463042E0,8.400647203E-4,4.031173885E-4,-1.765775681E-1,1.765800265E-1
6.366420042E0,8.877352811E-4,-9.756013751E-4,-1.741378605E-1,1.741428561E-1
6.376377042E0,1.684925286E-3,1.197532751E-3,-1.774535030E-1,1.774655425E-1
6.386333042E0,-1.752927201E-4,2.247616649E-3,-1.823177636E-1,1.823317016E-1
6.396290042E0,1.708363881E-3,-1.798635349E-4,-1.859121621E-1,1.859200981E-1
6.406247042E0,6.817153771E-4,-1.429950818E-3,-1.870581210E-1,1.870648286E-1
6.416204042E0,-9.433527011E-4,-1.498077996E-3,-1.818003058E-1,1.818089254E-1
6.426160042E0,2.308349940E-4,-7.891440764E-4,-1.808021516E-1,1.808040211E-1
6.436117042E0,2.317246515E-3,-1.638513058E-4,-1.761357784E-1,1.761510968E-1
6.446074042E0,1.179810264E-3,-7.870309055E-4,-1.738672853E-1,1.738730694E-1
6.456028792E0,5.171954981E-4,1.448849216E-4,-1.824037433E-1,1.824045340E-1
6.465985792E0,-5.840215599E-4,-2.182984725E-3,-1.850123107E-1,1.850261107E-1
6.475942792E0,1.657778979E-3,3.071618266E-3,-1.866454482E-1,1.866780823E-1
6.485899792E0,-7.771492237E-4,2.951509319E-3,-1.868060380E-1,1.868309696E-1
6.495855792E0,5.768631236E-4,8.433358744E-4,-1.824135929E-1,1.824164545E-1
6.505812792E0,1.676482381E-3,-1.253371127E-3,-1.791474968E-1,1.791597252E-1
6.515769792E0,1.039447729E-3,1.008150168E-3,-1.782589853E-1,1.782648666E-1
6.525726792E0,-1.193879172E-3,-6.792284548E-4,-1.791258454E-1,1.791311118E-1
6.535682792E0,-1.358455746E-3,1.073585823E-3,-1.818090826E-1,1.818173273E-1
6.545639792E0,-5.970580969E-4,5.651889369E-4,-1.853931695E-1,1.853949924E-1
6.555596792E0,8.609983488E-4,-1.390996389E-3,-1.876994818E-1,1.877066106E-1
6.565553792E0,9.853532538E-5,-1.814970747E-3,-1.817417294E-1,1.817508185E-1
6.575509792E0,-1.089780591E-3,1.397327520E-3,-1.801318228E-1,1.801405389E-1
6.585466792E0,1.792155672E-4,-2.633632161E-3,-1.790985167E-1,1.791179690E-1
6.595423792E0,3.793314681E-4,2.167539671E-3,-1.783716530E-1,1.783852256E-1
6.605380792E0,1.485874876E-3,-1.316674054E-3,-1.820681244E-1,1.820789482E-1
6.615336792E0,9.196030442E-5,-7.511116564E-5,-1.841701865E-1,1.841702248E-1
6.625293792E0,1.004359336E-3,-5.701929331E-4,-1.838966757E-1,1.839003023E-1
6.635250792E0,-1.188912895E-3,2.082825638E-3,-1.796538532E-1,1.796698601E-1
6.645207792E0,-3.336742520E-5,-1.798996702E-3,-1.803603917E-1,1.803693666E-1
6.655163792E0,-5.140182329E-4,6.845770404E-4,-1.773190796E-1,1.773211461E-1
6.665120792E0,2.681242302E-3,-5.583204329E-4,-1.785382628E-1,1.785592677E-1
6.675077792E0,2.817401662E-3,-7.168389857E-5,-1.840942949E-1,1.841158665E-1
6.685033792E0,1.477299025E-3,1.988803968E-3,-1.851233393E-1,1.851399160E-1
6.694990792E0,-8.141099242E-4,7.313955575E-5,-1.853314191E-1,1.853332216E-1
6.704947792E0,1.296711504E-3,1.045651734E-4,-1.823132485E-1,1.823178899E-1
6.714904792E0,2.336354693E-3,-2.688756213E-4,-1.773589551E-1,1.773745467E-1
6.724860792E0,2.541684313E-3,-2.628437243E-3,-1.842336506E-1,1.842699293E-1
6.734817792E0,1.983288210E-3,-2.321824431E-3,-1.890725791E-1,1.890972355E-1
6.744774792E0,1.531083486E-3,-7.982291281E-4,-1.890254468E-1,1.890333328E-1
6.754731792E0,4.493808374E-4,-2.846939489E-3,-1.854179054E-1,1.854403049E-1
6.764687792E0,1.226757537E-3,-1.176338643E-3,-1.801054329E-1,1.801134522E-1
6.774644792E0,3.327303566E-3,-2.343896776E-4,-1.727370173E-1,1.727692190E-1
6.784601792E0,-1.085288008E-3,1.925966702E-3,-1.748808622E-1,1.748948346E-1
6.794558792E0,-2.044874709E-4,-1.193396747E-5,-1.833336949E-1,1.833338094E-1
6.804514792E0,2.538425615E-4,-6.676036865E-4,-1.885194033E-1,1.885207563E-1
6.814471792E0,2.795825130E-4,-4.588020965E-4,-1.880916804E-1,1.880924478E-1
6.824428792E0,2.263637492E-3,-1.345368102E-3,-1.848157197E-1,1.848344782E-1
6.834385792E0,1.734431717E-4,-5.594184622E-4,-1.771552116E-1,1.771561797E-1
6.844341792E0,2.291032579E-4,-2.353116870E-4,-1.736907065E-1,1.736910170E-1
6.854298792E0,3.602628596E-3,-1.440823078E-3,-1.793603152E-1,1.794022786E-1
6.864255792E0,1.822039136E-3,-1.330302097E-3,-1.871340722E-1,1.871476703E-1
6.874211792E0,1.463562134E-3,-2.778128721E-3,-1.941242963E-1,1.941496908E-1
6.884168792E0,5.202704924E-4,9.004967287E-4,-1.936329454E-1,1.936357382E-1
6.894125792E0,-1.188914757E-5,2.015205100E-3,-1.870728880E-1,1.870837423E-1
6.904082792E0,1.059234259E-3,3.776270896E-4,-1.767483503E-1,1.767519276E-1
6.914038792E0,2.362028230E-3,2.577728592E-3,-1.723913252E-1,1.724267754E-1
6.923995792E0,9.369706386E-4,1.581173390E-3,-1.746957600E-1,1.747054280E-1
6.933952792E0,2.070090268E-3,2.380295657E-3,-1.802704632E-1,1.802980615E-1
6.943909792E0,3.485560417E-3,-2.907143906E-3,-1.884173304E-1,1.884719900E-1
6.953865792E0,-5.616859999E-4,2.836116590E-3,-1.871425807E-1,1.871649128E-1
6.963822792E0,2.661271486E-3,7.932055742E-4,-1.859271228E-1,1.859478597E-1
6.973779792E0,3.732670331E-3,1.768901013E-3,-1.797576249E-1,1.798050765E-1
6.983736792E0,4.497915506E-4,-7.238173857E-4,-1.775836945E-1,1.775857392E-1
6.993692792E0,3.926885314E-3,-1.956226304E-3,-1.778421402E-1,1.778962453E-1
7.003649792E0,-1.890790067E-3,-7.625967264E-4,-1.822816283E-1,1.822930296E-1
7.013606792E0,5.204653717E-4,-2.901554108E-4,-1.837530136E-1,1.837539798E-1
7.023563792E0,-1.783701591E-3,5.175815895E-4,-1.868745089E-1,1.868837380E-1
7.033519792E0,1.292313798E-3,-2.357205376E-4,-1.883429438E-1,1.883475248E-1
7.043476792E0,-2.444367390E-3,-1.168093644E-3,-1.856582165E-1,1.856779812E-1
7.053433792E0,-9.782265406E-4,-3.014411777E-5,-1.858103722E-1,1.858129497E-1
7.063390792E0,7.885143859E-4,1.161620952E-3,-1.804424971E-1,1.804479590E-1
7.073346792E0,1.307240687E-3,-6.908364594E-4,-1.807680130E-1,1.807740597E-1
7.083303792E0,7.341284072E-4,-3.090500832E-5,-1.822093129E-1,1.822107944E-1
7.093260792E0,-1.010182081E-3,1.261678524E-3,-1.848823428E-1,1.848894074E-1
7.103216792E0,-7.859439356E-4,-6.653843448E-4,-1.849558502E-1,1.849587170E-1
7.113173792E0,2.653690521E-3,-6.609847769E-4,-1.872352511E-1,1.872552221E-1
7.123130792E0,-5.919040414E-4,1.036247239E-3,-1.833803207E-1,1.833842037E-1
7.133087792E0,1.192725729E-3,-4.044827074E-5,-1.802293658E-1,1.802333169E-1
7.143043792E0,2.850010991E-3,-1.730224118E-3,-1.806397587E-1,1.806705252E-1
7.153000792E0,1.787241781E-3,1.960573718E-4,-1.831103265E-1,1.831191534E-1
7.162957792E0,2.696444979E-3,-2.112369984E-3,-1.863737553E-1,1.864052295E-1
7.172914792E0,1.496795798E-3,6.408989429E-4,-1.851071119E-1,1.851142729E-1
7.182870792E0,2.669385634E-3,3.591356799E-4,-1.820362210E-1,1.820561462E-1
7.192827792E0,-2.191549866E-4,2.004757524E-3,-1.725095659E-1,1.725213535E-1
7.202784792E0,2.388878725E-3,1.486506313E-3,-1.715806574E-1,1.716037250E-1
7.212741792E0,2.020881278E-3,2.186988480E-3,-1.744483113E-1,1.744737235E-1
7.222697792E0,1.678537810E-4,-1.667936333E-3,-1.847028136E-1,1.847104208E-1
7.232654792E0,-1.136878389E-3,8.533000946E-4,-1.931136549E-1,1.931188865E-1
7.242611792E0,-1.171765733E-3,-1.755265519E-3,-1.906944513E-1,1.907061293E-1
7.252567792E0,1.257945551E-3,-3.878418356E-4,-1.846743971E-1,1.846790887E-1
7.262524792E0,9.703240939E-4,-1.933007501E-3,-1.757386923E-1,1.757520014E-1
7.272481792E0,1.622301759E-3,1.956164837E-3,-1.779410243E-1,1.779591711E-1
7.282438792E0,-8.948845789E-7,-3.378819674E-4,-1.783895046E-1,1.783898245E-1
7.292394792E0,3.476408543E-3,1.912777312E-3,-1.830935478E-1,1.831365376E-1
7.302351792E0,2.407415770E-3,-1.190604642E-3,-1.853798777E-1,1.853993318E-1
7.312308792E0,1.185963978E-3,5.513709038E-5,-1.813286245E-1,1.813325112E-1
7.322265792E0,-1.842316473E-3,-7.707085460E-4,-1.791714579E-1,1.791825869E-1
7.332221792E0,-1.602112548E-3,-7.117865607E-4,-1.733694971E-1,1.733783606E-1
7.342178792E0,2.303945832E-3,9.745275602E-4,-1.784987450E-1,1.785162733E-1
7.352135792E0,2.174881985E-3,1.117801294E-4,-1.805859953E-1,1.805991260E-1
7.362092792E0,4.387673107E-4,-1.183315180E-3,-1.851924509E-1,1.851967511E-1
7.372048792E0,1.068757148E-3,4.249960184E-4,-1.863731891E-1,1.863767380E-1
7.382005792E0,1.534287003E-4,-1.244273037E-3,-1.836112142E-1,1.836154942E-1
7.391962792E0,-1.589945750E-4,1.005901955E-3,-1.801944226E-1,1.801973004E-1
7.401919792E0,-7.054752205E-4,-1.504660584E-3,-1.733503789E-1,1.733583443E-1
7.411875792E0,2.316819504E-3,-8.461251855E-5,-1.733118743E-1,1.733273798E-1
7.421832792E0,2.457167953E-3,-1.020979136E-3,-1.824638247E-1,1.824832250E-1
7.431789792E0,-1.188559574E-3,5.030436441E-4,-1.871656775E-1,1.871701274E-1
7.441746792E0,-9.203791851E-4,5.882643163E-4,-1.948675364E-1,1.948705978E-1
7.451703875E0,2.674967982E-5,-1.846212894E-3,-1.913807392E-1,1.913896459E-1
7.461660875E0,-1.000193879E-5,-8.133612573E-5,-1.828508973E-1,1.828509157E-1
7.471617875E0,3.161652479E-3,1.095162705E-3,-1.736952662E-1,1.737274905E-1
7.481573875E0,2.317164093E-3,1.052019186E-3,-1.709593982E-1,1.709783373E-1
7.491530875E0,4.626504611E-3,-1.550193876E-3,-1.755624115E-1,1.756302024E-1
7.501487875E0,2.062413143E-3,-3.853263333E-4,-1.830610782E-1,1.830731012E-1
7.511444875E0,3.164324444E-4,1.550894231E-4,-1.876467913E-1,1.876471222E-1
7.521400875E0,-2.530220430E-3,2.733338624E-4,-1.864342541E-1,1.864516232E-1
7.531357875E0,-4.977948265E-4,8.122175932E-4,-1.796231717E-1,1.796256978E-1
7.541314875E0,4.442478530E-5,-9.345496073E-4,-1.777831912E-1,1.777856531E-1
7.551271875E0,1.639359631E-3,-2.884427086E-4,-1.745584607E-1,1.745663968E-1
7.561227875E0,5.336151225E-4,3.100696020E-3,-1.728598922E-1,1.728885231E-1
7.571184875E0,-1.562352991E-4,-2.400027588E-4,-1.784998029E-1,1.785000327E-1
7.581141875E0,-1.373299980E-3,-2.943314612E-4,-1.851430535E-1,1.851483806E-1
7.591098875E0,1.517871628E-3,-1.624857076E-3,-1.860635877E-1,1.860768732E-1
7.601054875E0,-4.920160864E-4,1.710485667E-3,-1.872146130E-1,1.872230732E-1
7.611011875E0,-1.022881945E-3,4.290342331E-4,-1.801263690E-1,1.801297842E-1
7.620968875E0,3.898906056E-3,5.038687959E-4,-1.785979867E-1,1.786412500E-1
7.630924875E0,1.292077242E-3,8.196383715E-4,-1.834395230E-1,1.834459045E-1
7.640881875E0,3.112350241E-4,-1.139649190E-3,-1.848715097E-1,1.848752843E-1
7.650838875E0,3.844138118E-4,-1.276340336E-4,-1.884555072E-1,1.884559424E-1
7.660795875E0,-2.466500271E-3,-6.794407964E-4,-1.821685880E-1,1.821865520E-1
7.670751875E0,-2.309722826E-3,-2.710837871E-4,-1.762940288E-1,1.763093670E-1
7.680708875E0,1.655191183E-3,-1.879898831E-3,-1.726590693E-1,1.726772362E-1
7.690665875E0,8.363150991E-4,-3.742963076E-3,-1.716543585E-1,1.716971985E-1
7.700622875E0,1.140181790E-3,-1.125873998E-3,-1.793490201E-1,1.793561781E-1
7.710578875E0,1.945986063E-3,-1.878605224E-3,-1.852020174E-1,1.852217678E-1
7.720535875E0,-8.247666992E-4,6.857523695E-4,-1.854028255E-1,1.854059281E-1
7.730492875E0,1.369224396E-3,2.262694761E-4,-1.811583787E-1,1.811636944E-1
7.740449875E0,4.541621893E-4,1.562643796E-3,-1.764733344E-1,1.764808372E-1
7.750405875E0,-2.182665048E-4,2.578590065E-4,-1.780166924E-1,1.780170130E-1
7.760362875E0,-1.037721173E-3,-7.738498971E-4,-1.810034215E-1,1.810080504E-1
7.770319875E0,1.397150918E-4,1.141608693E-3,-1.804898977E-1,1.804935621E-1
7.780276875E0,1.698463224E-3,1.008450985E-3,-1.793521941E-1,1.793630711E-1
7.790232875E0,6.926449714E-5,1.771981828E-3,-1.760939509E-1,1.761028797E-1
7.800189875E0,3.773922799E-4,5.344394594E-5,-1.755701005E-1,1.755705143E-1
7.810146875E0,5.376110203E-4,1.820763573E-3,-1.789011210E-1,1.789111939E-1
7.820102875E0,1.615658635E-3,1.007970423E-5,-1.838681847E-1,1.838752833E-1
7.830059875E0,4.502875730E-3,-6.832154468E-4,-1.867189705E-1,1.867745074E-1
7.840016875E0,9.102717158E-4,7.551573217E-4,-1.864862144E-1,1.864899649E-1
7.849973875E0,8.460259996E-4,1.238544472E-3,-1.827906966E-1,1.827968504E-1
7.859929875E0,2.177769784E-5,-1.820083708E-5,-1.781056672E-1,1.781056695E-1
7.869886875E0,-1.313644461E-4,1.982313581E-3,-1.774848104E-1,1.774959288E-1
7.879843875E0,1.432976453E-3,-8.243508637E-5,-1.771207601E-1,1.771265758E-1
7.889800875E0,3.674195614E-4,2.185376361E-4,-1.796213239E-1,1.796218327E-1
7.899756875E0,-6.594953593E-4,1.162627712E-3,-1.772151440E-1,1.772201848E-1
7.909713875E0,1.167610404E-3,2.579726279E-4,-1.804942638E-1,1.804982247E-1
7.919670875E0,1.153495745E-3,-1.926884986E-3,-1.796516329E-1,1.796656691E-1
7.929627875E0,-1.496935496E-3,2.266559750E-4,-1.832587421E-1,1.832649960E-1
7.939583875E0,-1.310001826E-4,1.630141400E-3,-1.840789914E-1,1.840862559E-1
7.949540875E0,-1.248386572E-3,1.174248755E-4,-1.865404248E-1,1.865446390E-1
7.959497875E0,1.639811671E-3,-3.787223250E-4,-1.848557144E-1,1.848633754E-1
7.969454875E0,2.682906343E-3,4.169065505E-4,-1.767707467E-1,1.767915968E-1
7.979410875E0,1.792877913E-3,-1.325599849E-3,-1.731850654E-1,1.731994183E-1
7.989367875E0,2.078061923E-3,2.208690159E-3,-1.787379086E-1,1.787636334E-1
7.999324875E0,-3.781961277E-5,-1.174323261E-3,-1.893045306E-1,1.893081767E-1
8.009281875E0,1.508313231E-3,2.076188102E-4,-1.961793005E-1,1.961852086E-1
8.019237875E0,-1.257113181E-3,8.857622743E-5,-1.933057457E-1,1.933098536E-1
8.029194875E0,-9.321810212E-4,4.943925887E-5,-1.829339266E-1,1.829363083E-1
8.039151875E0,1.353343832E-3,-8.810693398E-4,-1.706860512E-1,1.706936903E-1
8.049107875E0,1.694964594E-4,-3.483043984E-4,-1.692290455E-1,1.692294888E-1
8.059064875E0,-1.029192354E-3,-1.834547147E-4,-1.773282439E-1,1.773313254E-1
8.069021875E0,1.029001316E-3,-1.194247976E-3,-1.846070439E-1,1.846137744E-1
8.078978875E0,1.319285948E-3,1.056389883E-3,-1.911134124E-1,1.911208855E-1
8.088934875E0,1.621890813E-3,2.359961160E-3,-1.891493946E-1,1.891710692E-1
8.098891875E0,1.127341762E-3,2.916250378E-5,-1.832576841E-1,1.832611539E-1
8.108848875E0,1.553192036E-3,2.183541656E-4,-1.738440394E-1,1.738511148E-1
8.118805875E0,7.374658016E-4,3.808066249E-4,-1.716141701E-1,1.716161771E-1
8.128761875E0,1.428197022E-3,2.300836146E-3,-1.753466725E-1,1.753675830E-1
8.138718875E0,3.541441984E-4,-9.921630844E-4,-1.823105812E-1,1.823136249E-1
8.148675875E0,7.851546980E-4,3.342281096E-3,-1.850205511E-1,1.850524024E-1
8.158632875E0,-7.150039310E-4,-2.042630687E-3,-1.854786128E-1,1.854912380E-1
8.168588875E0,-1.107242773E-3,1.325048506E-4,-1.812564433E-1,1.812598736E-1
8.178545875E0,-5.875620991E-5,1.249168068E-3,-1.777842045E-1,1.777886027E-1
8.188502875E0,1.044478267E-3,3.032865003E-3,-1.805736423E-1,1.806021303E-1
8.198459875E0,1.086822595E-3,-2.863373607E-3,-1.859718710E-1,1.859970884E-1
8.208415875E0,1.085855765E-4,2.273768187E-4,-1.872682571E-1,1.872684267E-1
8.218372875E0,-1.422465779E-3,-4.751645029E-4,-1.838309169E-1,1.838370343E-1
8.228329875E0,7.334881229E-4,-1.156845130E-3,-1.791567802E-1,1.791620166E-1
8.238285875E0,2.424012055E-4,1.360640861E-3,-1.799815744E-1,1.799868807E-1
8.248242875E0,1.910953782E-3,-1.793656498E-3,-1.836512238E-1,1.836699239E-1
8.258199875E0,1.615232904E-4,2.025583759E-3,-1.864044070E-1,1.864154823E-1
8.268156875E0,3.622490331E-4,2.866443247E-4,-1.837193668E-1,1.837199475E-1
8.278112875E0,-1.002354780E-3,-1.371972263E-3,-1.810583323E-1,1.810663048E-1
8.288069875E0,5.096013192E-4,-8.757086471E-4,-1.754472256E-1,1.754501511E-1
8.298026875E0,2.414560411E-3,1.277723350E-3,-1.762397885E-1,1.762609592E-1
8.307983875E0,7.670472842E-4,-8.852221072E-5,-1.794116944E-1,1.794133559E-1
8.317939875E0,7.771672681E-4,-2.421867102E-4,-1.840091050E-1,1.840109055E-1
8.327896875E0,-5.366886035E-4,-1.212526113E-4,-1.849802434E-1,1.849810617E-1
8.337853875E0,-3.555937437E-4,1.024529338E-4,-1.821804643E-1,1.821808401E-1
8.347810875E0,1.330480678E-3,-2.928351983E-3,-1.799961925E-1,1.800249281E-1
8.357766875E0,3.765364527E-4,8.016712964E-4,-1.752166152E-1,1.752188537E-1
8.367723875E0,9.359614342E-4,-2.944702283E-4,-1.751929969E-1,1.751957445E-1
8.377680875E0,1.268323977E-3,1.080253161E-3,-1.816836596E-1,1.816912979E-1
8.387637875E0,-7.192348130E-5,-1.021586359E-4,-1.865628213E-1,1.865628631E-1
8.397593875E0,-7.776611019E-4,9.995903820E-4,-1.880696267E-1,1.880738909E-1
8.407550875E0,-8.308007382E-4,1.198885962E-3,-1.877180487E-1,1.877237155E-1
8.417507875E0,-1.399918227E-3,-1.594503410E-3,-1.793493330E-1,1.793618841E-1
8.427464875E0,2.671871567E-3,1.303493977E-3,-1.759162694E-1,1.759413875E-1
8.437420875E0,4.433384165E-4,1.982823014E-4,-1.730403155E-1,1.730409970E-1
8.447377875E0,4.692236893E-3,4.174662754E-4,-1.760626584E-1,1.761256684E-1
8.457334500E0,3.942823038E-3,8.723419160E-5,-1.818379760E-1,1.818807383E-1
8.467290500E0,7.487006369E-4,2.856040373E-4,-1.874538660E-1,1.874555787E-1
8.477247500E0,2.758321818E-3,2.083722502E-4,-1.901708245E-1,1.901909416E-1
8.487204500E0,-3.286073916E-4,-1.211713068E-3,-1.872855127E-1,1.872897207E-1
8.497161500E0,-4.423244391E-4,6.658155471E-4,-1.791775227E-1,1.791793057E-1
8.507117500E0,5.824428517E-4,-5.734153092E-5,-1.713719517E-1,1.713729511E-1
8.517074500E0,-4.735005787E-4,2.153664827E-4,-1.700481027E-1,1.700488983E-1
8.527031500E0,8.895071805E-4,-5.659246817E-4,-1.789450943E-1,1.789482000E-1
8.536988500E0,1.337983529E-3,7.885592058E-4,-1.895684451E-1,1.895748069E-1
8.546944500E0,1.176431077E-3,-9.375587106E-4,-1.961755157E-1,1.961812834E-1
8.556901500E0,-1.681673340E-3,-8.579296991E-4,-1.894409060E-1,1.894503126E-1
8.566858500E0,2.508713165E-3,-8.858535439E-4,-1.762222797E-1,1.762423622E-1
8.576815500E0,-8.663107874E-4,-1.201946288E-4,-1.704168618E-1,1.704191061E-1
8.586771500E0,1.881804434E-3,-2.143559977E-4,-1.685661376E-1,1.685767774E-1
8.596728500E0,2.468232531E-3,1.281541772E-3,-1.826183051E-1,1.826394806E-1
8.606685500E0,6.682821549E-5,2.472875640E-3,-1.962376237E-1,1.962532153E-1
8.616642500E0,-4.454420414E-3,-6.751436740E-5,-2.010041475E-1,2.010535097E-1
8.626598500E0,4.879100015E-4,-3.795372322E-4,-1.907030791E-1,1.907040809E-1
8.636555500E0,-9.230327560E-4,-1.315372065E-3,-1.807332784E-1,1.807404219E-1
8.646512500E0,-1.193517004E-3,7.188478485E-4,-1.711061001E-1,1.711117726E-1
8.656469500E0,-5.279929610E-4,1.760954037E-4,-1.633413881E-1,1.633423364E-1
8.666425500E0,2.962552244E-3,5.488982424E-4,-1.694114804E-1,1.694382711E-1
8.676382500E0,2.100487007E-3,2.791201696E-4,-1.843805760E-1,1.843927514E-1
8.686339500E0,7.545466069E-4,-2.416208386E-3,-1.934864521E-1,1.935030092E-1
8.696295500E0,-2.363748848E-3,3.372337669E-4,-1.959882379E-1,1.960027816E-1
8.706252500E0,-1.292731613E-3,-9.774407372E-4,-1.916832775E-1,1.916901286E-1
8.716209500E0,7.584351115E-4,-2.158286050E-3,-1.838466525E-1,1.838608851E-1
8.726166500E0,-1.903469674E-4,9.496342391E-4,-1.750448197E-1,1.750474991E-1
8.736122500E0,-1.264399849E-3,8.883811533E-4,-1.697890759E-1,1.697961077E-1
8.746079500E0,2.370954026E-4,-2.002902329E-5,-1.723277569E-1,1.723279211E-1
8.756036500E0,7.191275363E-4,-2.091135830E-4,-1.802216321E-1,1.802231882E-1
8.765993500E0,6.159032928E-4,-9.439270943E-4,-1.896949708E-1,1.896983192E-1
8.775949500E0,4.646357556E-4,7.884586230E-4,-1.938806623E-1,1.938828223E-1
8.785906500E0,1.408214448E-3,1.045679674E-4,-1.930533350E-1,1.930584993E-1
8.795863500E0,3.855126910E-3,-7.287357002E-4,-1.848468035E-1,1.848884362E-1
8.805820500E0,-1.178344828E-3,-3.770301118E-3,-1.764248908E-1,1.764691071E-1
8.815776500E0,5.545740714E-4,-1.617401838E-3,-1.696711034E-1,1.696797185E-1
8.825733500E0,2.431608737E-3,-1.471072435E-3,-1.714427024E-1,1.714662561E-1
8.835690500E0,-9.210447315E-4,-2.339795232E-3,-1.810282171E-1,1.810456803E-1
8.845647500E0,1.474249642E-3,-1.284850761E-3,-1.906238943E-1,1.906339250E-1
8.855603500E0,-2.297945321E-5,1.249946654E-3,-1.917133927E-1,1.917174688E-1
8.865560500E0,1.651721308E-3,-3.681816161E-4,-1.845266670E-1,1.845344265E-1
8.875517500E0,-1.443146029E-4,1.297359355E-3,-1.741512567E-1,1.741561488E-1
8.885474500E0,3.241532482E-3,-1.638634130E-4,-1.706537753E-1,1.706846373E-1
8.895430500E0,3.169094212E-3,2.494584769E-4,-1.761164516E-1,1.761451388E-1
8.905387500E0,3.045710502E-3,8.027460426E-4,-1.826947480E-1,1.827218972E-1
8.915344500E0,1.147409435E-3,9.606713429E-4,-1.905002147E-1,1.905060924E-1
8.925300500E0,-3.088838421E-4,2.088295296E-3,-1.916161776E-1,1.916278056E-1
8.935257500E0,-3.598952666E-3,-2.795215696E-4,-1.819952428E-1,1.820310386E-1
8.945214500E0,3.548364621E-3,8.892472833E-4,-1.745137572E-1,1.745520928E-1
8.955171500E0,1.560048549E-3,3.310488537E-4,-1.730026752E-1,1.730100256E-1
8.965127500E0,3.062195610E-4,-4.846788943E-4,-1.763407141E-1,1.763416461E-1
8.975084500E0,-1.187281101E-3,-4.141051322E-4,-1.871984303E-1,1.872026534E-1
8.985041500E0,3.115765983E-3,-1.828717068E-4,-1.932853460E-1,1.933105440E-1
8.994998500E0,-2.818555804E-3,-1.380761154E-3,-1.891542524E-1,1.891802896E-1
9.004954500E0,2.509538084E-3,-1.763711683E-3,-1.813342422E-1,1.813601827E-1
9.014911500E0,1.323366188E-3,7.132943720E-4,-1.728528738E-1,1.728594113E-1
9.024868500E0,2.238740912E-3,-1.411917619E-3,-1.738804579E-1,1.739006012E-1
9.034825500E0,1.012355322E-3,2.623303793E-3,-1.787905246E-1,1.788126345E-1
9.044781500E0,1.019793795E-3,-3.848914057E-4,-1.864389628E-1,1.864421491E-1
9.054738500E0,2.256565727E-3,-1.673595048E-3,-1.886794865E-1,1.887004018E-1
9.064695500E0,-8.097122191E-4,-2.860562876E-3,-1.851712167E-1,1.851950808E-1
9.074652500E0,-2.339368220E-4,-5.761031061E-4,-1.801130623E-1,1.801141355E-1
9.084608500E0,7.876404561E-5,-6.141429767E-4,-1.743496209E-1,1.743507204E-1
9.094565500E0,-1.065596240E-3,-1.605638303E-3,-1.757520437E-1,1.757626082E-1
9.104522500E0,6.809854531E-4,1.100526191E-3,-1.822785586E-1,1.822831529E-1
9.114479500E0,-9.925449267E-4,-2.557592466E-3,-1.905881613E-1,1.906079056E-1
9.124435500E0,8.121368010E-4,6.240792572E-6,-1.880710572E-1,1.880728108E-1
9.134392500E0,1.307751052E-3,1.093046740E-4,-1.814120859E-1,1.814168324E-1
9.144349500E0,2.459086478E-3,-1.727240160E-4,-1.750578731E-1,1.750752292E-1
9.154305500E0,7.741043228E-4,9.226342663E-4,-1.718959063E-1,1.719001254E-1
9.164262500E0,-2.431946341E-3,-7.765172049E-4,-1.809698343E-1,1.809878401E-1
9.174219500E0,1.611797372E-3,-1.879585907E-4,-1.849517971E-1,1.849589157E-1
9.184176500E0,-6.248148857E-4,-1.573295332E-3,-1.943352520E-1,1.943426249E-1
9.194132500E0,4.202095442E-4,-1.241998747E-3,-1.946313977E-1,1.946358141E-1
9.204089500E0,-3.944778582E-4,-3.298521042E-4,-1.882443875E-1,1.882450898E-1
9.214046500E0,-3.244366962E-4,-1.210825518E-3,-1.808343977E-1,1.808387424E-1
9.224003500E0,1.459056279E-3,-2.504883334E-3,-1.748714149E-1,1.748954403E-1
9.233959500E0,8.246838115E-5,3.606788814E-4,-1.743438542E-1,1.743442468E-1
9.243916500E0,-1.868066145E-3,-8.397083730E-5,-1.736360490E-1,1.736461179E-1
9.253873500E0,1.223597443E-3,2.108076587E-3,-1.829097122E-1,1.829259522E-1
9.263830500E0,8.956791135E-4,-2.624977380E-3,-1.859077662E-1,1.859284548E-1
9.273786500E0,-1.701179426E-4,9.628329426E-4,-1.875645220E-1,1.875670704E-1
9.283743500E0,3.571996931E-4,-1.604143530E-3,-1.814587861E-1,1.814662281E-1
9.293700500E0,6.208526320E-4,-2.382081002E-4,-1.757665426E-1,1.757678005E-1
9.303657500E0,9.626324754E-5,-1.547150314E-4,-1.708094180E-1,1.708095152E-1
9.313613500E0,2.499499824E-3,7.422380149E-4,-1.719418019E-1,1.719615703E-1
9.323570500E0,1.819380908E-3,1.073998399E-3,-1.792600751E-1,1.792725248E-1
9.333527500E0,1.024410012E-4,1.935531385E-3,-1.853717566E-1,1.853818894E-1
9.343484500E0,-7.388672093E-4,-9.779632092E-5,-1.899836957E-1,1.899851577E-1
9.353440500E0,1.063027536E-3,-1.389533281E-6,-1.855023950E-1,1.855054409E-1
9.363397500E0,-1.497760764E-3,9.613763541E-4,-1.763769239E-1,1.763859031E-1
9.373354500E0,-1.615472487E-3,1.602973789E-4,-1.745377481E-1,1.745452977E-1
9.383311500E0,1.866166946E-3,-8.257925510E-4,-1.794922352E-1,1.795038356E-1
9.393267500E0,1.346584177E-3,-6.665354595E-4,-1.875206083E-1,1.875266277E-1
9.403224500E0,-6.700108061E-4,-1.078653149E-3,-1.940044463E-1,1.940086018E-1
9.413181500E0,3.066682257E-5,-2.817964181E-3,-1.857750118E-1,1.857963855E-1
9.423137500E0,1.179010025E-3,6.934655830E-4,-1.769062728E-1,1.769115607E-1
9.433094500E0,-2.101878636E-6,-6.233900785E-5,-1.713184267E-1,1.713184381E-1
9.443051500E0,8.170469664E-4,1.126397401E-4,-1.763029099E-1,1.763048391E-1
9.453008500E0,7.382173790E-4,1.810826361E-4,-1.844870746E-1,1.844886405E-1
9.462964500E0,1.660374925E-3,9.287176654E-4,-1.900522709E-1,1.900617927E-1
9.472921500E0,-2.762759104E-4,-8.310992271E-4,-1.932153106E-1,1.932172955E-1
9.482878500E0,-6.484930636E-4,8.660200983E-4,-1.840497851E-1,1.840529650E-1
9.492835500E0,2.353422111E-3,2.787932754E-4,-1.753961146E-1,1.754121242E-1
9.502791500E0,1.458246727E-3,6.490917876E-4,-1.700007617E-1,1.700082551E-1
9.512748500E0,1.882222015E-3,-1.211925410E-3,-1.716910750E-1,1.717056689E-1
9.522705500E0,1.112405560E-3,1.506896690E-3,-1.774685681E-1,1.774784518E-1
9.532662500E0,1.226655208E-3,-7.748994976E-4,-1.842247397E-1,1.842304531E-1
9.542618500E0,1.336857211E-3,-1.422918402E-3,-1.855163723E-1,1.855266458E-1
9.552575500E0,6.031563971E-4,8.783191442E-4,-1.833954304E-1,1.833985255E-1
9.562532500E0,-3.049521474E-4,-1.442866400E-3,-1.832230538E-1,1.832289887E-1
9.572489500E0,1.661259681E-3,-1.294794492E-3,-1.854097694E-1,1.854217325E-1
9.582445500E0,-2.118567936E-3,-3.399476409E-4,-1.860357076E-1,1.860480809E-1
9.592402500E0,2.662926563E-4,-1.399086788E-3,-1.786891073E-1,1.786947829E-1
9.602359500E0,1.236964716E-3,-2.077165991E-4,-1.739595383E-1,1.739640601E-1
9.612316500E0,8.486758452E-4,-1.557851210E-4,-1.763744950E-1,1.763766056E-1
9.622272500E0,1.041683019E-3,7.791742682E-4,-1.816015244E-1,1.816061834E-1
9.632229500E0,-1.002805075E-4,-3.811651841E-4,-1.860356927E-1,1.860361102E-1
9.642186500E0,1.340589370E-3,-5.253637210E-4,-1.845941395E-1,1.845997549E-1
9.652142500E0,-8.759596385E-4,-1.028434373E-3,-1.798792779E-1,1.798843507E-1
9.662099500E0,-1.574838185E-3,-7.611252367E-4,-1.757527590E-1,1.757614625E-1
9.672056500E0,1.948790275E-3,-5.952101201E-4,-1.755391806E-1,1.755510068E-1
9.682013500E0,1.102850889E-3,7.104212418E-4,-1.832699776E-1,1.832746727E-1
9.691969500E0,1.803318737E-4,6.006984040E-4,-1.906333566E-1,1.906343883E-1
9.701926500E0,2.429854590E-3,-3.207782283E-4,-1.922008991E-1,1.922165256E-1
9.711883500E0,2.882858273E-3,-9.487513453E-4,-1.883451790E-1,1.883696298E-1
9.721840500E0,9.589649853E-4,-1.718660817E-3,-1.768012792E-1,1.768122330E-1
9.731796500E0,3.933095722E-4,-5.995994434E-4,-1.707292795E-1,1.707307854E-1
9.741753500E0,1.816959935E-3,-1.104761846E-3,-1.745143235E-1,1.745272785E-1
9.751710500E0,-1.202233834E-4,-8.749309927E-4,-1.816713065E-1,1.816734531E-1
9.761667500E0,6.818934344E-5,-8.812081069E-5,-1.928347349E-1,1.928347671E-1
9.771623500E0,-1.986705698E-3,-3.486314788E-3,-1.945066750E-1,1.945480609E-1
9.781580500E0,9.770999895E-4,1.030986197E-3,-1.867980808E-1,1.868034814E-1
9.791537500E0,6.623143563E-4,6.855744869E-4,-1.760274470E-1,1.760300280E-1
9.801494500E0,5.172836827E-4,2.412575297E-3,-1.706915796E-1,1.707094123E-1
9.811450500E0,2.484827070E-3,9.052259848E-4,-1.749030948E-1,1.749230870E-1
9.821407500E0,2.293516183E-3,-9.657684714E-4,-1.833770573E-1,1.833939423E-1
9.831364500E0,-5.970789352E-4,-1.580160111E-3,-1.929433942E-1,1.929507885E-1
9.841321500E0,1.241722493E-4,7.050959393E-4,-1.911487728E-1,1.911501136E-1
9.851277500E0,4.392242408E-4,-2.997145057E-4,-1.819331795E-1,1.819339566E-1
9.861234500E0,2.651184332E-5,-2.410234883E-4,-1.708960980E-1,1.708962700E-1
9.871191500E0,2.246789169E-3,6.924150512E-4,-1.715693474E-1,1.715854553E-1
9.881148500E0,4.174622009E-4,1.330426894E-3,-1.732869148E-1,1.732925248E-1
9.891104500E0,-4.110472510E-4,3.205565736E-4,-1.812441647E-1,1.812449143E-1
9.901061500E0,1.055365195E-3,2.528950572E-4,-1.904780418E-1,1.904811333E-1
9.911018500E0,1.522483770E-3,-8.612498641E-5,-1.902050674E-1,1.902111801E-1
9.920975500E0,3.141671186E-5,1.366659999E-3,-1.897072494E-1,1.897121747E-1
9.930931500E0,9.187043179E-5,-9.116744623E-4,-1.823534667E-1,1.823557688E-1
9.940888500E0,1.563227037E-3,1.090702601E-3,-1.806605458E-1,1.806706012E-1
9.950845500E0,9.823915316E-4,-6.608581170E-4,-1.809050143E-1,1.809088887E-1
9.960802500E0,-1.879145275E-3,-1.857085153E-4,-1.815367341E-1,1.815465546E-1
9.970758500E0,-1.571283792E-3,9.549232200E-4,-1.816643029E-1,1.816736078E-1
9.980715500E0,5.497388775E-4,3.425944597E-4,-1.833334118E-1,1.833345561E-1
9.990672500E0,5.539999111E-4,5.417410284E-5,-1.836718917E-1,1.836727352E-1
1.000062850E1,1.036272850E-3,8.733011782E-6,-1.821043193E-1,1.821072680E-1
1.001058550E1,1.448263880E-3,1.277765259E-4,-1.787268966E-1,1.787328100E-1
1.002054250E1,1.561653567E-3,-3.190217540E-4,-1.784956902E-1,1.785028066E-1
1.003049950E1,-3.156085731E-4,-1.253258437E-3,-1.749110669E-1,1.749158414E-1
1.004045550E1,1.268904656E-3,-4.837056622E-4,-1.758299619E-1,1.758352058E-1
1.005041250E1,1.442517969E-4,-2.064704895E-4,-1.837802976E-1,1.837804702E-1
1.006036950E1,1.517093624E-4,2.280355431E-3,-1.909160912E-1,1.909297696E-1
1.007032650E1,-1.266690320E-3,-1.365512609E-3,-1.930940300E-1,1.931030128E-1
1.008028250E1,1.859947457E-3,-1.072092913E-3,-1.867499202E-1,1.867622593E-1
1.009023950E1,1.564336591E-3,-6.417259574E-4,-1.780983657E-1,1.781063918E-1
1.010019650E1,5.643071141E-3,-1.019984484E-4,-1.693256497E-1,1.694196869E-1
1.011015350E1,7.431209087E-4,1.497763209E-3,-1.660393178E-1,1.660477359E-1
1.012010950E1,5.460100947E-4,-1.581058837E-3,-1.759688854E-1,1.759768352E-1
1.013006650E1,-1.461214502E-3,-1.170399599E-3,-1.894948035E-1,1.895040516E-1
1.014002350E1,-2.287527081E-3,-3.933496773E-4,-1.955477744E-1,1.955615494E-1
1.014998050E1,-3.105916316E-3,-5.057351664E-4,-1.922915280E-1,1.923172749E-1
1.015993650E1,8.923467249E-4,-5.120141432E-4,-1.847700328E-1,1.847728970E-1
1.016989350E1,8.068592288E-4,1.398537308E-3,-1.741480231E-1,1.741555078E-1
1.017985050E1,2.081697807E-3,-7.586376742E-4,-1.689634323E-1,1.689779585E-1
1.018980750E1,-4.499029601E-4,1.298920251E-3,-1.754157394E-1,1.754211254E-1
1.019976350E1,7.564187981E-4,-1.423237845E-4,-1.850576997E-1,1.850593003E-1
1.020972050E1,1.150034019E-3,-1.870448701E-3,-1.871837080E-1,1.871965857E-1
1.021967750E1,-2.221916802E-4,-1.152173616E-3,-1.858523488E-1,1.858560530E-1
1.022963450E1,1.314984867E-3,-1.682675444E-3,-1.783840358E-1,1.783968184E-1
1.023959050E1,8.543668664E-4,-7.564816624E-4,-1.763568521E-1,1.763605440E-1
1.024954750E1,2.985220635E-5,3.660405055E-4,-1.711679548E-1,1.711683488E-1
1.025950450E1,1.657081768E-3,2.178208902E-3,-1.785023063E-1,1.785232867E-1
1.026946150E1,1.100514201E-4,-1.954669133E-4,-1.830720156E-1,1.830721531E-1
1.027941750E1,-1.168524497E-3,1.233165152E-3,-1.855252087E-1,1.855329869E-1
1.028937450E1,-1.086499193E-3,-1.112547703E-3,-1.884948909E-1,1.885013054E-1
1.029933150E1,4.414941650E-4,2.142840065E-3,-1.884185970E-1,1.884312988E-1
1.030928850E1,2.675619908E-3,1.108468510E-3,-1.806248575E-1,1.806480745E-1
1.031924450E1,7.286099717E-4,9.435964748E-4,-1.772497594E-1,1.772537686E-1
1.032920150E1,2.343284432E-3,3.390591592E-4,-1.765967458E-1,1.766126173E-1
1.033915850E1,3.606665414E-4,1.506060362E-4,-1.823806763E-1,1.823810951E-1
1.034911550E1,3.032083623E-3,-1.263799146E-3,-1.922335774E-1,1.922616420E-1
1.035907150E1,-2.156197093E-3,-8.502509445E-4,-1.929730326E-1,1.929869514E-1
1.036902850E1,1.170889940E-3,-1.185010187E-3,-1.862269789E-1,1.862344300E-1
1.037898550E1,1.990830060E-3,2.720300108E-5,-1.744117439E-1,1.744231078E-1
1.038894250E1,-1.134922146E-3,1.174492761E-3,-1.652374268E-1,1.652454982E-1
1.039889850E1,1.016491326E-3,1.937855035E-3,-1.698028594E-1,1.698169591E-1
1.040885550E1,-8.732876740E-4,-1.543961465E-3,-1.814280897E-1,1.814367609E-1
1.041881250E1,1.848334796E-4,-6.264764816E-4,-1.947537661E-1,1.947548614E-1
1.042876850E1,-1.561667537E-3,9.357342497E-4,-1.984249353E-1,1.984332869E-1
1.043872550E1,1.880957047E-3,-7.625594735E-4,-1.915671974E-1,1.915779492E-1
1.044868250E1,-1.508181798E-3,-2.688094974E-4,-1.821228266E-1,1.821292696E-1
1.045863950E1,3.523193300E-3,-5.270559341E-4,-1.707448810E-1,1.707820397E-1
1.046859550E1,1.723162830E-3,5.999943241E-4,-1.652406603E-1,1.652507340E-1
1.047855250E1,3.294996684E-3,2.197018825E-3,-1.737647802E-1,1.738099040E-1
1.048850950E1,-4.320971202E-4,-1.526080072E-3,-1.901919693E-1,1.901985826E-1
1.049846650E1,1.687943353E-3,1.129182056E-4,-1.975516081E-1,1.975588514E-1
1.050842250E1,1.662131399E-4,-1.072188839E-3,-1.957052350E-1,1.957082426E-1
1.051837950E1,-1.557801384E-3,3.899075091E-4,-1.863086224E-1,1.863155429E-1
1.052833650E1,-2.189769410E-3,-9.637773037E-4,-1.786922365E-1,1.787082521E-1
1.053829350E1,1.581589691E-3,-9.504416957E-4,-1.759317666E-1,1.759414427E-1
1.054824950E1,3.477494000E-3,1.362245530E-5,-1.743839383E-1,1.744186088E-1
1.055820650E1,-5.746555980E-4,1.373983920E-3,-1.776344925E-1,1.776407357E-1
1.056816350E1,-1.661757939E-3,9.500086308E-4,-1.858287752E-1,1.858386333E-1
1.057812050E1,-1.078592963E-3,-3.954647109E-4,-1.899365783E-1,1.899400524E-1
1.058807650E1,-6.205291720E-4,1.563420519E-4,-1.923243701E-1,1.923254347E-1
1.059803350E1,-3.759169485E-4,1.300526783E-4,-1.883328259E-1,1.883332460E-1
1.060799050E1,-4.435336450E-5,1.457106322E-3,-1.794868708E-1,1.794927907E-1
1.061794750E1,3.729045857E-3,-2.968478948E-4,-1.721211672E-1,1.721618137E-1
1.062790350E1,1.415017759E-4,1.677086577E-3,-1.692721248E-1,1.692804917E-1
1.063786050E1,-1.397996675E-4,1.032209955E-3,-1.790059656E-1,1.790089962E-1
1.064781750E1,-9.003984742E-4,9.318087250E-4,-1.877975911E-1,1.878020612E-1
1.065777450E1,-1.317605725E-3,-1.145486720E-3,-1.944343001E-1,1.944421386E-1
1.066773050E1,-4.674529191E-5,-1.261867583E-3,-1.876376569E-1,1.876419057E-1
1.067768750E1,1.036673435E-3,2.004440874E-3,-1.775042117E-1,1.775185557E-1
1.068764450E1,2.123775892E-3,1.388965175E-4,-1.684390754E-1,1.684525210E-1
1.069760150E1,2.184465062E-3,2.811435610E-3,-1.705767214E-1,1.706138739E-1
1.070755750E1,2.319753636E-3,-6.887568161E-4,-1.847045273E-1,1.847203780E-1
1.071751450E1,1.101493021E-3,-5.836868659E-4,-1.981227994E-1,1.981267211E-1
1.072747150E1,-1.045547542E-3,-1.753081568E-3,-1.979544908E-1,1.979650143E-1
1.073742850E1,8.915021317E-4,-2.349582501E-3,-1.888702810E-1,1.888869989E-1
1.074738450E1,-1.024908619E-3,1.191356219E-3,-1.792805046E-1,1.792873924E-1
1.075734150E1,1.234510099E-3,5.369726568E-5,-1.689537466E-1,1.689582652E-1
1.076729850E1,1.753826509E-3,7.024435326E-4,-1.700546890E-1,1.700651834E-1
1.077725550E1,3.121383488E-4,7.835207507E-4,-1.797637939E-1,1.797657725E-1
1.078721150E1,5.201312015E-4,-2.814409323E-3,-1.939906627E-1,1.940117745E-1
1.079716850E1,-4.890809068E-4,2.176910639E-4,-1.939134896E-1,1.939142285E-1
1.080712550E1,2.714701928E-3,-1.224144362E-3,-1.869349480E-1,1.869586663E-1
1.081708250E1,1.833114773E-3,9.507546201E-4,-1.793273091E-1,1.793391983E-1
1.082703850E1,1.342842588E-4,1.852234825E-3,-1.692091525E-1,1.692193431E-1
1.083699550E1,1.111987513E-3,9.075002745E-4,-1.733876914E-1,1.733936319E-1
1.084695250E1,1.263515442E-4,-3.259535879E-5,-1.778926998E-1,1.778927477E-1
1.085690950E1,1.014663954E-3,-1.648301259E-3,-1.867879927E-1,1.867980210E-1
1.086686550E1,-1.621332834E-3,-1.714080572E-3,-1.899949759E-1,1.900096252E-1
1.087682250E1,-7.192220073E-5,-1.428920776E-3,-1.863613576E-1,1.863668495E-1
1.088677950E1,2.617337741E-3,5.215778947E-4,-1.779705435E-1,1.779905527E-1
1.089673650E1,6.549368845E-5,1.013442874E-3,-1.754912883E-1,1.754942268E-1
1.090669250E1,2.263400471E-3,1.511187293E-3,-1.779243499E-1,1.779451628E-1
1.091664950E1,-4.696470220E-3,-7.320670411E-4,-1.822637916E-1,1.823257592E-1
1.092660650E1,2.156109782E-3,-1.413836144E-3,-1.847615689E-1,1.847795581E-1
1.093656350E1,1.079363865E-3,-1.100681722E-3,-1.840263605E-1,1.840328174E-1
1.094651950E1,1.151002944E-3,3.375825472E-3,-1.818369776E-1,1.818719534E-1
1.095647650E1,2.024478279E-3,-2.908213064E-4,-1.815481335E-1,1.815596537E-1
1.096643350E1,-6.285627605E-4,2.084719017E-3,-1.821763664E-1,1.821893785E-1
1.097639050E1,8.145031752E-4,-1.698405482E-3,-1.809073538E-1,1.809171596E-1
1.098634650E1,-1.295519294E-3,-2.571920864E-3,-1.820471883E-1,1.820699643E-1
1.099630350E1,1.970152953E-4,7.732640952E-4,-1.832807511E-1,1.832824882E-1
1.100626050E1,4.462871875E-4,-6.576525047E-4,-1.799022704E-1,1.799040260E-1
1.101621750E1,2.381284256E-3,-1.070551574E-3,-1.812109202E-1,1.812297277E-1
1.102617350E1,5.146747571E-4,1.992443576E-4,-1.790095568E-1,1.790104075E-1
1.103613050E1,6.725281710E-4,-3.454783931E-3,-1.821220219E-1,1.821560284E-1
1.104608750E1,-7.152451435E-4,-2.512680367E-4,-1.809337139E-1,1.809353021E-1
1.105604450E1,7.856360171E-4,5.074348301E-4,-1.817031801E-1,1.817055870E-1
1.106600050E1,8.221213357E-4,-5.892552435E-4,-1.820813566E-1,1.820841661E-1
1.107595750E1,9.876624681E-4,-8.723866194E-4,-1.814631820E-1,1.814679667E-1
1.108591450E1,1.546256826E-4,-1.500891522E-3,-1.829425693E-1,1.829487913E-1
1.109587150E1,2.351753181E-3,1.394562423E-3,-1.842205673E-1,1.842408559E-1
1.110582750E1,-8.642801549E-4,1.144491136E-3,-1.851774454E-1,1.851829990E-1
1.111578450E1,-4.264300223E-4,4.802737385E-5,-1.852829307E-1,1.852834277E-1
1.112574150E1,9.898390854E-4,-6.220238283E-4,-1.815004349E-1,1.815041998E-1
1.113569850E1,2.644298831E-3,-2.853116021E-4,-1.776857078E-1,1.777056118E-1
1.114565450E1,1.479432220E-3,7.021883503E-4,-1.782457829E-1,1.782533054E-1
1.115561150E1,1.317374874E-3,7.468890399E-4,-1.804894060E-1,1.804957589E-1
1.116556850E1,3.793315729E-3,1.199813560E-4,-1.810300201E-1,1.810697982E-1
1.117552450E1,1.291351509E-3,2.548722550E-4,-1.822977066E-1,1.823024585E-1
1.118548150E1,1.859403797E-3,-6.284285337E-5,-1.810377538E-1,1.810473133E-1
1.119543850E1,9.713619947E-4,5.326736718E-4,-1.817605346E-1,1.817639107E-1
1.120539550E1,1.132483245E-3,1.282885671E-3,-1.815826297E-1,1.815906928E-1
1.121535150E1,9.352562483E-5,3.439886495E-4,-1.842656285E-1,1.842659733E-1
1.122530850E1,2.003544709E-3,-1.266424544E-3,-1.855234355E-1,1.855385759E-1
1.123526550E1,-5.111845676E-4,-4.913546145E-4,-1.822418571E-1,1.822432364E-1
1.124522250E1,2.694462426E-3,2.108157612E-3,-1.789216846E-1,1.789543900E-1
1.125517850E1,1.413219841E-3,2.419921570E-3,-1.768798530E-1,1.769020509E-1
1.126513550E1,2.232674509E-3,-3.561582416E-4,-1.792838871E-1,1.792981424E-1
1.127509250E1,1.162732020E-3,1.696944237E-4,-1.815126985E-1,1.815165019E-1
1.128504950E1,-1.883125165E-3,1.099936664E-3,-1.842253953E-1,1.842383030E-1
1.129500550E1,-7.727495395E-4,-2.155676484E-4,-1.807829589E-1,1.807847389E-1
1.130496250E1,8.017112850E-4,-1.182029024E-3,-1.752686203E-1,1.752744396E-1
1.131491950E1,2.331262920E-3,-9.527187794E-4,-1.740641147E-1,1.740823325E-1
1.132487650E1,5.292857531E-5,1.316294074E-3,-1.671593338E-1,1.671645247E-1
1.133483250E1,-2.091335831E-3,7.934626192E-4,-1.617600471E-1,1.617755114E-1
1.134478950E1,4.391998227E-4,-2.041580155E-4,-1.597123295E-1,1.597130639E-1
1.135474650E1,4.025653936E-3,-4.055220634E-4,-1.590800136E-1,1.591314585E-1
1.136470350E1,-3.174290759E-4,-2.566143870E-3,-1.602797657E-1,1.603006212E-1
1.137465950E1,1.827940578E-3,9.421855211E-4,-1.567812115E-1,1.567946981E-1
1.138461650E1,-9.888848290E-4,-6.192261353E-4,-1.519001722E-1,1.519046532E-1
1.139457350E1,-1.209095935E-3,-8.409637958E-4,-1.501536667E-1,1.501608896E-1
1.140453050E1,-3.225294640E-4,-3.781057894E-4,-1.424792260E-1,1.424800927E-1
1.141448650E1,-4.145260900E-4,9.817602113E-4,-1.406819373E-1,1.406859736E-1
1.142444350E1,2.006819937E-3,1.437160186E-3,-1.391575485E-1,1.391794384E-1
1.143440050E1,2.091330942E-3,4.716040567E-4,-1.427995861E-1,1.428156779E-1
1.144435750E1,1.424297807E-4,6.785318255E-4,-1.409630775E-1,1.409647826E-1
1.145431367E1,1.818891615E-4,1.175452024E-3,-1.395465285E-1,1.395515975E-1
1.146427067E1,-2.477213275E-5,3.273223527E-3,-1.327658445E-1,1.328061898E-1
1.147422767E1,-1.886698883E-4,1.128898002E-3,-1.251444966E-1,1.251497304E-1
1.148418467E1,-6.603156216E-4,-2.452787012E-3,-1.196059138E-1,1.196328834E-1
1.149414067E1,1.482297899E-3,4.094736651E-4,-1.196147278E-1,1.196246128E-1
1.150409767E1,-7.129458245E-4,2.353581600E-3,-1.202410981E-1,1.202662434E-1
1.151405467E1,1.732993172E-3,6.334120408E-4,-1.224789545E-1,1.224928519E-1
1.152401167E1,-1.427379902E-3,-1.455629244E-4,-1.235229149E-1,1.235312475E-1
1.153396767E1,-6.368061295E-4,9.807040915E-4,-1.193190515E-1,1.193247810E-1
1.154392467E1,-2.346688416E-4,-2.320995554E-4,-1.151360199E-1,1.151364930E-1
1.155388167E1,1.699948567E-3,3.177679144E-3,-1.060666367E-1,1.061278422E-1
1.156383867E1,-6.654710742E-4,8.335644379E-4,-1.016899943E-1,1.016955881E-1
1.157379467E1,3.698884975E-4,1.987729222E-3,-1.002442092E-1,1.002645967E-1
1.158375167E1,-1.903385855E-3,5.474919453E-4,-9.857973456E-2,9.859962825E-2