"Time (s)","Gyroscope x (rad/s)","Gyroscope y (rad/s)","Gyroscope z (rad/s)","Absolute (rad/s)"
3.383333387E-5,-1.114088809E-4,2.135050483E-3,2.273683250E-1,2.273783764E-1
9.989833336E-3,-1.986008137E-3,1.367794350E-3,2.295521200E-1,2.295647858E-1
1.994583333E-2,-3.152259160E-3,1.617929898E-3,2.321970612E-1,2.322240936E-1
2.990183334E-2,-2.114159055E-3,4.988694564E-4,2.336455435E-1,2.336556409E-1
3.985783333E-2,-4.579864908E-4,1.624656841E-3,2.376440465E-1,2.376500413E-1
4.981383334E-2,-1.867597806E-3,3.311596811E-4,2.367271185E-1,2.367347170E-1
5.976983333E-2,-3.717445303E-3,2.605411224E-3,2.362095714E-1,2.362531887E-1
6.972583333E-2,-2.942731604E-3,3.802502062E-3,2.360660285E-1,2.361149900E-1
7.968183334E-2,-5.227028392E-3,2.457752824E-3,2.377191484E-1,2.377893099E-1
8.963783333E-2,-1.139076194E-3,4.287344869E-3,2.360333651E-1,2.360750480E-1
9.959383334E-2,-3.811241128E-3,3.284509294E-3,2.340601385E-1,2.341142071E-1
1.095498333E-1,-1.906015910E-3,4.492519423E-3,2.372599244E-1,2.373101080E-1
1.195058333E-1,-5.917138187E-4,2.857595682E-3,2.355715483E-1,2.355896228E-1
1.294618333E-1,-2.348867245E-3,3.501814790E-3,2.328609824E-1,2.328991563E-1
1.394178333E-1,-3.094457090E-3,1.963777468E-3,2.342786640E-1,2.343073291E-1
1.493738333E-1,-2.212151885E-3,1.009033993E-3,2.373157442E-1,2.373281993E-1
1.593298333E-1,-4.000791349E-3,1.600320451E-3,2.336875945E-1,2.337273180E-1
1.692858333E-1,-3.119817935E-3,2.225897275E-3,2.338620424E-1,2.338934432E-1
1.792418333E-1,-3.929923289E-3,4.625839181E-3,2.332394868E-1,2.333184538E-1
1.891978333E-1,-2.818852430E-3,3.436204977E-3,2.345843911E-1,2.346264904E-1
1.991538333E-1,-2.509872895E-3,2.249081619E-3,2.344223559E-1,2.344465798E-1
2.091098333E-1,-1.516513410E-3,1.394206658E-3,2.330732048E-1,2.330823082E-1
2.190658333E-1,1.086806878E-4,1.167044044E-3,2.315992266E-1,2.316021925E-1
2.290218333E-1,-3.153691534E-3,1.509260386E-3,2.321808636E-1,2.322071857E-1
2.389778333E-1,-2.387195127E-3,1.280438155E-3,2.294531912E-1,2.294691813E-1
2.489338333E-1,8.453498594E-4,7.677795365E-4,2.296910137E-1,2.296938525E-1
2.588898333E-1,-1.600104617E-3,6.295647472E-4,2.323123962E-1,2.323187597E-1
2.688458333E-1,-1.201429404E-3,-8.855070919E-4,2.328671366E-1,2.328719194E-1
2.788008333E-1,-1.967721153E-3,2.470437437E-3,2.316015214E-1,2.316230552E-1
2.887568333E-1,-1.692883088E-3,-5.613053218E-4,2.353635132E-1,2.353702706E-1
2.987128333E-1,-1.677604392E-3,1.932622865E-3,2.341292202E-1,2.341432065E-1
3.086688333E-1,-3.617983777E-3,2.572313882E-3,2.359090149E-1,2.359507786E-1
3.186248333E-1,6.634013262E-4,-4.379153252E-4,2.320353687E-1,2.320367303E-1
3.285808333E-1,-8.865584387E-4,7.615722716E-4,2.334383279E-1,2.334412537E-1
3.385368333E-1,-2.897003433E-3,2.196515910E-3,2.316596806E-1,2.316882063E-1
3.484928333E-1,-2.395796822E-3,8.462835103E-5,2.288689613E-1,2.288815162E-1
3.584488333E-1,-1.202414860E-3,2.505848184E-3,2.284922153E-1,2.285091191E-1
3.684048333E-1,-1.387483208E-4,1.561758108E-3,2.256234586E-1,2.256289064E-1
3.783608333E-1,-3.438561689E-4,9.939959273E-4,2.243477404E-1,2.243502059E-1
3.883168333E-1,-2.747358987E-3,7.167607546E-4,2.302943170E-1,2.303118194E-1
3.982728333E-1,1.175693353E-3,2.821350470E-3,2.304466069E-1,2.304668759E-1
4.082288333E-1,-1.971097663E-3,3.158240579E-3,2.316804379E-1,2.317103473E-1
4.181848333E-1,1.470401185E-4,-1.174419187E-3,2.295433581E-1,2.295464095E-1
4.281408333E-1,-8.284758078E-4,-8.516442031E-4,2.309111655E-1,2.309142222E-1
4.380966667E-1,-2.061629901E-3,5.977395922E-4,2.312346399E-1,2.312446027E-1
4.480526667E-1,-2.118088771E-3,4.745612852E-3,2.327238768E-1,2.327818936E-1
4.580086667E-1,4.166385625E-4,2.363922074E-3,2.297336310E-1,2.297461707E-1
4.679646667E-1,-3.224967746E-3,3.625994083E-3,2.299147248E-1,2.299659300E-1
4.779206667E-1,-1.077443478E-3,1.439195126E-3,2.302609682E-1,2.302679866E-1
4.878766667E-1,-3.165628295E-3,1.203771681E-3,2.329986989E-1,2.330233121E-1
4.978326667E-1,-1.183731365E-3,1.063052565E-3,2.318286300E-1,2.318340893E-1
5.077886667E-1,-1.694791834E-3,4.961387720E-3,2.317213118E-1,2.317806162E-1
5.177446667E-1,-3.517674282E-3,1.270406879E-3,2.344042510E-1,2.344340864E-1
5.277006667E-1,-1.951469108E-3,1.380128786E-3,2.336593568E-1,2.336715815E-1
5.376566667E-1,-2.398737706E-3,1.656088047E-3,2.326298207E-1,2.326480820E-1
5.476126667E-1,-3.453082871E-3,9.479532018E-4,2.329059839E-1,2.329335093E-1
5.575686667E-1,-9.277181234E-4,9.909709916E-4,2.299328297E-1,2.299368367E-1
5.675246667E-1,-5.484840367E-4,-1.491280273E-4,2.294784933E-1,2.294791973E-1
5.774806667E-1,-4.673809744E-4,1.461497508E-3,2.302891165E-1,2.302942283E-1
5.874366667E-1,-3.216029378E-3,2.681225538E-3,2.319402695E-1,2.319780602E-1
5.973926667E-1,-6.224713288E-4,2.548465040E-3,2.300238907E-1,2.300388499E-1
6.073486667E-1,-2.191339387E-3,-1.212184317E-3,2.296800762E-1,2.296937282E-1
6.173046667E-1,-3.043322824E-3,1.492101699E-3,2.291836441E-1,2.292087060E-1
6.272606667E-1,-2.410023008E-3,2.328068018E-3,2.290209234E-1,2.290454354E-1
6.372166667E-1,1.268160762E-3,2.327411436E-3,2.306001186E-1,2.306153503E-1
6.471726667E-1,-2.141750883E-3,8.509550244E-4,2.320326567E-1,2.320441014E-1
6.571286667E-1,-1.076872228E-3,8.366061375E-4,2.338600308E-1,2.338640065E-1
6.670836667E-1,-1.881413162E-3,3.303401172E-6,2.355404794E-1,2.355479934E-1
6.770396667E-1,-4.008371383E-3,2.990857232E-3,2.365487069E-1,2.366015702E-1
6.869956667E-1,3.592123976E-4,1.913608052E-3,2.330892533E-1,2.330973851E-1
6.969516667E-1,1.846507308E-3,3.373405430E-3,2.301545739E-1,2.301867011E-1
7.069076667E-1,1.163939130E-3,-3.182683140E-4,2.267457247E-1,2.267489354E-1
7.168636667E-1,-5.357109476E-4,1.200848259E-3,2.250258625E-1,2.250297043E-1
7.268196667E-1,-1.905641053E-3,1.377146691E-4,2.259827405E-1,2.259908172E-1
7.367756667E-1,-2.322065644E-3,5.607027560E-5,2.251295894E-1,2.251415714E-1
7.467316667E-1,7.972950116E-4,3.032153007E-3,2.267165631E-1,2.267382403E-1
7.566876667E-1,-3.514648415E-4,-5.323616788E-4,2.276373953E-1,2.276382891E-1
7.666436667E-1,2.378275152E-3,2.077687532E-5,2.307721972E-1,2.307844528E-1
7.765996667E-1,7.210486801E-4,3.512166440E-4,2.321291715E-1,2.321305571E-1
7.865556667E-1,-6.480824668E-4,-4.085833207E-4,2.306149006E-1,2.306161732E-1
7.965116667E-1,-8.314782754E-4,3.990018740E-4,2.250287384E-1,2.250306283E-1
8.064676667E-1,-2.176108304E-3,5.497364327E-4,2.243914455E-1,2.244026704E-1
8.164236667E-1,-5.388627760E-4,2.099431586E-3,2.259939313E-1,2.260043251E-1
8.263796667E-1,-3.045962658E-3,7.148543373E-4,2.281585336E-1,2.281799845E-1
8.363356667E-1,-1.939982641E-3,7.727444172E-4,2.270654738E-1,2.270750758E-1
8.462916667E-1,-2.067281865E-3,3.203411587E-3,2.319222689E-1,2.319536038E-1
8.562476667E-1,-2.137804171E-3,5.248812959E-4,2.304710895E-1,2.304816019E-1
8.662036667E-1,-4.684585147E-3,1.224773005E-4,2.320950776E-1,2.321423817E-1
8.761596667E-1,-7.760664448E-4,4.413501360E-3,2.326280177E-1,2.326711754E-1
8.861156667E-1,-2.658388810E-3,1.662988216E-3,2.332109809E-1,2.332320608E-1
8.960716667E-1,1.698211534E-3,2.439016942E-3,2.323694378E-1,2.323884428E-1
9.060276667E-1,-3.747930750E-4,1.409439370E-3,2.319563925E-1,2.319609774E-1
9.159836667E-1,-1.535925083E-3,2.144239843E-4,2.325937599E-1,2.325989299E-1
9.259396667E-1,6.545248907E-4,-3.104852512E-4,2.270301431E-1,2.270312989E-1
9.358956667E-1,-1.213291660E-3,1.843822189E-3,2.224797457E-1,2.224906942E-1
9.458516667E-1,-1.460166648E-3,7.266262546E-4,2.229194343E-1,2.229254007E-1
9.558076667E-1,-3.062661272E-4,-5.521504208E-4,2.234966606E-1,2.234975525E-1
9.657636667E-1,1.659945585E-3,-7.076794282E-4,2.251659185E-1,2.251731491E-1
9.757196667E-1,-2.181230579E-3,1.874519512E-3,2.293929309E-1,2.294109595E-1
9.856756667E-1,-3.385511693E-3,2.161692828E-4,2.346428335E-1,2.346673555E-1
9.956316667E-1,-6.385508459E-4,1.235730946E-3,2.365569472E-1,2.365610367E-1
1.005587667E0,-3.037259914E-3,2.120699268E-3,2.330562174E-1,2.330856555E-1
1.015543667E0,-4.226567689E-4,2.757599577E-4,2.363330871E-1,2.363336259E-1
1.025499667E0,-4.096073098E-4,5.407445133E-4,2.347160131E-1,2.347169934E-1
1.035455667E0,-2.541900612E-3,5.636308342E-4,2.339532226E-1,2.339677100E-1
1.045410667E0,-2.786911558E-3,1.906130463E-3,2.308991104E-1,2.309237957E-1
1.055366667E0,-5.839383230E-4,4.935348406E-4,2.317831665E-1,2.317844275E-1
1.065322667E0,2.693384886E-4,-6.120186299E-5,2.355834991E-1,2.355836610E-1
1.075278667E0,-7.898609620E-4,-7.584411651E-5,2.342814207E-1,2.342827645E-1
1.085234667E0,1.235739328E-3,1.831245143E-3,2.308893502E-1,2.308999189E-1
1.095190667E0,-2.442048863E-3,2.007558942E-4,2.289291471E-1,2.289422598E-1
1.105146667E0,-2.872682177E-3,1.132595353E-3,2.304540873E-1,2.304747739E-1
1.115102667E0,-1.947169658E-4,1.006977633E-3,2.268262655E-1,2.268285842E-1
1.125058667E0,-4.031000659E-3,2.683703788E-3,2.302191257E-1,2.302700525E-1
1.135014667E0,-3.152905032E-3,-4.018750042E-4,2.288368642E-1,2.288589363E-1
1.144970667E0,-1.951982267E-4,4.647178575E-4,2.320989817E-1,2.320995291E-1
1.154926667E0,-4.961106461E-4,-1.256878488E-3,2.311766297E-1,2.311805787E-1
1.164882667E0,-5.294860341E-3,5.538053811E-4,2.353665829E-1,2.354267839E-1
1.174838667E0,-6.915947888E-4,9.489404038E-4,2.324897647E-1,2.324927299E-1
1.184794667E0,9.491787059E-4,-6.106067449E-4,2.278526723E-1,2.278554675E-1
1.194750667E0,-2.966998611E-3,2.129959874E-3,2.267045081E-1,2.267339273E-1
1.204706667E0,-3.059942741E-3,2.513987478E-3,2.268941253E-1,2.269286837E-1
1.214662667E0,-9.482712485E-4,2.870028839E-4,2.286379933E-1,2.286401399E-1
1.224618667E0,-1.120311441E-3,1.112849452E-3,2.316223383E-1,2.316277210E-1
1.234574667E0,-1.486363122E-3,1.129019074E-3,2.331533879E-1,2.331608592E-1
1.244530667E0,2.540126443E-4,1.621437259E-3,2.320423126E-1,2.320481166E-1
1.254486667E0,4.308286589E-4,1.345968805E-3,2.286744863E-1,2.286788532E-1
1.264442667E0,-2.972957445E-3,3.225628287E-3,2.261237055E-1,2.261662516E-1
1.274398667E0,-1.843059901E-3,7.511004806E-4,2.231872976E-1,2.231961712E-1
1.284354667E0,-2.255317289E-3,9.718770161E-4,2.264320999E-1,2.264454170E-1
1.294310667E0,-1.811701339E-3,-5.478169769E-4,2.304367721E-1,2.304445450E-1
1.304266667E0,-6.811893545E-4,2.420768142E-4,2.372230440E-1,2.372241456E-1
1.314222667E0,-4.205564037E-4,1.379435882E-3,2.379095256E-1,2.379138964E-1
1.324178667E0,6.934438134E-4,1.358396374E-3,2.357337177E-1,2.357386514E-1
1.334134667E0,-1.459269086E-3,-1.412257552E-4,2.307178080E-1,2.307224661E-1
1.344090667E0,-3.470754949E-3,1.436963677E-3,2.291289717E-1,2.291597623E-1
1.354046667E0,-1.774222124E-3,-3.200229257E-4,2.269414514E-1,2.269486124E-1
1.364002667E0,-1.353442902E-3,3.348486498E-4,2.270951122E-1,2.270993922E-1
1.373958667E0,2.216650639E-3,1.838682219E-4,2.277739346E-1,2.277847946E-1
1.383914667E0,-2.337354701E-3,2.296021208E-3,2.356118858E-1,2.356346657E-1
1.393870667E0,-5.634445697E-4,1.387008466E-3,2.319970429E-1,2.320018732E-1
1.403826667E0,-3.151238430E-3,2.791332081E-4,2.311890423E-1,2.312106864E-1
1.413781667E0,1.548164990E-3,1.433617435E-3,2.300505787E-1,2.300602548E-1
1.423737667E0,-2.773878863E-3,7.989862934E-4,2.309110463E-1,2.309290888E-1
1.433693333E0,-1.332685584E-3,1.133130863E-4,2.327924222E-1,2.327962644E-1
1.443649333E0,-1.506057335E-3,2.219074406E-3,2.331562042E-1,2.331716279E-1
1.453605333E0,-2.045141533E-3,2.859439701E-5,2.372746766E-1,2.372834920E-1
1.463561333E0,-2.850585151E-4,-2.003663220E-3,2.348280549E-1,2.348367759E-1
1.473517333E0,-2.011445584E-3,7.451027632E-4,2.309840769E-1,2.309940364E-1
1.483473333E0,-1.811974915E-3,5.413712934E-4,2.269576490E-1,2.269655277E-1
1.493429333E0,-2.007521689E-4,1.796669327E-3,2.243386805E-1,2.243459647E-1
1.503385333E0,1.760932268E-3,1.560180448E-3,2.257056832E-1,2.257179445E-1
1.513341333E0,1.676089829E-3,2.237632871E-4,2.260779440E-1,2.260842678E-1
1.523297333E0,-2.231832827E-3,2.326062415E-3,2.289696038E-1,2.289922948E-1
1.533253333E0,-1.256937627E-3,1.023638062E-3,2.360833734E-1,2.360889386E-1
1.543209333E0,9.550838731E-4,7.003303617E-4,2.344870716E-1,2.344900625E-1
1.553165333E0,-6.661987863E-4,1.512562390E-3,2.380146980E-1,2.380204364E-1
1.563121333E0,-5.546123721E-4,1.920292154E-3,2.326969057E-1,2.327054900E-1
1.573077333E0,1.079572830E-4,-8.427519351E-4,2.286619246E-1,2.286635031E-1
1.583033333E0,-6.086993963E-4,4.613986239E-4,2.300310433E-1,2.300323114E-1
1.592989333E0,-2.776123583E-4,1.290909015E-3,2.299391776E-1,2.299429689E-1
1.602945333E0,4.029251635E-3,2.639936283E-4,2.305764705E-1,2.306118239E-1
1.612901333E0,-1.454750076E-3,1.625093631E-3,2.329676598E-1,2.329778697E-1
1.622857333E0,-1.763676526E-3,-2.750717103E-4,2.354297489E-1,2.354365156E-1
1.632813333E0,-1.972800354E-3,8.643493056E-4,2.301294059E-1,2.301394848E-1
1.642769333E0,-1.653130166E-4,4.670061171E-4,2.264329344E-1,2.264334763E-1
1.652725333E0,6.641520886E-4,2.800320275E-3,2.231019586E-1,2.231205209E-1
1.662681333E0,-1.753199380E-3,1.876736060E-3,2.286317348E-1,2.286461590E-1
1.672637333E0,-1.828921260E-3,1.222061925E-3,2.335605621E-1,2.335709198E-1
1.682593333E0,-2.387119690E-3,-1.193722710E-4,2.350058556E-1,2.350180094E-1
1.692549333E0,-1.430830453E-4,-1.007712446E-3,2.318596989E-1,2.318619329E-1
1.702505333E0,-2.908883616E-4,-1.838618889E-3,2.298753858E-1,2.298829226E-1
1.712461333E0,-7.940705400E-4,-1.641070470E-3,2.272446007E-1,2.272519135E-1
1.722417333E0,-1.040945528E-3,-2.542550676E-3,2.291538119E-1,2.291702809E-1
1.732373333E0,6.423661252E-4,-2.007051371E-3,2.339220196E-1,2.339315117E-1
1.742329333E0,-3.095913213E-3,7.266839966E-4,2.347092479E-1,2.347307901E-1
1.752285333E0,-5.790423602E-4,1.558222342E-3,2.349942327E-1,2.350001122E-1
1.762241333E0,-2.021144144E-3,-1.595169306E-4,2.353747785E-1,2.353835101E-1
1.772196333E0,-1.220155274E-3,-2.676099539E-4,2.384471595E-1,2.384504315E-1
1.782152333E0,2.448495943E-4,-6.353482604E-6,2.365038693E-1,2.365039961E-1
1.792108333E0,-1.598496456E-3,-7.684901357E-4,2.332852781E-1,2.332920203E-1
1.802064333E0,-3.667841665E-4,-2.132216468E-4,2.330618501E-1,2.330622362E-1
1.812020333E0,-8.198770229E-4,2.679890022E-4,2.305520475E-1,2.305536610E-1
1.821976333E0,4.368687514E-4,2.939938102E-3,2.322926968E-1,2.323117111E-1
1.831932333E0,-2.987595275E-3,8.155703545E-4,2.339921445E-1,2.340126376E-1
1.841888333E0,-2.237116452E-3,-3.317194059E-4,2.321857214E-1,2.321967354E-1
1.851844333E0,-1.380529488E-3,-9.823357686E-4,2.301141471E-1,2.301203849E-1
1.861800333E0,-3.066044068E-3,3.315739799E-3,2.298566252E-1,2.299009850E-1
1.871756333E0,-1.433658181E-3,9.770132601E-5,2.280787677E-1,2.280832944E-1
1.881712333E0,-2.048582071E-3,-3.108270466E-4,2.264070958E-1,2.264165770E-1
1.891668333E0,-1.688749064E-3,1.160030253E-3,2.243137956E-1,2.243231518E-1
1.901624333E0,1.681214897E-3,-1.133483835E-3,2.254733294E-1,2.254824462E-1
1.911580333E0,2.957342658E-4,1.588339452E-3,2.262971997E-1,2.263029670E-1
1.921536333E0,-2.374617150E-3,5.699470639E-4,2.322589457E-1,2.322717837E-1
1.931492333E0,8.311159909E-4,1.683501992E-3,2.324533910E-1,2.324609729E-1
1.941448333E0,-5.199054722E-4,-5.741603673E-6,2.293212414E-1,2.293218308E-1
1.951404333E0,-1.071556471E-4,1.545872074E-3,2.312089652E-1,2.312141578E-1
1.961360333E0,-4.398306832E-3,1.044931822E-3,2.328236401E-1,2.328675254E-1
1.971316333E0,3.528355155E-4,1.809030771E-3,2.303646803E-1,2.303720534E-1
1.981272333E0,-4.049635958E-3,-6.916774437E-4,2.277630419E-1,2.278000904E-1
1.991228333E0,-2.762723481E-3,2.493330278E-3,2.256862521E-1,2.257169328E-1
2.001184333E0,-3.238003701E-4,-9.338920936E-4,2.261874527E-1,2.261896124E-1
2.011140333E0,-3.768443130E-4,1.701116562E-4,2.312612832E-1,2.312616528E-1
2.021096333E0,-2.084196545E-3,3.317650408E-4,2.361963838E-1,2.362058121E-1
2.031052333E0,-3.260334488E-4,1.529784873E-3,2.368043810E-1,2.368095467E-1
2.041008333E0,-2.668816131E-3,1.546829008E-3,2.398204207E-1,2.398402582E-1
2.050964333E0,-2.622497268E-4,-1.401482150E-4,2.360807061E-1,2.360808934E-1
2.060920333E0,3.234480741E-3,-5.204482004E-4,2.325823754E-1,2.326054472E-1
2.070876333E0,-1.879605697E-3,-1.003826037E-3,2.294780761E-1,2.294879692E-1
2.080832333E0,-2.042058622E-3,-6.482936442E-4,2.258939892E-1,2.259041492E-1
2.090788333E0,-8.123600855E-5,9.017931297E-4,2.275025845E-1,2.275043863E-1
2.100744333E0,-2.977956552E-3,-1.427408308E-3,2.294070125E-1,2.294307806E-1
2.110699333E0,-2.473179717E-3,5.560498685E-4,2.332922816E-1,2.333060532E-1
2.120655333E0,-2.063852269E-3,4.127714783E-4,2.326944023E-1,2.327039208E-1
2.130611333E0,-2.335854573E-3,-1.974481158E-3,2.316664308E-1,2.316866202E-1
2.140567333E0,-1.011464745E-3,1.972856466E-3,2.274125516E-1,2.274233582E-1
2.150523333E0,1.757475198E-3,5.140081048E-4,2.269270718E-1,2.269344594E-1
2.160479333E0,-1.249233726E-3,1.773682889E-3,2.269100249E-1,2.269203956E-1
2.170435333E0,-4.527403507E-4,-1.178758219E-3,2.265452147E-1,2.265487337E-1
2.180391333E0,-1.228252891E-3,-7.265536115E-4,2.327663600E-1,2.327707345E-1
2.190347333E0,-1.356143039E-4,-1.680999994E-4,2.379723787E-1,2.379724767E-1
2.200303333E0,1.368805417E-3,3.647981212E-4,2.413074672E-1,2.413116252E-1
2.210259333E0,-1.818390563E-3,-9.394949302E-4,2.400353402E-1,2.400440662E-1
2.220215333E0,2.822966315E-3,4.352284595E-4,2.338986099E-1,2.339160496E-1
2.230171333E0,-5.252934061E-4,-1.123889349E-3,2.238155901E-1,2.238190284E-1
2.240127333E0,1.317083370E-4,5.136337131E-5,2.149248868E-1,2.149249333E-1
2.250083333E0,-2.619805280E-3,-8.391411975E-4,2.177463323E-1,2.177637086E-1
2.260039333E0,-8.543960284E-4,-6.170328707E-4,2.236620188E-1,2.236645018E-1
2.269995333E0,-3.925871104E-3,2.662090119E-3,2.287259251E-1,2.287751035E-1
2.279951333E0,-1.304255333E-3,1.898028888E-3,2.319592685E-1,2.319707003E-1
2.289907333E0,-1.485053450E-3,1.013997942E-3,2.342836410E-1,2.342905419E-1
2.299863333E0,-1.237113029E-3,1.010003500E-3,2.358397245E-1,2.358451319E-1
2.309819333E0,-7.545500994E-4,1.269485801E-5,2.363731563E-1,2.363743610E-1
2.319775333E0,-2.237930894E-3,2.813541330E-3,2.395867854E-1,2.396137561E-1
2.329731333E0,-2.179500647E-3,-1.270811073E-3,2.376795113E-1,2.376929012E-1
2.339687333E0,-1.054847846E-3,1.269578002E-3,2.300138623E-1,2.300197847E-1
2.349643333E0,-1.065256074E-4,2.581545617E-3,2.262726128E-1,2.262873638E-1
2.359599333E0,2.644527704E-4,-6.512654945E-4,2.259740829E-1,2.259751762E-1
2.369555333E0,-1.672196900E-3,1.182954758E-3,2.259125561E-1,2.259218418E-1
2.379511333E0,-1.794435782E-3,6.937319413E-4,2.283064723E-1,2.283145781E-1
2.389467333E0,-2.995472867E-3,1.473868731E-3,2.299951464E-1,2.300193742E-1
2.399423333E0,-1.031391788E-3,2.538866829E-3,2.287344038E-1,2.287508188E-1
2.409379333E0,8.041636320E-4,2.909796312E-4,2.315537333E-1,2.315553126E-1
2.419335333E0,-2.714138478E-3,-2.557672560E-4,2.337543070E-1,2.337702034E-1
2.429291333E0,-1.444997033E-3,1.974059269E-4,2.355513424E-1,2.355558572E-1
2.439247083E0,-8.455193602E-4,-9.940927848E-4,2.386443466E-1,2.386479149E-1
2.449203083E0,-2.038642066E-3,-1.616690308E-3,2.322526872E-1,2.322672609E-1
2.459159083E0,-2.186181257E-3,-3.253230825E-4,2.297724783E-1,2.297831087E-1
2.469115083E0,-2.985706553E-3,9.759217501E-4,2.259488106E-1,2.259706438E-1
2.479071083E0,-1.944144256E-3,3.210501745E-4,2.288066447E-1,2.288151293E-1
2.489027083E0,-2.892481629E-3,-5.959281698E-4,2.327648997E-1,2.327836337E-1
2.498983083E0,1.615184825E-3,5.593514070E-4,2.348203361E-1,2.348265572E-1
2.508939083E0,-1.145628514E-3,-1.721477136E-3,2.345464528E-1,2.345555679E-1
2.518895083E0,-1.355485525E-3,2.532656305E-3,2.316563874E-1,2.316741970E-1
2.528851083E0,-1.926438417E-4,7.441332564E-4,2.364880443E-1,2.364892935E-1
2.538807083E0,-3.023850266E-3,-4.889108241E-4,2.325353771E-1,2.325555511E-1
2.548763083E0,-2.864026465E-5,3.403928131E-4,2.243056446E-1,2.243059047E-1
2.558719083E0,8.499366231E-4,1.144667622E-3,2.205931991E-1,2.205978063E-1
2.568675083E0,-3.913207911E-4,-9.821821004E-4,2.238070667E-1,2.238095639E-1
2.578631083E0,-6.694789045E-5,1.007465646E-3,2.276606560E-1,2.276628950E-1
2.588587083E0,-2.360058948E-3,1.444318332E-3,2.301962376E-1,2.302128661E-1
2.598543083E0,-1.894538291E-3,2.089602407E-3,2.350187004E-1,2.350356255E-1
2.608499083E0,-6.885852199E-4,-9.220838547E-5,2.360556126E-1,2.360566349E-1
2.618455083E0,-3.012193134E-3,-2.927444875E-4,2.384143770E-1,2.384335844E-1
2.628411083E0,-1.201415202E-3,-1.384446397E-3,2.344297469E-1,2.344369133E-1
2.638367083E0,-1.037098235E-3,9.644618258E-4,2.338140309E-1,2.338183201E-1
2.648323083E0,-1.316287322E-3,-2.042084932E-3,2.300004363E-1,2.300132679E-1
2.658279083E0,3.625694662E-4,-1.137143001E-3,2.264541686E-1,2.264573139E-1
2.668235083E0,-1.189258648E-3,-9.840950370E-4,2.271911800E-1,2.271964239E-1
2.678191083E0,2.674902789E-4,2.621026244E-3,2.316927165E-1,2.317076956E-1
2.688147083E0,1.886212267E-4,1.680430956E-3,2.335368246E-1,2.335429465E-1
2.698103083E0,-2.032188699E-3,7.893377915E-4,2.353818715E-1,2.353919673E-1
2.708059083E0,-2.318073995E-3,1.669290010E-3,2.363136709E-1,2.363309354E-1
2.718015083E0,-1.674121711E-3,8.556945249E-4,2.354372144E-1,2.354447213E-1
2.727971083E0,-2.558743116E-3,4.094140604E-4,2.337873280E-1,2.338016884E-1
2.737927083E0,-2.559076529E-4,-4.321448505E-4,2.280500680E-1,2.280506211E-1
2.747883083E0,9.998446330E-5,2.522859722E-5,2.205139101E-1,2.205139342E-1
2.757839083E0,-2.845471725E-3,2.071868163E-3,2.199189514E-1,2.199471176E-1
2.767795083E0,-3.230429720E-4,3.628097475E-4,2.219085842E-1,2.219091160E-1
2.777750083E0,-3.912717570E-3,2.634739503E-4,2.284455746E-1,2.284792318E-1
2.787706083E0,-3.156010062E-4,-3.353411332E-3,2.314899266E-1,2.315144295E-1
2.797662083E0,-1.631202875E-3,-1.488665119E-3,2.350263298E-1,2.350367048E-1
2.807618083E0,-3.055322450E-3,-7.487023249E-4,2.332639545E-1,2.332851646E-1
2.817574083E0,-1.356990542E-4,-1.059226692E-3,2.338176221E-1,2.338200607E-1
2.827530083E0,-1.138607506E-3,-1.103702001E-3,2.339229882E-1,2.339283629E-1
2.837486083E0,-2.112525282E-3,-1.419335604E-6,2.345533669E-1,2.345628800E-1
2.847442083E0,-5.502074491E-4,-2.073174343E-3,2.326371521E-1,2.326470402E-1
2.857398083E0,-2.479387913E-4,1.182007603E-3,2.298458815E-1,2.298490545E-1
2.867354083E0,-8.359830827E-4,-2.615286969E-3,2.304212749E-1,2.304376326E-1
2.877310083E0,-2.205646830E-3,-1.430753618E-4,2.251775116E-1,2.251883591E-1
2.887266083E0,-7.934616879E-4,1.949813683E-3,2.280889302E-1,2.280986441E-1
2.897222083E0,-1.825327054E-4,9.303558618E-4,2.293265015E-1,2.293284613E-1
2.907178083E0,-1.468871254E-3,-1.270349137E-3,2.350608557E-1,2.350688777E-1
2.917134083E0,-5.415587220E-4,1.813396811E-4,2.376989871E-1,2.376996732E-1
2.927090083E0,-2.719825134E-4,-2.219667658E-4,2.372821569E-1,2.372824166E-1
2.937046083E0,1.563900150E-5,-3.341492265E-5,2.319568992E-1,2.319569021E-1
2.947002083E0,2.269920427E-3,-2.418775111E-4,2.256051302E-1,2.256166789E-1
2.956958083E0,-1.326412428E-3,2.497183159E-3,2.261276543E-1,2.261453323E-1
2.966914083E0,-2.899920102E-3,-1.989945769E-3,2.280179411E-1,2.280450633E-1
2.976870083E0,-3.354788292E-3,3.430061042E-6,2.302075922E-1,2.302320354E-1
2.986826083E0,-1.171461074E-3,-9.063510224E-4,2.307123840E-1,2.307171383E-1
2.996782083E0,-1.229251735E-3,3.040554002E-4,2.342576087E-1,2.342610312E-1
3.006738083E0,-3.966122866E-3,-2.428137697E-3,2.323084325E-1,2.323549736E-1
3.016694083E0,7.151813479E-4,-2.272608690E-3,2.287368625E-1,2.287492700E-1
3.026650083E0,-1.351269661E-3,9.770654142E-4,2.270009965E-1,2.270071210E-1
3.036606083E0,-3.327335231E-3,-1.524441876E-3,2.232978642E-1,2.233278559E-1
3.046562083E0,-1.743128989E-3,3.557854332E-3,2.234469056E-1,2.234820271E-1
3.056518083E0,-2.274962142E-3,-6.177155301E-4,2.281204760E-1,2.281326557E-1
3.066474083E0,-7.750371005E-4,1.389812678E-4,2.307440639E-1,2.307454073E-1
3.076430083E0,-9.087100625E-5,-1.127617434E-3,2.333323956E-1,2.333351379E-1
3.086386083E0,-1.495143864E-3,-8.275983855E-4,2.346422374E-1,2.346484604E-1
3.096342083E0,-1.710201614E-4,-2.148058265E-4,2.349538356E-1,2.349539960E-1
3.106298083E0,-7.740161382E-4,-2.000327222E-3,2.380022705E-1,2.380119349E-1
3.116253083E0,-1.913849032E-3,1.949165016E-4,2.354597449E-1,2.354676035E-1
3.126209083E0,-2.667832887E-3,-7.037417963E-4,2.350184321E-1,2.350346273E-1
3.136165083E0,-8.563506417E-4,2.010019496E-3,2.326516807E-1,2.326619394E-1
3.146121083E0,-6.564846262E-5,2.098658588E-3,2.286811769E-1,2.286908161E-1
3.156077083E0,-1.994842198E-3,8.206078783E-4,2.255540937E-1,2.255644076E-1
3.166033083E0,-1.383570489E-3,7.502175868E-4,2.245245576E-1,2.245300738E-1
3.175989083E0,8.036837680E-4,-2.228794619E-3,2.297219932E-1,2.297342108E-1
3.185945083E0,-1.258415636E-3,6.857570261E-4,2.334529608E-1,2.334573597E-1
3.195901083E0,-1.691712067E-3,-1.775803044E-3,2.388338745E-1,2.388464673E-1
3.205857083E0,-1.805831213E-3,-1.026090235E-3,2.382877022E-1,2.382967539E-1
3.215813083E0,-2.052972559E-3,-1.927037723E-3,2.318484485E-1,2.318655456E-1
3.225769083E0,-3.611613763E-3,-4.452010617E-4,2.242970169E-1,2.243265337E-1
3.235725083E0,-2.763929544E-3,7.677823305E-5,2.212032229E-1,2.212205031E-1
3.245681083E0,-6.259700749E-4,9.539965540E-4,2.219534516E-1,2.219563845E-1
3.255637083E0,-1.916271634E-3,5.441363901E-4,2.267370224E-1,2.267457729E-1
3.265593083E0,-5.964585580E-5,2.239400521E-3,2.291526645E-1,2.291636143E-1
3.275549083E0,-1.718795160E-3,-4.125749692E-4,2.333958745E-1,2.334025679E-1
3.285505083E0,-1.869380241E-3,2.231384628E-3,2.371127158E-1,2.371305836E-1
3.295461083E0,-2.383902902E-3,-4.086075351E-4,2.350471765E-1,2.350596204E-1
3.305417083E0,-1.194783486E-3,-1.177487895E-3,2.376652658E-1,2.376711858E-1
3.315373083E0,-1.957779285E-3,2.156256698E-3,2.351227403E-1,2.351407777E-1
3.325329083E0,-2.218759386E-3,1.436461695E-3,2.315539718E-1,2.315690570E-1
3.335285083E0,3.174940590E-3,2.007549629E-4,2.299741954E-1,2.299961980E-1
3.345241083E0,-1.227027737E-3,9.001558647E-4,2.286372334E-1,2.286422978E-1
3.355197083E0,-1.845680177E-3,-1.443354413E-4,2.304684371E-1,2.304758726E-1
3.365153083E0,1.032948494E-4,2.449750900E-4,2.331237197E-1,2.331238713E-1
3.375109083E0,-2.872787416E-3,1.630617306E-3,2.347043008E-1,2.347275455E-1
3.385065083E0,-8.985954337E-4,-2.187007107E-3,2.362681329E-1,2.362799634E-1
3.395021083E0,-1.458125422E-3,-1.661831513E-3,2.363027632E-1,2.363131053E-1
3.404977083E0,-2.889107913E-3,-2.529006451E-4,2.315411866E-1,2.315593487E-1
3.414933083E0,-1.805734355E-3,7.567042485E-4,2.277395278E-1,2.277479436E-1
3.424889083E0,-2.160206670E-3,1.818814781E-3,2.292422056E-1,2.292595983E-1
3.434843792E0,-4.762902390E-4,-1.478711143E-3,2.298760414E-1,2.298812908E-1
3.444799792E0,1.181287225E-4,-4.391688854E-4,2.326068133E-1,2.326072579E-1
3.454755792E0,2.159441821E-3,-9.614145383E-4,2.323450297E-1,2.323570536E-1
3.464711792E0,-1.911832951E-4,-8.058473468E-4,2.306157351E-1,2.306172222E-1
3.474667792E0,-1.632201020E-4,1.446388196E-3,2.306639403E-1,2.306685328E-1
3.484623792E0,-1.632036176E-3,-1.093637198E-3,2.299790531E-1,2.299874442E-1
3.494579792E0,-1.772650983E-3,1.804680564E-3,2.289827764E-1,2.289967490E-1
3.504535792E0,-9.177981410E-4,1.428165007E-3,2.262820303E-1,2.262883984E-1
3.514491792E0,-1.293570269E-3,1.235618256E-3,2.263185084E-1,2.263255781E-1
3.524447792E0,1.244419604E-3,1.633821987E-3,2.301850617E-1,2.301942236E-1
3.534403792E0,-3.621175885E-3,1.730779186E-4,2.335736752E-1,2.336018078E-1
3.544359792E0,-1.247467473E-3,-6.221765652E-4,2.292040735E-1,2.292083127E-1
3.554315792E0,-1.143071568E-3,6.066057831E-4,2.281601131E-1,2.281637828E-1
3.564271792E0,-1.550810412E-3,1.014281996E-3,2.298613787E-1,2.298688478E-1
3.574227792E0,-2.610215917E-3,-7.484648377E-4,2.317828536E-1,2.317987590E-1
3.584183792E0,2.525714226E-4,-1.515580341E-3,2.346729040E-1,2.346779339E-1
3.594139792E0,-5.503718276E-4,-3.779213876E-5,2.348494828E-1,2.348501307E-1
3.604095792E0,-7.753889076E-5,1.637821551E-3,2.340878993E-1,2.340936417E-1
3.614051792E0,7.813303964E-4,1.137147658E-3,2.329701632E-1,2.329742487E-1
3.624007792E0,6.255441112E-4,-2.240203321E-5,2.258156091E-1,2.258164766E-1
3.633963792E0,9.666951373E-4,-1.177947968E-3,2.296665460E-1,2.296716012E-1
3.643919792E0,-3.272725735E-4,2.452311572E-3,2.304279059E-1,2.304411872E-1
3.653875792E0,-6.505802739E-4,-1.250952482E-4,2.296611816E-1,2.296621371E-1
3.663831792E0,-2.926862799E-3,5.858456716E-4,2.312485725E-1,2.312678361E-1
3.673787792E0,-3.843428567E-4,1.111553982E-3,2.277883291E-1,2.277913654E-1
3.683743792E0,1.220293227E-3,4.899874330E-5,2.285011560E-1,2.285044196E-1
3.693699792E0,-2.954744501E-3,2.190978732E-3,2.268928736E-1,2.269226895E-1
3.703655792E0,-1.203182619E-4,1.712497324E-3,2.280769944E-1,2.280834551E-1
3.713611792E0,-5.392336752E-4,1.224073581E-3,2.275792509E-1,2.275831817E-1
3.723567792E0,-2.024616115E-4,1.109526493E-3,2.316510677E-1,2.316538133E-1
3.733523792E0,1.554670744E-4,1.025104430E-3,2.318457365E-1,2.318480549E-1
3.743479792E0,-4.172223620E-3,-1.786513254E-3,2.317712158E-1,2.318156499E-1
3.753435792E0,1.191941556E-4,4.374925047E-4,2.277961820E-1,2.277966333E-1
3.763390792E0,1.251217676E-3,2.136453986E-4,2.274157256E-1,2.274192680E-1
3.773346792E0,-9.778481908E-4,1.580646262E-3,2.283425033E-1,2.283500678E-1
3.783302792E0,-2.572488971E-3,1.975523774E-3,2.309094518E-1,2.309322311E-1
3.793258792E0,-8.068131283E-4,-8.109416813E-4,2.306676358E-1,2.306704723E-1
3.803214792E0,2.874447964E-4,-6.974553689E-4,2.326832414E-1,2.326844642E-1
3.813170792E0,-1.114443177E-3,1.044251956E-3,2.288536131E-1,2.288587090E-1
3.823126792E0,1.463684952E-3,-5.845436826E-4,2.304228097E-1,2.304281999E-1
3.833082792E0,-1.572052250E-3,-1.041275449E-3,2.285157293E-1,2.285235090E-1
3.843038792E0,-1.384846866E-3,-2.448661253E-3,2.318582982E-1,2.318753635E-1
3.852994792E0,8.652578108E-4,-2.566639334E-3,2.344319820E-1,2.344476285E-1
3.862950792E0,-2.085888991E-3,-7.975855842E-4,2.392346412E-1,2.392450639E-1
3.872906792E0,1.036933507E-3,1.533745788E-3,2.404109538E-1,2.404180823E-1
3.882862792E0,-6.704570260E-4,-2.372628078E-4,2.348734587E-1,2.348745355E-1
3.892818792E0,-2.468623454E-3,-1.467376947E-3,2.311626077E-1,2.311804457E-1
3.902774792E0,-1.337032765E-3,-7.787439972E-5,2.254445702E-1,2.254485483E-1
3.912730792E0,-3.106505610E-4,9.043794125E-5,2.258373797E-1,2.258376115E-1
3.922686792E0,-5.929637700E-4,-1.203903928E-3,2.253707945E-1,2.253747901E-1
3.932642792E0,-2.642532345E-3,2.632113639E-3,2.285937518E-1,2.286241771E-1
3.942598792E0,-5.537639372E-4,-2.518980764E-3,2.297717631E-1,2.297862377E-1
3.952554792E0,-1.819031779E-3,-5.342625082E-5,2.348730564E-1,2.348801064E-1
3.962510792E0,-3.724541981E-3,-8.553806692E-4,2.332504839E-1,2.332817869E-1
3.972466792E0,-1.979638822E-3,2.487951890E-3,2.294901013E-1,2.295121249E-1
3.982422792E0,-1.505961642E-3,3.677881788E-3,2.262445092E-1,2.262794129E-1
3.992378792E0,-6.678933278E-5,2.462148666E-3,2.270349264E-1,2.270482866E-1
4.002334792E0,4.252302460E-4,2.068905160E-4,2.288546860E-1,2.288551746E-1
4.012290792E0,-1.058949623E-3,4.359222949E-4,2.326384932E-1,2.326413117E-1
4.022246792E0,-1.356085297E-3,1.172310207E-3,2.362241000E-1,2.362309012E-1
4.032202792E0,-2.045844216E-3,-1.087914221E-3,2.350965142E-1,2.351079327E-1
4.042158792E0,1.714560669E-3,1.210722607E-3,2.350554615E-1,2.350648327E-1
4.052114792E0,5.017570220E-4,2.072434872E-4,2.398326397E-1,2.398332541E-1
4.062070792E0,-5.414024927E-4,-1.995695755E-3,2.326900065E-1,2.326991943E-1
4.072026792E0,-2.038098872E-3,2.291727345E-3,2.314013094E-1,2.314216322E-1
4.081982792E0,3.297098447E-4,1.493677031E-3,2.218194604E-1,2.218247344E-1
4.091937792E0,-1.123310998E-3,4.049763083E-4,2.250165641E-1,2.250197324E-1
4.101893792E0,8.278252790E-4,-3.469632939E-4,2.283497751E-1,2.283515392E-1
4.111849792E0,-7.692724466E-4,1.319110394E-3,2.325088233E-1,2.325138377E-1
4.121805792E0,-1.231352566E-3,4.148231819E-4,2.365006506E-1,2.365042200E-1
4.131761792E0,-1.345602330E-3,1.475826837E-3,2.379920185E-1,2.380003982E-1
4.141717792E0,3.221402876E-4,1.652189996E-3,2.367846966E-1,2.367906798E-1
4.151673792E0,-3.675530665E-3,2.290283330E-3,2.311305404E-1,2.311711090E-1
4.161629792E0,2.926134039E-4,9.612818249E-4,2.276978195E-1,2.277000366E-1
4.171585792E0,-2.254433930E-3,6.124079227E-4,2.301825583E-1,2.301944127E-1
4.181541792E0,-9.396539535E-4,2.001804765E-3,2.283402532E-1,2.283509611E-1
4.191497792E0,-1.315426081E-3,9.131045081E-4,2.331078500E-1,2.331133497E-1
4.201453792E0,2.280960325E-4,-1.997180283E-3,2.339524329E-1,2.339610686E-1
4.211409792E0,-2.637899015E-4,-9.399056435E-4,2.349668294E-1,2.349688574E-1
4.221365792E0,-1.772638410E-3,-2.010244876E-3,2.348236889E-1,2.348389835E-1
4.231321792E0,1.077476772E-3,9.045656770E-5,2.283301055E-1,2.283326657E-1
4.241277792E0,-3.454664489E-3,2.508739475E-3,2.239938527E-1,2.240345387E-1
4.251233792E0,-5.579441786E-4,5.774153396E-4,2.245198339E-1,2.245212697E-1
4.261189792E0,-1.075339736E-3,-1.645012759E-3,2.265808880E-1,2.265894111E-1
4.271145792E0,-3.179503139E-3,-2.998504788E-4,2.283787727E-1,2.284011011E-1
4.281101792E0,-1.170791686E-3,1.811056864E-3,2.305141538E-1,2.305242412E-1
4.291057792E0,-9.100681636E-4,7.577771321E-4,2.294984311E-1,2.295014865E-1
4.301013792E0,-5.864165723E-5,-1.334116794E-3,2.275534421E-1,2.275573605E-1
4.310969792E0,-2.341503277E-3,1.279509626E-3,2.281284183E-1,2.281440226E-1
4.320925792E0,-1.124647679E-3,1.815921161E-3,2.275156677E-1,2.275256940E-1
4.330881792E0,-2.773144282E-3,-9.124875069E-4,2.309082448E-1,2.309266994E-1
4.340837792E0,1.169279218E-3,-8.706497028E-4,2.360382974E-1,2.360427993E-1
4.350793792E0,-4.349855706E-3,-1.732981764E-3,2.352928817E-1,2.353394669E-1
4.360749792E0,1.891001593E-4,-3.543610685E-3,2.314256132E-1,2.314528189E-1
4.370705792E0,1.151300385E-3,1.728301868E-4,2.236814052E-1,2.236844348E-1
4.380661792E0,-2.665973734E-4,1.215554774E-3,2.212122381E-1,2.212157384E-1
4.390617792E0,-2.436008304E-3,1.462962478E-3,2.232066989E-1,2.232247854E-1
4.400573792E0,-1.410156488E-3,-1.516399905E-3,2.268736660E-1,2.268831161E-1
4.410528792E0,-2.660623286E-4,9.566117078E-4,2.313837260E-1,2.313858564E-1
4.420484792E0,-7.657865062E-4,-5.497438833E-4,2.365689725E-1,2.365708507E-1
4.430440792E0,-1.905437093E-4,-1.356149092E-3,2.376499474E-1,2.376538932E-1
4.440396417E0,-1.699050423E-3,3.163609654E-4,2.365796268E-1,2.365859393E-1
4.450352417E0,-4.561529495E-4,3.432594240E-4,2.311731428E-1,2.311738477E-1
4.460308417E0,-6.658348721E-4,1.384309959E-3,2.270525694E-1,2.270577656E-1
4.470264417E0,-1.619779039E-3,-9.326403961E-4,2.270056903E-1,2.270133850E-1
4.480220417E0,-1.490893774E-3,1.094281673E-3,2.294842601E-1,2.294917119E-1
4.490176417E0,-3.660038579E-3,3.185123205E-6,2.333594263E-1,2.333881268E-1
4.500132417E0,1.323581557E-3,-1.935204491E-3,2.353229225E-1,2.353346016E-1
4.510088417E0,-2.274615224E-3,-2.708586864E-3,2.354363799E-1,2.354629468E-1
4.520044417E0,-2.350709867E-3,1.144258771E-3,2.364177704E-1,2.364322256E-1
4.530000417E0,-1.248161076E-3,-1.730357297E-3,2.297856957E-1,2.297956004E-1
4.539956417E0,3.134857398E-4,-1.255253330E-3,2.235662639E-1,2.235700076E-1
4.549912417E0,-5.139582790E-4,-1.264840364E-3,2.224727720E-1,2.224769612E-1
4.559868417E0,1.163582783E-4,1.216485631E-3,2.282082438E-1,2.282115158E-1
4.569824417E0,2.415268682E-4,2.105715219E-3,2.285765558E-1,2.285863825E-1
4.579780417E0,-3.034012392E-3,-9.745620191E-4,2.326474786E-1,2.326693024E-1
4.589736417E0,-1.547169872E-3,-8.488604799E-4,2.347031832E-1,2.347098176E-1
4.599692417E0,-1.648388803E-3,-1.481734216E-6,2.341634184E-1,2.341692202E-1
4.609648417E0,-4.209380131E-4,5.364762619E-4,2.355716974E-1,2.355726843E-1
4.619604417E0,1.034056069E-3,-5.420073867E-4,2.349966615E-1,2.349995617E-1
4.629560417E0,-2.485843841E-3,-1.537185162E-4,2.317989916E-1,2.318123714E-1
4.639516417E0,1.301549491E-3,-1.488335431E-3,2.301272154E-1,2.301357087E-1
4.649472417E0,-2.616493031E-3,5.492493510E-4,2.279237211E-1,2.279394006E-1
4.659428417E0,2.355612814E-4,2.471345477E-3,2.295439690E-1,2.295573932E-1
4.669384417E0,-9.788400494E-4,1.385574695E-3,2.312622368E-1,2.312684590E-1
4.679340417E0,-1.265466213E-3,-4.504006356E-4,2.335224748E-1,2.335263379E-1
4.689296417E0,-1.342165284E-3,-7.167169824E-4,2.351659089E-1,2.351708311E-1
4.699252417E0,-2.612547250E-3,9.516202845E-4,2.295208126E-1,2.295376536E-1
4.709208417E0,-3.935605288E-3,2.293853555E-3,2.284297198E-1,2.284751357E-1
4.719164417E0,-5.377745256E-4,-1.291632652E-4,2.314375043E-1,2.314381651E-1
4.729120417E0,1.271577086E-3,-2.118811011E-3,2.288089693E-1,2.288223125E-1
4.739076417E0,4.415528383E-4,1.332815737E-3,2.314522862E-1,2.314565449E-1
4.749031417E0,-6.170535926E-4,-8.698850870E-4,2.319252640E-1,2.319277162E-1
4.758987417E0,7.692642976E-4,9.982045740E-4,2.328644693E-1,2.328678794E-1
4.768943417E0,-2.603895264E-3,-4.532178864E-4,2.356061935E-1,2.356210180E-1
4.778899417E0,2.604739275E-4,-1.883702353E-4,2.315522730E-1,2.315524962E-1
4.788855417E0,1.127066673E-3,-2.480020747E-3,2.340857387E-1,2.341015887E-1
4.798811417E0,-5.545383319E-4,1.057009678E-3,2.297132760E-1,2.297163772E-1
4.808767417E0,-1.195028424E-3,4.032040015E-4,2.288834304E-1,2.288869052E-1
4.818723417E0,2.143093385E-3,1.435198821E-3,2.282610536E-1,2.282756255E-1
4.828679417E0,2.269859891E-3,1.949987840E-3,2.273284048E-1,2.273480995E-1
4.838635417E0,3.985003568E-4,1.389602665E-3,2.296833694E-1,2.296879187E-1
4.848591417E0,-8.318801410E-4,1.025815029E-3,2.330434769E-1,2.330472194E-1
4.858547417E0,-2.661787905E-3,-1.912042499E-4,2.353844792E-1,2.353996064E-1
4.868503417E0,-1.535537187E-3,4.828413948E-4,2.382279336E-1,2.382333717E-1
4.878459417E0,1.190076582E-4,-1.179871149E-3,2.333315164E-1,2.333345298E-1
4.888415417E0,-1.396863721E-3,-4.605511203E-4,2.281127870E-1,2.281175288E-1
4.898371417E0,-2.168843057E-3,1.464930829E-3,2.269510478E-1,2.269661384E-1
4.908327417E0,-1.679886598E-3,1.003671438E-3,2.270359993E-1,2.270444326E-1
4.918283417E0,-2.609689720E-3,7.101157680E-4,2.314612120E-1,2.314770127E-1
4.928239417E0,5.709237885E-4,-4.616752267E-4,2.349779159E-1,2.349790630E-1
4.938195417E0,-2.766572870E-3,-1.126815565E-3,2.318322062E-1,2.318514514E-1
4.948151417E0,-1.639789436E-3,-1.161969267E-3,2.329430133E-1,2.329516828E-1
4.958107417E0,1.413056161E-4,-1.692796126E-3,2.329410911E-1,2.329472847E-1
4.968063417E0,-1.117037842E-3,1.385551412E-3,2.295210660E-1,2.295279661E-1
4.978019417E0,-1.470484305E-3,-1.038593240E-3,2.289065123E-1,2.289135915E-1
4.987975417E0,-1.658237074E-3,-1.672425307E-3,2.286894619E-1,2.287015889E-1
4.997931417E0,1.046693418E-3,1.313248649E-4,2.273354530E-1,2.273379005E-1
5.007887417E0,-9.211164434E-4,-8.734865114E-4,2.301402986E-1,2.301437996E-1
5.017843417E0,1.061819610E-3,-1.579389907E-3,2.323414236E-1,2.323492179E-1
5.027799417E0,-2.806155477E-3,-9.444924071E-4,2.317635268E-1,2.317824388E-1
5.037755417E0,-2.518943511E-4,-1.339779235E-3,2.253739536E-1,2.253780766E-1
5.047711417E0,-3.922428004E-4,-4.002153873E-4,2.260250747E-1,2.260257694E-1
5.057667417E0,-2.373394091E-3,1.874078996E-3,2.253739089E-1,2.253941969E-1
5.067623417E0,-2.500959672E-3,3.309256397E-3,2.272533029E-1,2.272911562E-1
5.077579417E0,-1.041134587E-3,1.049858052E-3,2.323970497E-1,2.324017531E-1
5.087535417E0,-1.367904246E-3,-1.567230560E-3,2.333741635E-1,2.333834346E-1
5.097491417E0,-2.165813930E-4,2.296960447E-3,2.337851673E-1,2.337965513E-1
5.107446417E0,2.265218180E-3,-3.093278036E-3,2.345598787E-1,2.345912110E-1
5.117402417E0,-2.612485550E-3,4.396662116E-4,2.313453704E-1,2.313605385E-1
5.127358417E0,-9.991426487E-4,2.380311489E-3,2.344295681E-1,2.344437812E-1
5.137314417E0,-2.873530146E-3,2.109904774E-3,2.315885127E-1,2.316159495E-1
5.147270417E0,-2.242094837E-3,9.548943490E-5,2.321525663E-1,2.321634126E-1
5.157226417E0,6.391732022E-4,-2.025886439E-3,2.325329483E-1,2.325426515E-1
5.167182417E0,-6.111809053E-4,-3.664707765E-4,2.302405089E-1,2.302416118E-1
5.177138417E0,7.640360855E-4,1.217205077E-3,2.298207879E-1,2.298252812E-1
5.187094417E0,-3.271451686E-3,5.759159103E-4,2.275890559E-1,2.276132958E-1
5.197050417E0,-1.594779082E-3,1.147423871E-3,2.267631888E-1,2.267716995E-1
5.207006417E0,-1.306625083E-3,1.907756552E-3,2.274952829E-1,2.275070340E-1
5.216962417E0,9.605512023E-4,2.913377713E-3,2.298257351E-1,2.298462071E-1
5.226918417E0,-7.971350569E-4,5.101412535E-4,2.319461405E-1,2.319480713E-1
5.236874417E0,-1.057618530E-3,1.266536303E-3,2.308229208E-1,2.308288185E-1
5.246830417E0,1.626417506E-4,-6.797350943E-5,2.358099520E-1,2.358100179E-1
5.256786417E0,-1.159382751E-3,-1.118588261E-3,2.327010185E-1,2.327065951E-1
5.266742417E0,-1.393919811E-4,9.746560827E-4,2.324472219E-1,2.324493070E-1
5.276698417E0,6.543428171E-4,-1.336974092E-3,2.304493338E-1,2.304541410E-1
5.286654417E0,-4.870879930E-4,4.108585417E-4,2.268732339E-1,2.268741288E-1
5.296610417E0,2.857006621E-4,-3.133974969E-4,2.288049459E-1,2.288053390E-1
5.306566417E0,2.484165598E-4,-8.345777169E-4,2.309495807E-1,2.309512222E-1
5.316522417E0,-4.366480280E-4,6.899451837E-4,2.335291952E-1,2.335306226E-1
5.326478417E0,-8.180127479E-4,8.052606136E-4,2.359031439E-1,2.359059365E-1
5.336434417E0,1.168540097E-3,1.950422302E-4,2.353017330E-1,2.353047154E-1
5.346390417E0,-1.784905791E-3,9.519127198E-4,2.325818539E-1,2.325906507E-1
5.356346417E0,-1.522144303E-4,-3.705574200E-4,2.276790291E-1,2.276793815E-1
5.366302417E0,-2.273155842E-4,2.828698140E-3,2.264643610E-1,2.264821405E-1
5.376258417E0,-2.509178128E-3,6.490154192E-4,2.261988521E-1,2.262136996E-1
5.386214417E0,-2.032738645E-3,4.530064762E-4,2.284899652E-1,2.284994561E-1
5.396170417E0,-1.475305296E-3,1.649559941E-3,2.284581661E-1,2.284688846E-1
5.406126417E0,7.545342669E-5,1.263667829E-3,2.299569994E-1,2.299604838E-1
5.416082417E0,-3.641396761E-4,-1.562771387E-3,2.309121639E-1,2.309177392E-1
5.426038417E0,1.354930806E-3,3.680204973E-4,2.323060632E-1,2.323103060E-1
5.435995042E0,6.583002396E-4,-1.311803237E-3,2.315108031E-1,2.315154555E-1
5.445951042E0,1.000782824E-3,-1.518198289E-3,2.312322408E-1,2.312393904E-1
5.455907042E0,1.161120716E-3,3.275414929E-4,2.309667915E-1,2.309699423E-1
5.465862042E0,-7.544909604E-4,-4.873853177E-4,2.298032641E-1,2.298050196E-1
5.475818042E0,3.770156763E-4,-9.505357593E-4,2.315980196E-1,2.316002771E-1
5.485774042E0,8.966075256E-5,-1.006195322E-3,2.304262221E-1,2.304284364E-1
5.495730042E0,-3.042726312E-4,7.022432983E-4,2.297078520E-1,2.297091269E-1
5.505686042E0,-3.668570425E-4,-5.979118869E-4,2.295848131E-1,2.295858848E-1
5.515642042E0,-7.506080437E-4,4.688091576E-5,2.323156446E-1,2.323168620E-1
5.525598042E0,-1.440899447E-3,2.153707668E-3,2.334599942E-1,2.334743745E-1
5.535554042E0,-2.207152545E-3,1.556353178E-3,2.335533649E-1,2.335689791E-1
5.545510042E0,-1.557074487E-3,4.601962864E-4,2.287740707E-1,2.287798324E-1
5.555466042E0,-9.436288383E-4,-5.770893767E-4,2.345835567E-1,2.345861644E-1
5.565422042E0,-2.294383943E-3,1.404569019E-3,2.345604002E-1,2.345758265E-1
5.575378042E0,-3.923050128E-3,1.093002036E-3,2.335315645E-1,2.335670708E-1
5.585334042E0,-3.480699146E-3,-3.522951156E-4,2.300225794E-1,2.300491826E-1
5.595290042E0,-7.463784423E-4,-1.580724493E-4,2.310283333E-1,2.310295930E-1
5.605246042E0,-1.405776944E-3,-6.283866242E-4,2.285787612E-1,2.285839477E-1
5.615202042E0,-8.347972762E-4,1.314277761E-3,2.295991331E-1,2.296044123E-1
5.625158042E0,-2.205792582E-3,-4.956061020E-4,2.305006236E-1,2.305117104E-1
5.635114042E0,-5.449131131E-4,4.933215678E-6,2.303927243E-1,2.303933687E-1
5.645070042E0,-1.011498971E-3,-2.597774379E-3,2.325895578E-1,2.326062638E-1
5.655026042E0,-8.718294557E-4,-6.495183334E-4,2.294949293E-1,2.294975044E-1
5.664982042E0,-1.826032531E-4,-7.461914793E-4,2.299178243E-1,2.299191076E-1
5.674938042E0,-4.897631705E-3,-2.646632493E-5,2.305202037E-1,2.305722269E-1
5.684894042E0,-7.814501878E-4,-2.722758800E-4,2.308150232E-1,2.308165066E-1
5.694850042E0,-1.121722395E-3,5.532940850E-4,2.273191065E-1,2.273225474E-1
5.704806042E0,-8.458190132E-4,1.780479215E-3,2.306616306E-1,2.306700530E-1
5.714762042E0,3.879747819E-4,1.436471008E-3,2.278248817E-1,2.278297406E-1
5.724718042E0,4.481622018E-4,1.174415927E-3,2.280613631E-1,2.280648273E-1
5.734674042E0,2.216452267E-4,-2.438541502E-3,2.299639583E-1,2.299769939E-1
5.744630042E0,1.149490592E-3,1.456065569E-3,2.297397256E-1,2.297472154E-1
5.754586042E0,-1.028268831E-3,-8.866842836E-5,2.273636460E-1,2.273659885E-1
5.764542042E0,2.356674522E-4,1.302833669E-3,2.296419740E-1,2.296457906E-1
5.774498042E0,-2.776176436E-3,-3.547305241E-4,2.295248061E-1,2.295418690E-1
5.784454042E0,-1.705585746E-3,1.322794706E-3,2.310585231E-1,2.310686043E-1
5.794410042E0,-2.686081920E-3,2.320397645E-3,2.303753048E-1,2.304026483E-1
5.804366042E0,-1.512160525E-3,-4.954915494E-5,2.294612974E-1,2.294662853E-1
5.814321042E0,-1.475437079E-3,6.367070600E-4,2.312924713E-1,2.312980536E-1
5.824277042E0,1.279869233E-3,-2.109771594E-4,2.304450423E-1,2.304486929E-1
5.834233042E0,-2.134033944E-3,2.224402968E-3,2.294886112E-1,2.295093130E-1
5.844189042E0,-5.896666553E-4,3.223735839E-4,2.287479788E-1,2.287489660E-1
5.854145042E0,-1.054024557E-3,-3.426083364E-3,2.321991473E-1,2.322268138E-1
5.864101042E0,-1.913160551E-3,-9.100604802E-5,2.319054008E-1,2.319133100E-1
5.874057042E0,-3.828779329E-3,3.949142992E-4,2.333914191E-1,2.334231565E-1
5.884013042E0,6.940672174E-4,2.003996633E-3,2.284904122E-1,2.285002543E-1
5.893969042E0,-2.540204208E-3,2.543535084E-3,2.300723195E-1,2.301004007E-1
5.903925042E0,-2.445592545E-4,-1.331631094E-3,2.286424637E-1,2.286464722E-1
5.913881042E0,-1.463222550E-3,2.228319645E-4,2.290773094E-1,2.290820908E-1
5.923837042E0,-3.086685436E-3,9.607938118E-4,2.304112911E-1,2.304339685E-1
5.933793042E0,-2.274864819E-4,3.134151921E-4,2.319656163E-1,2.319659396E-1
5.943749042E0,-1.714062877E-3,-7.617035881E-4,2.299546748E-1,2.299623245E-1
5.953705042E0,-5.801138468E-5,-1.211768016E-3,2.306114882E-1,2.306146792E-1
5.963661042E0,-8.436439093E-4,-3.366535529E-4,2.274971753E-1,2.274989887E-1
5.973617042E0,2.075991826E-3,4.061963409E-4,2.287313789E-1,2.287411603E-1
5.983573042E0,-7.957080379E-5,5.513383076E-4,2.269246876E-1,2.269253713E-1
5.993529042E0,-8.829273283E-4,5.988767371E-4,2.276690602E-1,2.276715599E-1
6.003485042E0,-2.691213740E-3,-9.108688682E-4,2.270722389E-1,2.270900130E-1
6.013441042E0,-1.473417040E-3,-1.378562301E-3,2.268823087E-1,2.268912810E-1
6.023397042E0,9.117098525E-4,-2.672243863E-4,2.289095074E-1,2.289114790E-1
6.033353042E0,1.496460754E-4,5.532335490E-4,2.277633101E-1,2.277640311E-1
6.043309042E0,1.224819571E-4,-8.435947821E-4,2.242663205E-1,2.242679405E-1
6.053265042E0,9.468059288E-4,-2.285121009E-4,2.287114412E-1,2.287135151E-1
6.063221042E0,1.214187359E-3,1.514793374E-3,2.311391681E-1,2.311473208E-1
6.073177042E0,-5.339893978E-4,1.423180569E-3,2.275141180E-1,2.275191958E-1
6.083133042E0,1.442342415E-3,-2.105161548E-5,2.304510623E-1,2.304555769E-1
6.093089042E0,-1.137904590E-3,1.460369211E-3,2.308855057E-1,2.308929281E-1
6.103045042E0,-4.886260722E-4,7.703443989E-4,2.304210514E-1,2.304228572E-1
6.113001042E0,2.477863105E-3,5.298480392E-5,2.324158400E-1,2.324290544E-1
6.122957042E0,-5.038119853E-4,-4.343735054E-4,2.292134017E-1,2.292143669E-1
6.132913042E0,2.736458555E-5,2.565367613E-3,2.282696962E-1,2.282841126E-1
6.142869042E0,2.188459039E-4,-3.965999931E-4,2.274462432E-1,2.274466942E-1
6.152825042E0,-8.666240610E-4,-1.100612804E-3,2.261726409E-1,2.261769791E-1
6.162781042E0,1.864980208E-3,-3.354866058E-4,2.248072475E-1,2.248152336E-1
6.172736042E0,-6.201304495E-5,-3.059897572E-4,2.283539474E-1,2.283541608E-1
6.182692042E0,3.031061497E-4,-1.491363160E-3,2.278628647E-1,2.278679468E-1
6.192648042E0,-1.132960897E-3,1.259746496E-3,2.276466638E-1,2.276529686E-1
6.202604042E0,1.275134273E-4,1.102353912E-3,2.312424779E-1,2.312451405E-1
6.212560042E0,1.480828505E-4,1.767968759E-3,2.282976657E-1,2.283045593E-1
6.222516042E0,-1.648385078E-4,-9.825434536E-4,2.274510413E-1,2.274532233E-1
6.232472042E0,4.203808494E-4,3.176210448E-4,2.316984236E-1,2.316990227E-1
6.242428042E0,-7.599322125E-4,1.365575474E-3,2.294091582E-1,2.294144812E-1
6.252384042E0,-6.795516238E-4,1.659551635E-4,2.288405299E-1,2.288415991E-1
6.262340042E0,-1.321639866E-3,1.203256659E-3,2.307822406E-1,2.307891617E-1
6.272296042E0,-1.709922915E-3,3.919675946E-4,2.300358117E-1,2.300425007E-1
6.282252042E0,-4.110995214E-4,3.194145858E-3,2.310531437E-1,2.310755868E-1
6.292208042E0,-6.301444955E-4,1.935074572E-3,2.298130244E-1,2.298220350E-1
6.302164042E0,1.001574332E-3,2.207516227E-3,2.300433815E-1,2.300561532E-1
6.312120042E0,8.742532227E-4,7.409723476E-4,2.256180644E-1,2.256209750E-1
6.322076042E0,-1.477850601E-3,8.450355381E-5,2.243325561E-1,2.243374399E-1
6.332032042E0,-7.263666485E-4,-2.356432378E-4,2.223307788E-1,2.223320902E-1
6.341988042E0,-8.752373978E-4,-4.992960021E-4,2.211981416E-1,2.212004366E-1
6.351944042E0,1.063502859E-4,-5.427654833E-4,2.199861109E-1,2.199868062E-1
6.361900042E0,-7.373392582E-4,5.216998979E-4,2.208074033E-1,2.208092507E-1
6.371856042E0,-1.412405400E-3,4.253610969E-4,2.186333537E-1,2.186383296E-1
6.381812042E0,7.767130155E-4,1.203004271E-3,2.176277339E-1,2.176324449E-1
6.391768042E0,-5.263814237E-4,-1.145405695E-4,2.176239043E-1,2.176245711E-1
6.401724042E0,-1.825019717E-5,-8.341269568E-4,2.156316042E-1,2.156332183E-1
6.411680042E0,1.550823683E-3,-1.353491098E-5,2.167389095E-1,2.167444581E-1
6.421636042E0,1.127647352E-3,1.221106853E-3,2.168464959E-1,2.168528659E-1
6.431592042E0,-1.145061105E-5,-6.434805691E-4,2.185068429E-1,2.185077906E-1
6.441548792E0,2.942802384E-4,-2.167074941E-3,2.189462632E-1,2.189571853E-1
6.451504792E0,-3.598073963E-3,-5.648434162E-4,2.215897590E-1,2.216196888E-1
6.461460792E0,-1.045433804E-3,1.785624772E-5,2.159001827E-1,2.159027146E-1
6.471416792E0,-2.083496656E-4,-2.937633544E-4,2.191788405E-1,2.191791364E-1
6.481372792E0,-3.747424576E-3,9.589870460E-4,2.183332890E-1,2.183675524E-1
6.491328792E0,-4.929648712E-4,-1.714308746E-3,2.189683318E-1,2.189755973E-1
6.501284792E0,5.187466741E-7,4.433849826E-4,2.175912112E-1,2.175916629E-1
6.511240792E0,6.352779455E-4,-1.372560859E-3,2.152086496E-1,2.152139642E-1
6.521196792E0,-2.158378251E-3,-6.356639788E-4,2.153127789E-1,2.153245352E-1
6.531151792E0,9.343725396E-4,9.770044126E-4,2.173871696E-1,2.173913731E-1
6.541107792E0,-2.266746946E-3,-5.093058571E-4,2.163200378E-1,2.163325133E-1
6.551063792E0,4.260230344E-4,2.745278180E-4,2.160736024E-1,2.160741968E-1
6.561019792E0,1.736031845E-3,7.685441524E-4,2.162464410E-1,2.162547750E-1
6.570975792E0,6.043792237E-4,-5.059465766E-4,2.161794454E-1,2.161808823E-1
6.580931792E0,-1.313363202E-3,-1.158953644E-3,2.148342729E-1,2.148414134E-1
6.590887792E0,1.839598990E-3,-6.895819679E-4,2.140803635E-1,2.140893778E-1
6.600843792E0,-2.431312576E-3,-3.899764270E-4,2.145093977E-1,2.145235304E-1
6.610799792E0,1.491698786E-3,-1.257651486E-3,2.116577029E-1,2.116666957E-1
6.620755792E0,1.751090749E-3,1.112295780E-3,2.127045840E-1,2.127147000E-1
6.630711792E0,-2.659989987E-4,1.427175477E-3,2.167358100E-1,2.167406721E-1
6.640667792E0,-1.478269696E-3,8.639167063E-4,2.298422903E-1,2.298486677E-1
6.650623792E0,-9.963614866E-5,1.508426387E-3,2.387165129E-1,2.387212995E-1
6.660579792E0,-1.647465397E-3,-1.078568399E-3,2.434548140E-1,2.434627772E-1
6.670535792E0,-1.942387782E-3,-5.345828831E-4,2.454603612E-1,2.454686285E-1
6.680491792E0,-2.697660122E-3,-7.119309157E-5,2.429764271E-1,2.429914125E-1
6.690447792E0,-2.509658225E-3,-2.984600142E-4,2.385060191E-1,2.385194093E-1
6.700403792E0,9.384821169E-5,-2.169064246E-3,2.334436178E-1,2.334537135E-1
6.710359792E0,-5.868177395E-4,-1.729312353E-3,2.308916599E-1,2.308988815E-1
6.720315792E0,-5.711498670E-5,-2.933358774E-4,2.279211730E-1,2.279213689E-1
6.730271792E0,-1.121949404E-3,-1.937048510E-4,2.261827737E-1,2.261856393E-1
6.740227792E0,-2.636124846E-4,2.419883385E-4,2.254227102E-1,2.254229942E-1
6.750183792E0,-1.850046916E-3,-1.514296979E-3,2.262566388E-1,2.262692696E-1
6.760139792E0,-1.256960677E-3,1.996015664E-3,2.287538946E-1,2.287660558E-1
6.770095792E0,-1.157136168E-3,-1.432456076E-3,2.296233177E-1,2.296307012E-1
6.780051792E0,-7.249054033E-4,8.224425837E-4,2.371193171E-1,2.371218514E-1
6.790007792E0,-3.867157735E-3,-7.513258606E-5,2.332920581E-1,2.333241199E-1
6.799963792E0,-2.444230951E-3,1.367501449E-3,2.314113230E-1,2.314282712E-1
6.809919792E0,-1.663659466E-3,1.067587640E-3,2.252175659E-1,2.252262407E-1
6.819875792E0,-8.415414486E-4,3.613037057E-3,2.241584361E-1,2.241891315E-1
6.829831792E0,3.271538299E-4,-2.156663686E-5,2.247804403E-1,2.247806794E-1
6.839787792E0,1.112786471E-3,3.288742155E-3,2.313882858E-1,2.314143317E-1
6.849743792E0,2.301321365E-5,-4.264246672E-4,2.355346680E-1,2.355350551E-1
6.859699792E0,3.872602247E-5,-1.068450511E-4,2.425606251E-1,2.425606517E-1
6.869655792E0,-2.114875242E-4,-2.060404979E-3,2.409274727E-1,2.409363756E-1
6.879611792E0,-1.184873050E-3,-4.840800539E-4,2.403724641E-1,2.403758718E-1
6.889567792E0,-1.008828403E-3,-1.905128360E-3,2.356026471E-1,2.356125093E-1
6.899523792E0,4.678943660E-4,1.165230293E-3,2.307506353E-1,2.307540517E-1
6.909479792E0,-2.914716024E-4,2.244450618E-3,2.280430645E-1,2.280542957E-1
6.919435792E0,1.294174348E-3,-6.749071181E-4,2.274134904E-1,2.274181743E-1
6.929390792E0,-7.292062510E-4,-1.706532203E-3,2.279292494E-1,2.279368042E-1
6.939346792E0,1.518768026E-3,5.347840488E-4,2.260762155E-1,2.260819495E-1
6.949302792E0,-1.704972703E-3,3.265382256E-3,2.252544016E-1,2.252845203E-1
6.959258792E0,-8.921758272E-4,8.195354603E-4,2.302712649E-1,2.302744516E-1
6.969214792E0,5.228549708E-4,-1.793194562E-3,2.342480272E-1,2.342554742E-1
6.979170792E0,-1.028170111E-3,-7.841233164E-4,2.357902676E-1,2.357938130E-1
6.989126792E0,-7.453742437E-4,-6.201462820E-4,2.399485707E-1,2.399505298E-1
6.999082792E0,-1.194383483E-3,-1.624424011E-3,2.400356531E-1,2.400441211E-1
7.009038792E0,-1.991997706E-3,-3.757793456E-5,2.386983782E-1,2.387066929E-1
7.018994792E0,-2.271096921E-3,-1.542251557E-4,2.344333231E-1,2.344443744E-1
7.028950792E0,-5.364723038E-4,5.984762684E-4,2.286531925E-1,2.286546051E-1
7.038906792E0,-1.300533302E-3,1.252281945E-3,2.273735404E-1,2.273807082E-1
7.048862792E0,1.478925813E-3,3.473851830E-4,2.233833671E-1,2.233885328E-1
7.058818792E0,-2.901707776E-3,1.243272796E-3,2.273589373E-1,2.273808523E-1
7.068774792E0,-8.153738454E-4,-4.173135385E-4,2.307991385E-1,2.308009561E-1
7.078730792E0,-1.528035617E-3,1.507382840E-4,2.342458069E-1,2.342508392E-1
7.088686792E0,-2.513608895E-3,5.563516170E-4,2.320338935E-1,2.320481749E-1
7.098642792E0,-2.657952253E-3,-9.938739240E-4,2.303433120E-1,2.303607907E-1
7.108598792E0,-2.276686952E-3,-1.468848437E-3,2.280236632E-1,2.280397592E-1
7.118554792E0,-4.798520822E-4,-7.495293394E-4,2.247405201E-1,2.247422823E-1
7.128510792E0,-8.749868721E-5,2.384378109E-3,2.271064669E-1,2.271190001E-1
7.138466792E0,8.640487213E-4,-9.863851592E-4,2.311550081E-1,2.311587275E-1
7.148422792E0,-3.712438513E-3,6.618881598E-4,2.341839820E-1,2.342143414E-1
7.158378792E0,2.631281968E-4,6.602909416E-4,2.382522225E-1,2.382532828E-1
7.168334792E0,-1.998132560E-3,1.353657339E-3,2.362578511E-1,2.362701783E-1
7.178290792E0,-1.018621959E-3,-1.393659972E-3,2.319541872E-1,2.319606105E-1
7.188246792E0,-1.071637962E-4,-2.738516778E-4,2.292830646E-1,2.292832532E-1
7.198202792E0,9.789969772E-5,-4.996880889E-4,2.245847285E-1,2.245853057E-1
7.208158792E0,-3.605479375E-3,1.739755273E-3,2.248807847E-1,2.249164147E-1
7.218114792E0,-8.712122217E-4,1.808198635E-3,2.240394950E-1,2.240484856E-1
7.228070792E0,9.125252254E-4,1.130457968E-4,2.258404344E-1,2.258423063E-1
7.238026792E0,-1.122662332E-3,-4.065362737E-4,2.276258171E-1,2.276289486E-1
7.247982792E0,-5.998809356E-4,-1.408569515E-3,2.329892814E-1,2.329943115E-1
7.257938792E0,-1.008676365E-3,2.346001565E-4,2.304454297E-1,2.304477566E-1
7.267894792E0,-8.510195184E-4,1.960132271E-3,2.329368144E-1,2.329466159E-1
7.277850792E0,-7.897668984E-4,2.410616726E-4,2.330617160E-1,2.330631787E-1
7.287806792E0,-1.258873381E-3,2.138074487E-4,2.314417809E-1,2.314453033E-1
7.297762792E0,5.486139562E-4,-6.155008450E-4,2.300601304E-1,2.300616078E-1
7.307718792E0,8.310670964E-4,1.302596647E-3,2.299438417E-1,2.299490330E-1
7.317674792E0,9.173536673E-4,-3.351084888E-5,2.307310700E-1,2.307328961E-1
7.327629792E0,-2.292863559E-3,-1.002109610E-3,2.331762314E-1,2.331896574E-1
7.337585792E0,1.415588195E-3,-1.461771317E-3,2.355488539E-1,2.355576431E-1
7.347541792E0,-3.713556565E-3,-1.293880865E-3,2.340551764E-1,2.340882103E-1
7.357497792E0,-2.132704016E-3,1.775411889E-3,2.319265157E-1,2.319431163E-1
7.367453792E0,2.208712744E-3,1.515044365E-3,2.298686206E-1,2.298842242E-1
7.377409792E0,-4.364501219E-3,2.147278748E-3,2.295905948E-1,2.296421148E-1
7.387365792E0,5.149808712E-4,1.751976088E-4,2.300541103E-1,2.300547534E-1
7.397321792E0,-1.836856594E-3,2.942411229E-4,2.311254889E-1,2.311329752E-1
7.407277792E0,-4.742017481E-4,4.181796685E-4,2.304600477E-1,2.304609150E-1
7.417233792E0,1.356622670E-4,9.534754790E-4,2.308275700E-1,2.308295791E-1
7.427189792E0,-1.935121603E-3,-2.771956846E-3,2.293942571E-1,2.294191658E-1
7.437145792E0,-2.381552476E-4,-9.290501475E-4,2.311689854E-1,2.311709749E-1
7.447100583E0,7.288644556E-4,-9.529832751E-4,2.360888869E-1,2.360919353E-1
7.457056583E0,-5.166959018E-4,-2.270182595E-3,2.340771407E-1,2.340887193E-1
7.467012583E0,-2.334013116E-3,-4.026247188E-4,2.367734909E-1,2.367853368E-1
7.476968583E0,-2.015232574E-3,2.735517919E-4,2.342823595E-1,2.342911863E-1
7.486924583E0,-1.838456839E-3,5.345419049E-4,2.334526628E-1,2.334605137E-1
7.496880583E0,-9.196661413E-4,8.442676626E-4,2.304512709E-1,2.304546525E-1
7.506836583E0,7.784138434E-4,-7.033813745E-5,2.312552184E-1,2.312565392E-1
7.516792583E0,1.826900407E-3,-1.158788800E-4,2.308216542E-1,2.308289129E-1
7.526748583E0,-4.059332423E-4,7.156245410E-4,2.310285717E-1,2.310300367E-1
7.536704583E0,-1.885851845E-3,4.024365917E-4,2.300653160E-1,2.300733970E-1
7.546660583E0,8.415749762E-4,1.824602485E-3,2.295956016E-1,2.296043939E-1
7.556616583E0,-1.848074608E-4,4.759775475E-4,2.300728410E-1,2.300734076E-1
7.566572583E0,-1.567282248E-3,-1.301950775E-3,2.329379171E-1,2.329468280E-1
7.576528583E0,-2.615502570E-3,-3.650505096E-4,2.310457379E-1,2.310608299E-1
7.586484583E0,-5.997833796E-5,-4.711505026E-4,2.339494675E-1,2.339499497E-1
7.596440583E0,-7.643844001E-4,-1.582488418E-3,2.354051471E-1,2.354117071E-1
7.606396583E0,-2.440238837E-3,-8.391542360E-4,2.382995486E-1,2.383135200E-1
7.616352583E0,-1.528904773E-3,1.256487332E-3,2.343852371E-1,2.343935914E-1
7.626308583E0,-1.313664950E-3,2.195539419E-3,2.368618399E-1,2.368756579E-1
7.636264583E0,-4.761004820E-4,-1.299325377E-4,2.346988320E-1,2.346993509E-1
7.646220583E0,5.309155677E-4,-5.438784137E-4,2.329721153E-1,2.329733551E-1
7.656176583E0,8.425053675E-4,-2.793449908E-3,2.334621400E-1,2.334803717E-1
7.666132583E0,-2.096127020E-3,-4.009548575E-4,2.312386334E-1,2.312484813E-1
7.676088583E0,-1.710234908E-3,-1.924289390E-4,2.276923656E-1,2.276988698E-1
7.686044583E0,-1.634754706E-3,1.723533031E-3,2.272181809E-1,2.272305981E-1
7.696000583E0,4.196076188E-4,6.856992841E-4,2.268661112E-1,2.268675355E-1
7.705956583E0,-1.674981322E-4,2.121341415E-3,2.275196314E-1,2.275295823E-1
7.715912583E0,-1.821853686E-3,1.785783097E-3,2.332108170E-1,2.332247700E-1
7.725868583E0,-2.558319829E-5,-1.425832510E-3,2.334009111E-1,2.334052676E-1
7.735824583E0,1.393349143E-3,2.322522923E-4,2.333274186E-1,2.333316944E-1
7.745780583E0,-3.502334002E-4,5.719726905E-4,2.313295752E-1,2.313305474E-1
7.755736583E0,1.001071651E-4,1.367192250E-3,2.328129560E-1,2.328169919E-1
7.765691583E0,-1.818347955E-3,9.339801036E-4,2.282885015E-1,2.282976536E-1
7.775647583E0,2.381452359E-4,4.538120702E-4,2.300627083E-1,2.300632791E-1
7.785603583E0,9.252231102E-4,-1.224641688E-3,2.279579490E-1,2.279631161E-1
7.795559583E0,-1.887075137E-3,-1.296014525E-3,2.291816771E-1,2.291931103E-1
7.805515583E0,4.270351492E-4,-2.223849297E-3,2.313537896E-1,2.313648716E-1
7.815471583E0,-7.455546875E-4,-5.892012268E-4,2.313897610E-1,2.313917122E-1
7.825427583E0,-2.896226943E-4,8.216397837E-4,2.311927825E-1,2.311944239E-1
7.835383583E0,-1.168998424E-3,-9.328508750E-4,2.290436178E-1,2.290485006E-1
7.845339583E0,-1.405326882E-3,-1.931066625E-3,2.326654494E-1,2.326777069E-1
7.855295583E0,8.495717775E-4,-1.757428981E-3,2.304624915E-1,2.304707581E-1
7.865251583E0,9.041137528E-4,-7.874881849E-4,2.324748337E-1,2.324779256E-1
7.875207583E0,-9.973833803E-4,-9.310320020E-4,2.314993143E-1,2.315033350E-1
7.885163583E0,-3.064990742E-3,7.922928780E-4,2.350195646E-1,2.350408851E-1
7.895119583E0,-1.247915672E-3,-3.019999713E-4,2.355298251E-1,2.355333246E-1
7.905075583E0,1.605854719E-3,8.547957987E-5,2.335769981E-1,2.335825339E-1
7.915031583E0,-1.613374334E-3,4.894807935E-4,2.330510169E-1,2.330571154E-1
7.924987583E0,-2.539251931E-3,3.930162638E-4,2.328518331E-1,2.328660096E-1
7.934943583E0,-1.791436225E-3,1.246026717E-3,2.333090901E-1,2.333192949E-1
7.944899583E0,-1.038239803E-3,-1.933783293E-3,2.339994609E-1,2.340097545E-1
7.954855583E0,-1.786321867E-3,2.550687641E-4,2.339067757E-1,2.339137357E-1
7.964811583E0,9.191285353E-4,5.277916789E-4,2.324346900E-1,2.324371065E-1
7.974767583E0,-5.132728256E-5,6.697382778E-4,2.302016318E-1,2.302026118E-1
7.984723583E0,2.399248537E-3,1.138513442E-3,2.292332798E-1,2.292486623E-1
7.994679583E0,7.564038970E-5,-1.778180711E-3,2.272710651E-1,2.272780339E-1
8.004635583E0,2.542732749E-3,-1.648555510E-3,2.293894887E-1,2.294095045E-1
8.014591583E0,2.205069177E-5,-3.835540265E-4,2.303005457E-1,2.303008661E-1
8.024547583E0,-2.948755166E-3,-1.695584506E-3,2.296255976E-1,2.296507898E-1
8.034503583E0,-9.971905965E-4,2.362806816E-3,2.299595624E-1,2.299738628E-1
8.044459583E0,9.645174723E-4,9.975396097E-6,2.332358807E-1,2.332378753E-1
8.054415583E0,2.499911934E-4,4.294235259E-4,2.344811857E-1,2.344817122E-1
8.064371583E0,-8.230935782E-4,1.505725086E-4,2.339391857E-1,2.339406822E-1
8.074327583E0,-2.096883720E-3,1.033676788E-3,2.352752984E-1,2.352869130E-1
8.084283583E0,-1.305546844E-3,9.866375476E-4,2.325158715E-1,2.325216300E-1
8.094239583E0,1.517350320E-4,5.855653435E-4,2.331960499E-1,2.331968345E-1
8.104195583E0,-1.235420816E-3,-1.751920208E-4,2.332589477E-1,2.332622851E-1
8.114151583E0,-2.266154625E-4,2.780780196E-4,2.308823466E-1,2.308826253E-1
8.124107583E0,-3.384961747E-5,-1.314216293E-3,2.306923121E-1,2.306960580E-1
8.134063583E0,1.888093539E-5,-1.598109491E-3,2.300174683E-1,2.300230207E-1
8.144019583E0,1.503909938E-3,-2.637851983E-3,2.273097783E-1,2.273300581E-1
8.153975583E0,-6.364725996E-4,2.780435607E-4,2.291612178E-1,2.291622704E-1
8.163931583E0,1.412408426E-3,-8.933534846E-4,2.286257297E-1,2.286318378E-1
8.173887583E0,-1.661678310E-3,2.041356638E-4,2.301152349E-1,2.301213249E-1
8.183843583E0,-1.762474887E-3,2.123903949E-3,2.303911150E-1,2.304076456E-1
8.193799583E0,8.039642125E-7,-4.266053438E-4,2.329139411E-1,2.329143318E-1
8.203755583E0,-2.438234631E-3,2.555316314E-4,2.347974181E-1,2.348102166E-1
8.213711583E0,2.957663964E-4,7.910933346E-4,2.328298837E-1,2.328314155E-1
8.223666583E0,1.682308619E-3,4.723938182E-4,2.301235944E-1,2.301302284E-1
8.233622583E0,-1.465814188E-3,1.730205026E-3,2.326024622E-1,2.326135156E-1
8.243578583E0,2.782119904E-3,6.550718099E-4,2.287233472E-1,2.287412050E-1
8.253534583E0,9.786272421E-4,1.828931272E-4,2.301332355E-1,2.301353889E-1
8.263490583E0,-1.376440283E-3,-4.341853783E-4,2.283721566E-1,2.283767173E-1
8.273446583E0,-4.625763278E-3,-1.358035952E-3,2.292520553E-1,2.293027405E-1
8.283402583E0,-1.796740107E-3,9.803883731E-4,2.297894061E-1,2.297985217E-1
8.293358583E0,-1.459051389E-3,-2.822168171E-4,2.320416421E-1,2.320464008E-1
8.303314583E0,-8.073314093E-4,5.564745516E-5,2.346034497E-1,2.346048454E-1
8.313270583E0,-1.265661558E-3,-1.812825911E-3,2.330548316E-1,2.330653187E-1
8.323226583E0,1.295754802E-3,-1.260441728E-3,2.331584096E-1,2.331654169E-1
8.333182583E0,3.535284195E-4,-1.472695731E-3,2.335155308E-1,2.335204423E-1
8.343138583E0,1.137649408E-3,-1.700408757E-4,2.293834984E-1,2.293863826E-1
8.353094583E0,-2.788859420E-4,-1.558081247E-3,2.278631032E-1,2.278686007E-1
8.363050583E0,-2.926565707E-3,2.238609828E-3,2.282911539E-1,2.283208863E-1
8.373006583E0,-1.943859272E-3,-1.190742478E-3,2.282424122E-1,2.282537956E-1
8.382962583E0,-1.029573847E-3,-5.955360830E-4,2.294418365E-1,2.294449193E-1
8.392918583E0,-1.458609477E-3,1.604501624E-3,2.298271954E-1,2.298374245E-1
8.402874583E0,-6.503257900E-4,1.335116103E-4,2.314074636E-1,2.314084159E-1
8.412830583E0,1.686597941E-3,-2.339500003E-3,2.329342514E-1,2.329521053E-1
8.422786583E0,-5.867197178E-4,-2.586055547E-3,2.336428612E-1,2.336579092E-1
8.432742583E0,-2.461052733E-3,-1.594028436E-3,2.295940667E-1,2.296127897E-1
8.442699542E0,-7.047855761E-4,1.239514910E-3,2.297306061E-1,2.297350310E-1
8.452655542E0,-7.742941380E-4,-4.228297621E-4,2.292264700E-1,2.292281677E-1
8.462611542E0,-1.345067285E-3,-9.372374043E-4,2.288333327E-1,2.288392050E-1
8.472567542E0,-8.084401488E-4,1.141626388E-3,2.261515260E-1,2.261558524E-1
8.482523542E0,-3.254802432E-4,8.810218424E-5,2.285381556E-1,2.285384043E-1
8.492479542E0,-4.647634923E-4,5.155391991E-4,2.314977348E-1,2.314987754E-1
8.502435542E0,-2.349141520E-3,1.289350446E-3,2.313888818E-1,2.314043982E-1
8.512391542E0,-1.066829544E-3,8.099814877E-4,2.304341346E-1,2.304380276E-1
8.522347542E0,-2.127973828E-3,5.741203204E-4,2.304737717E-1,2.304843104E-1
8.532303542E0,-4.698899575E-4,2.710707486E-5,2.326128185E-1,2.326132947E-1
8.542259542E0,1.973140985E-3,1.251221634E-3,2.346877009E-1,2.346993306E-1
8.552215542E0,-1.123582944E-3,5.468158051E-4,2.332621068E-1,2.332654537E-1
8.562171542E0,7.197705563E-4,6.214957684E-4,2.307134569E-1,2.307154167E-1
8.572127542E0,9.525308851E-4,1.136492938E-5,2.307267785E-1,2.307287450E-1
8.582083542E0,8.513710927E-4,-9.770849720E-4,2.300885320E-1,2.300921817E-1
8.592039542E0,-7.113718893E-4,-2.013063058E-4,2.305340767E-1,2.305352621E-1
8.601995542E0,-1.777181169E-3,2.938033082E-3,2.326092124E-1,2.326345548E-1
8.611951542E0,-7.313578390E-4,-5.288701504E-4,2.294168770E-1,2.294186524E-1
8.621907542E0,-2.472261200E-3,1.089911908E-3,2.297202498E-1,2.297361381E-1
8.631863542E0,-5.667693913E-4,-1.084292307E-3,2.286896110E-1,2.286928837E-1
8.641819542E0,6.063797045E-4,-1.064280979E-3,2.287816852E-1,2.287849643E-1
8.651775542E0,1.120103407E-3,1.869723201E-3,2.281550318E-1,2.281654422E-1
8.661731542E0,-1.905980054E-3,1.535478048E-3,2.289672941E-1,2.289803752E-1
8.671687542E0,-2.232613042E-5,1.138830557E-4,2.316112816E-1,2.316113107E-1
8.681643542E0,6.051962264E-4,2.264672890E-3,2.304583341E-1,2.304702557E-1
8.691599542E0,1.958683133E-4,-4.229890183E-4,2.308908254E-1,2.308912959E-1
8.701554542E0,-2.796393819E-4,2.240195870E-3,2.285963744E-1,2.286075219E-1
8.711510542E0,1.914738677E-4,3.182156011E-3,2.316073328E-1,2.316292715E-1
8.721466542E0,-3.053359687E-4,-1.421657391E-3,2.312885523E-1,2.312931230E-1
8.731422542E0,-1.728262752E-3,6.997864693E-5,2.320712507E-1,2.320776964E-1
8.741378542E0,2.502619755E-4,1.614858862E-3,2.315757424E-1,2.315815080E-1
8.751334542E0,-4.337565508E-3,-3.281831741E-4,2.296537459E-1,2.296949394E-1
8.761290542E0,3.848839551E-4,6.119273603E-4,2.295592278E-1,2.295603661E-1
8.771246542E0,-5.245856009E-4,8.872984909E-4,2.279347032E-1,2.279370339E-1
8.781202542E0,-1.352241030E-3,1.720355358E-3,2.280649841E-1,2.280754812E-1
8.791158542E0,1.491216011E-3,3.963429481E-5,2.273792326E-1,2.273841260E-1
8.801114542E0,4.314747639E-5,-1.610878855E-3,2.286216617E-1,2.286273408E-1
8.811070542E0,-6.535353605E-4,-1.221718267E-4,2.295417935E-1,2.295427563E-1
8.821026542E0,-2.440818585E-3,-3.670435399E-5,2.296745479E-1,2.296875201E-1
8.830982542E0,-1.441244967E-5,6.396230310E-5,2.317574024E-1,2.317574117E-1
8.840938542E0,-9.571337141E-4,-4.626614973E-4,2.312336862E-1,2.312361300E-1
8.850894542E0,-1.425583847E-3,3.037964925E-4,2.360873073E-1,2.360918069E-1
8.860850542E0,-1.054273453E-4,2.140307333E-3,2.334236801E-1,2.334335161E-1
8.870806542E0,2.103398321E-3,3.293575719E-4,2.314702570E-1,2.314800481E-1
8.880762542E0,2.045464236E-3,1.233850140E-3,2.328978330E-1,2.329100833E-1
8.890718542E0,-9.598373435E-5,2.869030926E-3,2.261603028E-1,2.261785204E-1
8.900674542E0,1.737096696E-3,-1.684036106E-4,2.248048484E-1,2.248116228E-1
8.910630542E0,-1.059222501E-3,2.598324791E-4,2.273172736E-1,2.273198899E-1
8.920586542E0,-1.361326315E-3,-1.750289463E-3,2.260645330E-1,2.260754073E-1
8.930542542E0,3.717321903E-3,-1.416062005E-3,2.234801948E-1,2.235155949E-1
8.940498542E0,-6.574280560E-4,1.691547688E-3,2.280846238E-1,2.280918437E-1
8.950454542E0,4.573711194E-4,1.761322841E-3,2.278007269E-1,2.278079951E-1
8.960410542E0,-3.878902644E-4,-1.691355370E-3,2.280283868E-1,2.280349893E-1
8.970366542E0,-3.383147530E-3,1.457034145E-3,2.261860073E-1,2.262159997E-1
8.980322542E0,2.939417027E-5,8.194553666E-4,2.269225568E-1,2.269240383E-1
8.990278542E0,-6.701215170E-5,1.693777740E-4,2.265031189E-1,2.265031921E-1
9.000234542E0,1.006029779E-3,-5.835015327E-5,2.265246511E-1,2.265268925E-1
9.010190542E0,-3.330129199E-3,-2.367813140E-4,2.268426269E-1,2.268671929E-1
9.020146542E0,1.517457888E-3,1.126376446E-3,2.282735705E-1,2.282813930E-1
9.030102542E0,-8.150399663E-5,1.992436592E-3,2.253342420E-1,2.253430653E-1
9.040058542E0,-1.152707264E-3,-6.133019924E-4,2.275270969E-1,2.275308434E-1
9.050014542E0,1.579163247E-3,-8.226744831E-5,2.282402962E-1,2.282457740E-1
9.059970542E0,9.961761534E-4,-7.884940132E-4,2.256558388E-1,2.256594153E-1
9.069926542E0,-1.585758524E-3,3.414852545E-4,2.281823754E-1,2.281881410E-1
9.079882542E0,-1.226293389E-3,1.238827128E-3,2.287017554E-1,2.287083982E-1
9.089838542E0,-1.569574699E-3,1.030568033E-3,2.291651368E-1,2.291728290E-1
9.099794542E0,1.346067409E-3,-1.460893080E-3,2.301524431E-1,2.301610157E-1
9.109750542E0,-3.980367910E-4,8.219690062E-4,2.326888442E-1,2.326906364E-1
9.119706542E0,1.130608609E-3,-4.216423258E-4,2.341724485E-1,2.341755574E-1
9.129662542E0,5.204784684E-4,-2.776143141E-3,2.351397127E-1,2.351566762E-1
9.139618542E0,-2.289722674E-3,-1.457941718E-3,2.335586846E-1,2.335744583E-1
9.149574542E0,-1.506220549E-3,3.233748954E-3,2.317850292E-1,2.318124793E-1
9.159530542E0,3.952377010E-4,1.057154033E-3,2.295257300E-1,2.295285048E-1
9.169486542E0,-6.729562301E-4,4.070764408E-4,2.287044078E-1,2.287057602E-1
9.179442542E0,7.986701094E-4,8.316170424E-4,2.267692983E-1,2.267722296E-1
9.189398542E0,2.202314790E-4,-9.276624769E-5,2.257874012E-1,2.257875277E-1
9.199354542E0,-1.066952944E-3,-3.740284592E-4,2.311683297E-1,2.311710945E-1
9.209310542E0,-3.068851307E-3,-5.841515958E-4,2.343446761E-1,2.343654973E-1
9.219266542E0,-5.169464275E-4,-2.139819786E-3,2.338292599E-1,2.338396220E-1
9.229222542E0,-2.042937558E-3,4.487726837E-4,2.395499945E-1,2.395591260E-1
9.239178542E0,5.350462161E-4,4.124511033E-4,2.376345247E-1,2.376354850E-1
9.249133542E0,-7.954691537E-4,2.534603700E-4,2.362771034E-1,2.362785784E-1
9.259090542E0,-3.165908158E-3,-6.977906451E-4,2.342642397E-1,2.342866703E-1
9.269045542E0,-1.303026918E-3,-1.792349853E-3,2.308055907E-1,2.308162280E-1
9.279001542E0,1.857348252E-4,-3.139211796E-3,2.288758755E-1,2.288974782E-1
9.288957542E0,-4.150744062E-4,-6.092088297E-4,2.285083681E-1,2.285095572E-1
9.298913542E0,-1.016486669E-3,-2.839899622E-3,2.288545221E-1,2.288743991E-1
9.308869542E0,-5.218155682E-3,-1.791352406E-4,2.312990427E-1,2.313579659E-1
9.318825542E0,-1.282027224E-3,2.416986972E-4,2.312299609E-1,2.312336412E-1
9.328781542E0,1.199239865E-3,1.439610496E-4,2.292762697E-1,2.292794512E-1
9.338737542E0,-3.010556102E-4,-1.791543327E-3,2.277358621E-1,2.277431078E-1
9.348693542E0,-1.611597370E-3,-6.128279492E-4,2.289542556E-1,2.289607476E-1
9.358649542E0,7.594039198E-4,-2.070912160E-3,2.268716991E-1,2.268824216E-1
9.368605542E0,3.452822566E-4,5.384525284E-4,2.263928652E-1,2.263937688E-1
9.378561542E0,-2.973952796E-4,2.544954419E-3,2.313176841E-1,2.313318746E-1
9.388517542E0,-7.653126959E-4,1.461314037E-3,2.357976586E-1,2.358034286E-1
9.398473542E0,6.065785419E-4,-3.609275445E-4,2.363537699E-1,2.363548238E-1
9.408429542E0,7.980526425E-5,1.119523309E-3,2.359633446E-1,2.359660138E-1
9.418385542E0,2.557850908E-3,-1.846638508E-3,2.328455150E-1,2.328668859E-1
9.428341542E0,6.686043926E-4,4.982743412E-4,2.321565449E-1,2.321580424E-1
9.438297542E0,-1.151790610E-3,-1.483117230E-3,2.262348533E-1,2.262426465E-1
9.448252792E0,1.102813985E-4,-8.865697309E-4,2.295797765E-1,2.295815148E-1
9.458208792E0,4.246383905E-4,-1.043637283E-3,2.273439169E-1,2.273467089E-1
9.468164792E0,1.856886433E-3,2.570506185E-4,2.264528126E-1,2.264605714E-1
9.478120792E0,3.771104384E-4,-3.915969282E-4,2.258695811E-1,2.258702354E-1
9.488076792E0,-1.893500797E-3,-1.771114767E-3,2.309977710E-1,2.310123209E-1
9.498032792E0,-2.673484851E-4,-4.388522357E-4,2.316640466E-1,2.316646166E-1
9.507988792E0,6.407895125E-4,1.217633951E-3,2.353080511E-1,2.353120740E-1
9.517944792E0,-1.610506559E-3,-1.118909568E-4,2.339589298E-1,2.339644996E-1
9.527900792E0,-1.169753494E-3,-1.085275784E-3,2.316398621E-1,2.316453579E-1
9.537856792E0,3.858853597E-4,-3.138932399E-3,2.272170186E-1,2.272390269E-1
9.547812792E0,-7.989548612E-4,1.806979999E-4,2.290330231E-1,2.290344879E-1
9.557768792E0,1.148391748E-3,-3.089932725E-4,2.286401391E-1,2.286432319E-1
9.567724792E0,-5.760050844E-4,1.086769160E-3,2.322055846E-1,2.322088422E-1
9.577680792E0,-2.152655972E-3,-1.848871820E-3,2.367754877E-1,2.367924910E-1
9.587636792E0,-4.350029863E-3,7.572979666E-4,2.359001040E-1,2.359414236E-1
9.597592792E0,1.133140177E-5,2.872774843E-3,2.317753285E-1,2.317931316E-1
9.607548792E0,1.077394700E-3,1.741936430E-4,2.338680476E-1,2.338705942E-1
9.617504792E0,-5.076960661E-4,7.297792472E-4,2.311402559E-1,2.311419656E-1
9.627460792E0,-1.463504508E-3,1.753093675E-4,2.290395498E-1,2.290442926E-1
9.637416792E0,1.618094626E-3,-7.764529437E-5,2.267389297E-1,2.267447166E-1
9.647372792E0,2.844746690E-3,6.510876119E-6,2.296915650E-1,2.297091807E-1
9.657328792E0,-3.355355002E-3,-6.396155804E-4,2.320056260E-1,2.320307695E-1
9.667284792E0,-2.865866292E-3,-8.755708113E-4,2.346128523E-1,2.346319891E-1
9.677240792E0,-1.973008271E-3,-1.688108779E-3,2.347048074E-1,2.347191707E-1
9.687196792E0,-2.518956084E-3,9.502852336E-4,2.325684279E-1,2.325840103E-1
9.697152792E0,-2.515638480E-3,-2.457770519E-3,2.335263342E-1,2.335528159E-1
9.707108792E0,-4.865759984E-4,-7.008835673E-4,2.297856510E-1,2.297872350E-1
9.717064792E0,-1.030842774E-3,2.209725790E-3,2.318235338E-1,2.318363568E-1
9.727020792E0,1.870404929E-3,-5.578314885E-4,2.318539023E-1,2.318621177E-1
9.736976792E0,8.623809554E-4,1.828490291E-3,2.327425629E-1,2.327513430E-1
9.746932792E0,-2.120359568E-3,-2.446682192E-3,2.348949313E-1,2.349172427E-1
9.756888792E0,4.485910758E-4,-1.725647599E-4,2.357081920E-1,2.357086820E-1
9.766844792E0,1.397209126E-3,7.598083466E-4,2.360442728E-1,2.360496308E-1
9.776800792E0,2.984234598E-4,-1.447309740E-3,2.354855686E-1,2.354902053E-1
9.786756792E0,1.918971539E-4,-7.165381685E-4,2.369553745E-1,2.369565356E-1
9.796712792E0,-4.080054350E-5,-1.787434332E-3,2.390519977E-1,2.390586835E-1
9.806668792E0,-1.171578653E-3,6.544189528E-4,2.393806428E-1,2.393844042E-1
9.816624792E0,-2.203467069E-3,2.229620703E-3,2.413478047E-1,2.413681613E-1
9.826580792E0,1.630419632E-3,8.655493148E-4,2.411962599E-1,2.412033234E-1
9.836536792E0,-1.771715935E-3,2.030832693E-4,2.420276254E-1,2.420341953E-1
9.846492792E0,2.379054204E-4,-6.584487855E-4,2.396190763E-1,2.396200990E-1
9.856448792E0,-1.807990950E-3,-4.067933187E-4,2.407649457E-1,2.407720777E-1
9.866404792E0,4.152162001E-4,1.199794933E-4,2.381699383E-1,2.381703305E-1
9.876360792E0,-1.217998099E-3,1.108757220E-3,2.373580188E-1,2.373637334E-1
9.886316792E0,8.563380688E-4,1.381464768E-3,2.355609089E-1,2.355665162E-1
9.896271792E0,-2.261129674E-3,7.883519866E-4,2.359171063E-1,2.359292590E-1
9.906227792E0,-8.842754178E-4,2.306087408E-3,2.381573617E-1,2.381701680E-1
9.916183792E0,-1.028106082E-3,4.589641467E-4,2.340611517E-1,2.340638597E-1
9.926139792E0,-2.269671764E-3,1.320496202E-3,2.352712899E-1,2.352859430E-1
9.936095792E0,3.721341491E-4,1.254157163E-3,2.377377301E-1,2.377413295E-1
9.946051792E0,-2.451865003E-4,2.408241853E-4,2.367116213E-1,2.367118708E-1
9.956007792E0,-4.896905739E-4,1.249089837E-4,2.353160530E-1,2.353165957E-1
9.965963792E0,-3.168515395E-4,5.108006299E-4,2.368127406E-1,2.368135034E-1
9.975919792E0,-3.007063642E-3,2.060694154E-3,2.347011268E-1,2.347294354E-1
9.985875792E0,1.929371967E-3,8.135358803E-4,2.332771271E-1,2.332865242E-1
9.995831792E0,-3.656763583E-4,-2.462817356E-4,2.332708538E-1,2.332712704E-1
1.000578779E1,-1.344387885E-3,-7.658647373E-4,2.323009223E-1,2.323060749E-1
1.001574379E1,-1.599233598E-3,1.153580379E-3,2.309994102E-1,2.310078262E-1
1.002569979E1,-1.709803473E-4,-1.443001442E-3,2.295884639E-1,2.295930623E-1
1.003565579E1,-1.362854848E-3,5.468837917E-4,2.318866849E-1,2.318913347E-1
1.004561179E1,-2.256877953E-3,1.449162606E-3,2.334520817E-1,2.334674881E-1
1.005556779E1,-2.045248169E-3,1.699474175E-3,2.331416160E-1,2.331567806E-1
1.006552379E1,-1.178655773E-3,2.935919911E-4,2.329999357E-1,2.330031019E-1
1.007547979E1,-2.183325822E-3,6.491951644E-4,2.296452224E-1,2.296565186E-1
1.008543579E1,-2.252035541E-3,-1.838197932E-3,2.310428470E-1,2.310611343E-1
1.009539179E1,-2.001959831E-3,-7.338663563E-4,2.302432507E-1,2.302531236E-1
1.010534779E1,-2.565750852E-3,1.460844651E-3,2.288948894E-1,2.289139304E-1
1.011530379E1,1.687868498E-4,-7.768599316E-4,2.286488116E-1,2.286501936E-1
1.012525979E1,7.371052634E-4,-1.858103089E-3,2.276940644E-1,2.277028389E-1
1.013521579E1,2.023038454E-3,2.323376946E-3,2.308005840E-1,2.308211436E-1
1.014517179E1,-5.748751573E-4,-2.718735486E-4,2.317571938E-1,2.317580663E-1
1.015512779E1,-1.436401159E-3,8.205138147E-5,2.315924019E-1,2.315968708E-1
1.016508379E1,-3.229240887E-3,2.623470500E-4,2.320557982E-1,2.320784141E-1
1.017503979E1,5.858126096E-4,1.126546413E-4,2.347365916E-1,2.347373496E-1
1.018499579E1,9.658979252E-5,-1.482312568E-3,2.335432470E-1,2.335479711E-1
1.019495179E1,2.966328524E-3,-6.179427728E-4,2.350682318E-1,2.350877593E-1
1.020490779E1,-1.333611086E-3,2.142954618E-4,2.337105423E-1,2.337144455E-1
1.021486379E1,1.663690316E-3,1.220986247E-3,2.343817353E-1,2.343908201E-1
1.022481979E1,1.797769219E-4,-1.089571975E-3,2.310996652E-1,2.311023036E-1
1.023477579E1,-8.769428823E-4,-9.417599067E-4,2.295003533E-1,2.295039610E-1
1.024473179E1,1.627549063E-4,-8.789096028E-4,2.307251394E-1,2.307268708E-1
1.025468779E1,-2.301000059E-4,7.959436625E-4,2.313838154E-1,2.313852988E-1
1.026464379E1,-1.849035732E-3,-6.269831210E-4,2.312642336E-1,2.312724752E-1
1.027459979E1,1.128425356E-3,6.142081693E-4,2.286428213E-1,2.286464308E-1
1.028455579E1,3.899307922E-4,-5.362769589E-4,2.280457318E-1,2.280466957E-1
1.029451179E1,2.017900581E-3,4.036566243E-4,2.297888547E-1,2.297980692E-1
1.030446779E1,-7.643036079E-4,5.149766803E-4,2.273307592E-1,2.273326273E-1
1.031442379E1,-1.503232867E-3,4.445947707E-5,2.319291085E-1,2.319339843E-1
1.032437979E1,-1.117607113E-3,1.442086417E-3,2.318766415E-1,2.318838191E-1
1.033433579E1,-1.974436454E-3,2.999873832E-4,2.328468114E-1,2.328553757E-1
1.034429179E1,-2.521704882E-4,3.029173240E-4,2.320545167E-1,2.320548514E-1
1.035424779E1,-1.750840805E-3,7.547903806E-5,2.336260825E-1,2.336326552E-1
1.036420379E1,5.211913958E-5,-3.426373005E-4,2.328665555E-1,2.328668134E-1
1.037415979E1,9.013810195E-4,1.439380925E-3,2.291806489E-1,2.291869415E-1
1.038411579E1,-1.160970889E-3,2.342458814E-3,2.294914275E-1,2.295063186E-1
1.039407179E1,7.664023433E-4,5.569588393E-5,2.289570570E-1,2.289583465E-1
1.040402779E1,-6.509320810E-4,-1.577087678E-3,2.311664224E-1,2.311727184E-1
1.041398379E1,1.352672232E-3,1.725741196E-3,2.295225710E-1,2.295330444E-1
1.042393979E1,2.163015306E-4,1.249155030E-4,2.299007326E-1,2.299008683E-1
1.043389579E1,-2.213134430E-3,1.804738306E-3,2.314543873E-1,2.314720036E-1
1.044385192E1,1.178933773E-3,1.294476446E-3,2.313025892E-1,2.313092158E-1
1.045380792E1,-2.079018392E-3,7.058219053E-4,2.283339947E-1,2.283445503E-1
1.046376392E1,5.780172069E-4,-1.151200384E-3,2.296187133E-1,2.296223265E-1
1.047371992E1,-4.595655482E-4,-9.006960317E-4,2.301764190E-1,2.301786400E-1
1.048367592E1,6.728104781E-4,-6.206613034E-5,2.281937003E-1,2.281947006E-1
1.049363192E1,-1.662576105E-3,1.684503630E-3,2.286479026E-1,2.286601519E-1
1.050358792E1,3.148210235E-4,7.390812971E-4,2.300633788E-1,2.300647814E-1
1.051354392E1,-2.078026999E-3,-4.630656913E-4,2.318758219E-1,2.318855956E-1
1.052349992E1,-7.030367851E-4,-6.926301867E-4,2.324289531E-1,2.324310483E-1
1.053345592E1,-1.480945852E-3,-5.295146257E-4,2.338819802E-1,2.338872682E-1
1.054341192E1,1.081014983E-3,-1.426200382E-3,2.318870127E-1,2.318939182E-1
1.055336792E1,2.901761094E-3,-1.717563719E-3,2.321886420E-1,2.322131257E-1
1.056332392E1,-2.080120612E-4,3.431905061E-4,2.320544273E-1,2.320547743E-1
1.057327992E1,1.148313750E-3,1.367652789E-3,2.301131040E-1,2.301200333E-1
1.058323592E1,-1.521505415E-3,-9.831199422E-4,2.272574008E-1,2.272646204E-1
1.059319192E1,1.798755140E-3,-1.394785009E-3,2.259980589E-1,2.260095210E-1
1.060314792E1,-2.950499766E-5,1.401800197E-3,2.291086316E-1,2.291129219E-1
1.061310392E1,6.813206710E-5,4.683611915E-4,2.277830541E-1,2.277835458E-1
1.062305892E1,2.907721791E-4,5.397340283E-4,2.286813408E-1,2.286821626E-1
1.063301592E1,-3.900694195E-3,-7.113600150E-4,2.297117263E-1,2.297459437E-1
1.064297192E1,1.184611581E-3,-7.182843983E-4,2.344273776E-1,2.344314710E-1
1.065292692E1,-7.343380712E-4,4.125218838E-4,2.345622629E-1,2.345637751E-1
1.066288292E1,-4.848001990E-4,-1.019193791E-3,2.327046990E-1,2.327074359E-1
1.067283892E1,-6.753888447E-4,1.203665044E-3,2.328286171E-1,2.328327080E-1
1.068279492E1,-1.864756690E-3,-1.673297957E-4,2.325481772E-1,2.325557139E-1
1.069275092E1,-1.818677876E-3,-2.602899447E-3,2.306464911E-1,2.306683474E-1
1.070270692E1,-1.338509843E-3,-5.719726905E-4,2.285857350E-1,2.285903694E-1
1.071266292E1,-1.133666374E-3,6.836159155E-4,2.268109024E-1,2.268147657E-1
1.072261892E1,-1.552209724E-4,1.080693677E-3,2.272918671E-1,2.272944893E-1
1.073257492E1,-2.282564528E-4,3.156522289E-4,2.277563214E-1,2.277566545E-1
1.074253092E1,3.006152809E-3,1.034439541E-3,2.273941338E-1,2.274163563E-1
1.075248692E1,-1.140630804E-3,-5.099261180E-4,2.267004400E-1,2.267038830E-1
1.076244292E1,8.532777429E-4,8.474867791E-4,2.277920693E-1,2.277952439E-1
1.077239892E1,5.260587204E-4,4.208926111E-4,2.291795164E-1,2.291805067E-1
1.078235492E1,-2.116063610E-3,1.333557535E-3,2.274170369E-1,2.274307912E-1
1.079231092E1,-4.888286348E-4,6.454577670E-4,2.284646332E-1,2.284660679E-1
1.080226692E1,-9.863071609E-4,-1.215026714E-3,2.284888774E-1,2.284942367E-1
1.081222292E1,4.002077039E-4,-5.587935448E-4,2.282794863E-1,2.282805210E-1
1.082217892E1,-2.041644882E-3,-1.164662652E-3,2.285327613E-1,2.285448485E-1
1.083213492E1,-6.102097686E-4,1.053284854E-3,2.310042381E-1,2.310074453E-1
1.084209092E1,-5.968941841E-4,-2.064211294E-3,2.286223173E-1,2.286324151E-1
1.085204692E1,-2.098714700E-3,-3.055874258E-4,2.300648540E-1,2.300746293E-1
1.086200292E1,5.255641881E-4,6.014853716E-4,2.307399660E-1,2.307413485E-1
1.087195892E1,4.598896485E-4,4.981532693E-4,2.315737307E-1,2.315747232E-1
1.088191492E1,-1.830429072E-3,8.512884378E-4,2.276807129E-1,2.276896621E-1
1.089187092E1,2.122395206E-3,-1.499524340E-3,2.269701660E-1,2.269850422E-1
1.090182692E1,-8.259904571E-4,9.721559472E-4,2.290631384E-1,2.290666905E-1
1.091178292E1,1.253596740E-3,5.842624232E-4,2.274866700E-1,2.274908743E-1
1.092173892E1,7.678361144E-4,2.334225923E-3,2.297013551E-1,2.297144983E-1
1.093169492E1,2.173560206E-4,-2.751946449E-3,2.282814533E-1,2.282981436E-1
1.094165092E1,2.614106052E-5,-1.751130447E-3,2.297925353E-1,2.297992089E-1
1.095160692E1,-1.255577430E-3,-1.179941930E-3,2.296525240E-1,2.296589874E-1
1.096156292E1,-8.164220490E-4,-1.287266612E-3,2.287534475E-1,2.287585263E-1
1.097151892E1,1.133761602E-3,-2.078941092E-3,2.291941196E-1,2.292063521E-1
1.098147492E1,-2.391450107E-5,1.458637416E-4,2.283818573E-1,2.283819051E-1
1.099143092E1,-1.553396927E-3,-1.199864782E-3,2.287682593E-1,2.287766797E-1
1.100138692E1,-1.533955568E-3,-8.933357894E-4,2.286476195E-1,2.286545100E-1
1.101134292E1,1.268555876E-3,-8.150935173E-5,2.277273536E-1,2.277309014E-1
1.102129892E1,-5.772812292E-4,1.880707685E-3,2.263481021E-1,2.263566514E-1
1.103125492E1,-5.777534097E-4,-5.876673386E-4,2.232828438E-1,2.232843647E-1
1.104121092E1,-1.673644409E-3,2.287215088E-3,2.226950824E-1,2.227131163E-1
1.105116692E1,-2.019842155E-3,-5.427049473E-4,2.212961465E-1,2.213060296E-1
1.106112292E1,5.019051023E-4,-1.592095941E-4,2.203563154E-1,2.203569445E-1
1.107107892E1,-1.251620706E-4,-7.528495044E-4,2.195514888E-1,2.195528152E-1
1.108103492E1,1.042900374E-3,-6.718896329E-4,2.173416018E-1,2.173451425E-1
1.109099092E1,-1.483146101E-3,-6.051557139E-4,2.190003246E-1,2.190061828E-1
1.110094692E1,3.808005713E-4,-9.436430410E-4,2.170492858E-1,2.170516711E-1
1.111090292E1,8.074736688E-4,1.978557557E-4,2.125974149E-1,2.125990404E-1
1.112085892E1,-9.528759401E-4,2.220897004E-4,2.142307311E-1,2.142329654E-1
1.113081492E1,5.653018598E-4,-5.825394765E-4,2.138611227E-1,2.138626633E-1
1.114077092E1,8.313516155E-4,-8.419314399E-4,2.123433799E-1,2.123466764E-1
1.115072692E1,2.048960188E-3,1.348042861E-3,2.160923630E-1,2.161062813E-1
1.116068292E1,-7.992903702E-4,-1.175035723E-3,2.275325060E-1,2.275369439E-1
1.117063892E1,8.278712630E-5,1.199113205E-3,2.358740270E-1,2.358770895E-1
1.118059492E1,-1.372097526E-3,-2.526649274E-3,2.447897494E-1,2.448066339E-1
1.119055092E1,-3.670256119E-4,1.360442955E-3,2.448932678E-1,2.448973216E-1
1.120050692E1,-5.731540732E-4,-8.846018463E-4,2.392953038E-1,2.392976253E-1
1.121046292E1,-9.383540601E-4,-3.669345751E-4,2.380770147E-1,2.380791467E-1
1.122041892E1,2.550086938E-4,-7.786592469E-4,2.315184474E-1,2.315198973E-1
1.123037492E1,-5.970564671E-4,8.376315236E-4,2.297984362E-1,2.298007384E-1
1.124033092E1,2.471970161E-3,4.152543843E-4,2.286996245E-1,2.287133606E-1
1.125028692E1,1.167075243E-4,-6.230939180E-4,2.271338999E-1,2.271347846E-1
1.126024292E1,-9.608073160E-4,-2.243360505E-3,2.267056704E-1,2.267188055E-1
1.127019892E1,3.287896048E-3,6.126631051E-4,2.242858112E-1,2.243107459E-1
1.128015492E1,1.572021400E-3,1.964750234E-3,2.237569094E-1,2.237710571E-1
1.129011092E1,5.598787684E-4,-1.829805784E-3,2.201574743E-1,2.201657901E-1
1.130006692E1,2.936217235E-3,6.024586037E-4,2.234632671E-1,2.234833687E-1
1.131002292E1,1.105049159E-4,-1.689754426E-4,2.278446108E-1,2.278447003E-1
1.131997892E1,-4.924349487E-4,-2.058488317E-3,2.337040901E-1,2.337136744E-1
1.132993492E1,-2.032048535E-3,-1.840447076E-3,2.371807992E-1,2.371966442E-1
1.133989092E1,-2.777999733E-3,-1.387709752E-3,2.385818809E-1,2.386020891E-1