"Time (s)","Gyroscope x (rad/s)","Gyroscope y (rad/s)","Gyroscope z (rad/s)","Absolute (rad/s)"
7.141208331E-3,2.514752792E-3,-2.497017384E-3,5.958108231E-3,6.932397213E-3
1.709820833E-2,9.461509762E-4,1.425019465E-3,6.522964686E-3,6.743511729E-3
2.705420833E-2,-6.857805420E-5,2.407512628E-3,3.887055442E-3,4.572747534E-3
3.701120833E-2,-1.913497690E-4,-6.165066734E-4,5.365642719E-3,5.404333169E-3
4.696720833E-2,-3.022005083E-3,1.892677508E-3,6.922014058E-3,7.786463991E-3
5.692420833E-2,-1.504269661E-3,-2.445079386E-3,7.557976991E-3,8.084816424E-3
6.688120833E-2,-1.546611078E-3,-1.906594262E-4,6.288929842E-3,6.479119956E-3
7.683720833E-2,-6.917363498E-4,-1.292675734E-3,4.105404951E-3,4.359341641E-3
8.679420833E-2,-4.427661188E-4,-1.561851241E-3,6.404200569E-3,6.606754578E-3
9.675020833E-2,-1.831338275E-3,-5.229515955E-4,3.977794200E-3,4.410229580E-3
1.067072083E-1,-2.239216119E-4,2.135420218E-4,6.168598309E-3,6.176353794E-3
1.166642083E-1,-1.109422650E-3,1.385333017E-3,7.498847321E-3,7.706015658E-3
1.266202083E-1,-4.156422801E-4,-2.412218601E-5,5.168881267E-3,5.185621847E-3
1.365772083E-1,4.091387382E-4,1.370042562E-3,4.694839008E-3,4.907741277E-3
1.465332083E-1,-1.374101732E-3,1.976536587E-3,5.856638774E-3,6.332066818E-3
1.564902083E-1,2.683490515E-3,4.920903593E-4,5.325336941E-3,5.983518012E-3
1.664472083E-1,-1.695945393E-3,-8.797366172E-5,6.872167811E-3,7.078888370E-3
1.764032083E-1,6.628163974E-4,2.346687950E-3,3.669183701E-3,4.405584972E-3
1.863602083E-1,-6.307883887E-4,-1.440722495E-3,6.203942001E-3,6.400193095E-3
1.963162083E-1,3.053128021E-4,-4.868768156E-5,3.792982548E-3,3.805562115E-3
2.062732083E-1,5.391158629E-4,5.832482129E-4,6.144433282E-3,6.195553628E-3
2.162302083E-1,2.360481303E-4,-1.081760041E-3,6.338576786E-3,6.434553534E-3
2.261862083E-1,1.140306355E-3,1.714966260E-3,5.681941286E-3,6.043663180E-3
2.361432083E-1,2.980018035E-3,-5.106376484E-4,5.063022487E-3,5.897071731E-3
2.460992083E-1,2.440407407E-4,1.463975757E-3,2.794553526E-3,3.164223492E-3
2.560562083E-1,3.495018464E-4,3.358600661E-4,4.787396640E-3,4.811872828E-3
2.660132083E-1,4.390696995E-5,-5.992660299E-4,4.611830227E-3,4.650809138E-3
2.759692083E-1,2.044473542E-3,-9.739724919E-4,5.095993169E-3,5.576525877E-3
2.859262083E-1,3.667345736E-4,5.765454844E-4,7.789023221E-3,7.818937375E-3
2.958822083E-1,1.825614134E-3,-2.831229940E-4,4.423852079E-3,4.794110221E-3
3.058392083E-1,-1.517262193E-3,1.445676200E-3,4.905935377E-3,5.334816413E-3
3.157962083E-1,-5.750359269E-4,1.390015706E-3,3.489133902E-3,3.799587526E-3
3.257522083E-1,-2.106834203E-3,7.878337055E-4,5.200210959E-3,5.665829712E-3
3.357092083E-1,-1.105751959E-3,1.880899072E-4,4.200993106E-3,4.348149984E-3
3.456652083E-1,1.912830165E-3,-3.337142989E-4,5.185021088E-3,5.536671216E-3
3.556222083E-1,4.598894157E-3,2.082837746E-3,6.479583681E-3,8.214197783E-3
3.655792083E-1,1.037927577E-3,-1.474556513E-3,5.848353729E-3,6.120036920E-3
3.755352083E-1,-4.411477130E-5,6.487816572E-4,4.758588970E-3,4.802815084E-3
3.854922083E-1,6.891655503E-4,-4.283115268E-4,5.004856735E-3,5.070206195E-3
3.954492083E-1,-6.011358928E-4,4.894137383E-4,2.514269203E-3,2.631052982E-3
4.054052083E-1,1.150902477E-3,-1.718199812E-3,2.288264222E-3,3.084305474E-3
4.153622083E-1,-2.224121476E-3,2.486931160E-3,3.628100269E-3,4.928960792E-3
4.253182083E-1,1.089217840E-3,1.053041779E-3,6.611648947E-3,6.783007761E-3
4.352752083E-1,-4.140964244E-3,4.333239049E-4,6.955463439E-3,8.106406487E-3
4.452322083E-1,-4.585058196E-4,-2.013566904E-3,4.821073264E-3,5.244752299E-3
4.551882083E-1,6.373848883E-4,1.345211640E-3,5.555040203E-3,5.751028213E-3
4.651452083E-1,-8.366634138E-4,2.544224262E-4,1.997923478E-3,2.180925186E-3
4.751012083E-1,5.306035746E-4,-7.937969640E-4,6.154319271E-3,6.227945044E-3
4.850582083E-1,3.508037189E-4,1.198127866E-4,4.046804272E-3,4.063747429E-3
4.950152083E-1,2.917824779E-3,-1.539336517E-3,5.467867479E-3,6.385987247E-3
5.049712083E-1,2.334781690E-3,1.451238990E-3,6.200999022E-3,6.783044229E-3
5.149282083E-1,4.276920808E-4,6.336485967E-4,5.021750927E-3,5.079607606E-3
5.248842083E-1,-1.261056634E-3,-3.510860726E-3,3.479134291E-3,5.101056978E-3
5.348412083E-1,2.564124297E-4,-1.129340380E-4,3.088182770E-3,3.100866693E-3
5.447982083E-1,1.595892361E-3,5.395151675E-6,5.028472282E-3,5.275645461E-3
5.547542083E-1,-5.689911777E-4,-1.202614047E-3,5.322751589E-3,5.486503074E-3
5.647112083E-1,2.394512994E-4,1.644575968E-4,7.144085132E-3,7.149988503E-3
5.746672083E-1,2.687429078E-3,-1.343690790E-3,8.003220893E-3,8.548644609E-3
5.846242083E-1,2.624051413E-4,8.396944031E-4,7.862755097E-3,7.911817798E-3
5.945812083E-1,-6.899413420E-4,-3.986749798E-4,4.449114203E-3,4.519909069E-3
6.045372083E-1,-1.980580389E-3,2.476925962E-3,2.764014527E-3,4.206855976E-3
6.144942083E-1,6.341111148E-4,1.423379406E-3,3.437261097E-3,3.773972667E-3
6.244502083E-1,3.111572005E-5,1.556249335E-3,5.828753114E-3,6.033012767E-3
6.344072083E-1,1.424358925E-4,2.238703892E-4,6.305724382E-3,6.311304613E-3
6.443642083E-1,1.267169719E-3,-6.835404783E-4,3.129795194E-3,3.445078321E-3
6.543202083E-1,-1.137664774E-3,1.386800781E-3,5.214517936E-3,5.514407933E-3
6.642772083E-1,1.076820772E-3,-1.239462756E-3,4.861191846E-3,5.130984025E-3
6.742332083E-1,-5.144178867E-4,1.275093295E-3,4.694477655E-3,4.891687758E-3
6.841902083E-1,-3.424718743E-4,-4.856791347E-4,4.628537223E-3,4.666532763E-3
6.941472083E-1,-8.817620110E-4,1.311087981E-4,6.888495758E-3,6.945938927E-3
7.041032083E-1,-3.509067465E-4,3.153700382E-4,3.798788413E-3,3.827974297E-3
7.140602083E-1,3.042309545E-4,-1.068940386E-3,5.195882171E-3,5.313415245E-3
7.240175417E-1,1.666451572E-3,2.841977403E-4,5.139859393E-3,5.410728581E-3
7.339745417E-1,-1.124541275E-3,2.240855247E-5,3.791500814E-3,3.954816512E-3
7.439315417E-1,3.676984459E-3,-2.050817944E-3,3.254832700E-3,5.321654335E-3
7.538875417E-1,1.672045328E-4,1.693585888E-3,6.151287816E-3,6.382361030E-3
7.638445417E-1,-2.180253388E-3,-4.244530573E-4,5.650216714E-3,6.071129561E-3
7.738015417E-1,1.542046783E-3,1.085558906E-3,5.270451307E-3,5.597678394E-3
7.837575417E-1,-1.747473143E-4,-1.401728950E-3,6.066186354E-3,6.228482765E-3
7.937145417E-1,7.179443492E-4,-5.628326908E-4,3.928201273E-3,4.032739760E-3
8.036705417E-1,-7.509257412E-4,1.130105928E-3,2.989558503E-3,3.283060907E-3
8.136275417E-1,-5.940654082E-4,8.116476238E-6,8.166851476E-4,1.009927827E-3
8.235845417E-1,5.199834704E-4,-1.219779253E-3,2.860930748E-3,3.153279084E-3
8.335405417E-1,-2.947452245E-3,-9.087212384E-4,6.132625043E-3,6.864571287E-3
8.434975417E-1,-1.539994613E-3,-2.077138983E-3,4.592309706E-3,5.270237015E-3
8.534535417E-1,-1.622286276E-3,-6.803115830E-4,8.047227748E-3,8.237263565E-3
8.634105417E-1,4.934875760E-4,1.313135959E-3,4.035133868E-3,4.272020760E-3
8.733675417E-1,-9.395595407E-4,-1.718429849E-4,4.986681044E-3,5.077330990E-3
8.833235417E-1,-1.328933286E-4,2.848496661E-4,2.261020243E-3,2.282764225E-3
8.932805417E-1,1.052746084E-3,2.091804519E-3,3.541202284E-3,4.245472186E-3
9.032365417E-1,-1.231287839E-3,-3.356235102E-3,2.237201668E-3,4.217280534E-3
9.131935417E-1,-6.762852427E-4,-1.427839510E-3,3.720316105E-3,4.041885614E-3
9.231505417E-1,-3.717226442E-3,1.503661275E-3,5.154224113E-3,6.530298297E-3
9.331065417E-1,-1.842361060E-3,5.630329251E-4,5.939325318E-3,6.243947916E-3
9.430635417E-1,-5.469268654E-4,-1.069041900E-3,3.921598196E-3,4.101330515E-3
9.530195417E-1,8.722716011E-4,-9.380141273E-4,6.338683888E-3,6.466810782E-3
9.629765417E-1,9.886203334E-4,-8.898321539E-5,5.026951432E-3,5.124014918E-3
9.729335417E-1,2.515676897E-3,-4.386566579E-4,1.667106524E-3,3.049638352E-3
9.828895417E-1,-3.380103735E-4,1.198793761E-3,1.619130373E-3,2.042777682E-3
9.928465417E-1,-5.739665357E-4,-2.768635750E-4,4.938760772E-3,4.979703705E-3
1.002803542E0,9.733673069E-4,-1.371365972E-3,6.360942498E-3,6.579489190E-3
1.012759542E0,1.863928279E-3,1.024945639E-3,4.325488582E-3,4.820227553E-3
1.022716542E0,-2.151666209E-3,7.480205968E-4,3.864771686E-3,4.486163447E-3
1.032672542E0,-4.847940290E-4,3.299594857E-3,4.722309299E-3,5.781224488E-3
1.042629542E0,-3.476374550E-4,1.414027065E-3,7.538503036E-3,7.677848160E-3
1.052586542E0,2.592969686E-4,7.168110460E-4,1.868899912E-3,2.018375553E-3
1.062542542E0,-2.080967417E-3,2.837739885E-5,3.831671551E-3,4.360382729E-3
1.072499542E0,3.832556540E-4,4.195962101E-4,5.301469937E-3,5.331841086E-3
1.082455542E0,2.882999834E-4,-4.290239885E-4,4.712091759E-3,4.740357287E-3
1.092412542E0,-2.065934474E-3,4.463577643E-4,2.907800488E-3,3.594805166E-3
1.102369542E0,-3.464464098E-4,1.236507669E-3,2.656218596E-3,2.950334483E-3
1.112325542E0,1.736689592E-4,-1.498824917E-3,1.562192105E-3,2.171884254E-3
1.122282542E0,4.959773505E-4,9.952895343E-4,2.765002660E-3,2.980240678E-3
1.132238542E0,-4.390585236E-4,-6.830347702E-4,2.748224884E-3,2.865667269E-3
1.142195542E0,1.044598408E-3,1.735985279E-5,6.111998111E-3,6.200645781E-3
1.152152542E0,-2.421239391E-3,5.167024210E-4,3.812624142E-3,4.545930535E-3
1.162108542E0,-1.520335791E-3,-2.353061922E-3,5.135261454E-3,5.849720636E-3
1.172065542E0,8.304365329E-4,5.252826959E-4,4.022592679E-3,4.140869305E-3
1.182021542E0,-9.001037106E-4,2.692826092E-4,2.380287275E-3,2.558997328E-3
1.191978542E0,-6.753329653E-4,4.551708698E-4,3.299191594E-4,8.786932266E-4
1.201935542E0,2.485308331E-3,-1.938688569E-3,4.443991929E-3,5.448333243E-3
1.211891542E0,-9.083576733E-4,-3.985827789E-4,5.353728309E-3,5.444849741E-3
1.221848542E0,-1.378353219E-3,5.469787866E-4,4.425252788E-3,4.667108915E-3
1.231805542E0,1.642204123E-3,9.227506816E-4,5.242577754E-3,5.570720304E-3
1.241761542E0,-1.161740394E-3,-2.108514309E-4,3.550899215E-3,3.742056160E-3
1.251718542E0,1.305412035E-3,-1.805552281E-3,3.848906606E-3,4.447269015E-3
1.261674542E0,1.255233074E-4,-3.417376429E-4,1.332455315E-3,1.381295726E-3
1.271631542E0,5.308564287E-4,2.076718956E-4,3.933032043E-3,3.974125969E-3
1.281588542E0,-1.531803980E-3,-2.250466496E-4,4.103421234E-3,4.385787871E-3
1.291544542E0,1.914592809E-3,-1.971703023E-5,4.262944683E-3,4.673195027E-3
1.301501542E0,-3.049501684E-4,2.457152121E-3,5.158632062E-3,5.722069198E-3
1.311457542E0,-4.815176362E-4,7.900139317E-4,4.792979918E-3,4.881458567E-3
1.321414542E0,-8.138061967E-4,1.476412639E-3,2.738665789E-3,3.215954775E-3
1.331371542E0,-5.901006516E-4,-8.860770613E-4,2.285928465E-3,2.521670138E-3
1.341327542E0,-6.734277122E-4,-2.218416892E-3,5.988877267E-3,6.421956813E-3
1.351284542E0,1.641364070E-4,9.600659832E-4,3.996299580E-3,4.113280659E-3
1.361240542E0,-3.549165558E-4,-3.204103559E-4,5.713257939E-3,5.733231622E-3
1.371197542E0,-4.020225257E-3,-1.719635911E-3,2.585641108E-3,5.079852234E-3
1.381154542E0,-9.188292315E-4,7.101343945E-4,3.295279108E-3,3.493909331E-3
1.391110542E0,4.058271879E-4,-8.933553472E-4,4.781855270E-3,4.881487407E-3
1.401067542E0,-1.482304651E-3,-1.265718602E-3,6.263591349E-3,6.559866405E-3
1.411024542E0,1.897246810E-3,1.137992367E-4,7.841780782E-3,8.068830247E-3
1.420980542E0,-1.228358829E-3,3.206217661E-4,3.190516494E-3,3.433811182E-3
1.430937542E0,-1.875506947E-3,-9.592929855E-4,4.509579390E-3,4.977356288E-3
1.440893542E0,1.258914475E-3,4.473319277E-4,3.762665205E-3,3.992821177E-3
1.450850542E0,1.998740714E-3,-1.862347126E-4,1.844656654E-3,2.726243933E-3
1.460807542E0,-1.034845016E-3,-7.137870416E-4,5.599547178E-3,5.738930627E-3
1.470763542E0,1.080503687E-3,9.253881872E-4,6.010739133E-3,6.176796616E-3
1.480720542E0,-4.174879286E-4,2.984091640E-3,5.185612477E-3,5.997472455E-3
1.490676542E0,9.471157100E-4,6.633251905E-5,3.982662223E-3,4.094267524E-3
1.500633542E0,-7.031291025E-4,4.580048844E-4,2.123453654E-3,2.283246467E-3
1.510590542E0,8.454991039E-4,2.205837518E-3,1.404399984E-3,2.748258941E-3
1.520546542E0,-3.905491903E-4,2.293541096E-3,4.926890135E-3,5.448587508E-3
1.530503542E0,-5.775028840E-4,-7.856050506E-4,4.462435842E-3,4.567714802E-3
1.540459542E0,1.017570263E-3,-2.132663503E-4,4.671998322E-3,4.786282492E-3
1.550416542E0,1.291397493E-4,-1.525459811E-4,5.043242127E-3,5.047201056E-3
1.560373542E0,-1.936050248E-3,2.070710994E-3,5.053533241E-3,5.794336270E-3
1.570329542E0,2.330943244E-4,3.569666296E-4,4.103317857E-3,4.125406110E-3
1.580286542E0,-6.809760816E-5,7.749134675E-4,1.762802713E-3,1.926811244E-3
1.590243542E0,-1.330787782E-4,1.734184101E-3,2.100224607E-3,2.726911780E-3
1.600199542E0,-2.849402372E-3,8.773449808E-4,5.237465724E-3,6.026597324E-3
1.610156542E0,-1.157229650E-3,-2.076100558E-3,4.990590736E-3,5.527691190E-3
1.620112542E0,-2.376884222E-4,-5.803387612E-4,4.464562051E-3,4.508392526E-3
1.630069542E0,1.419863082E-3,6.580315530E-4,6.197747774E-3,6.392268312E-3
1.640026542E0,1.634177868E-3,-3.977110609E-4,5.755914375E-3,5.996604180E-3
1.649982542E0,-9.126029909E-4,-3.742752597E-4,1.773688942E-3,2.029506997E-3
1.659939542E0,5.782493390E-4,-1.651095226E-4,3.615672700E-3,3.665340711E-3
1.669895542E0,7.950306754E-4,6.127990782E-4,2.952544950E-3,3.118512172E-3
1.679852542E0,2.833179897E-3,3.075767308E-4,3.438064829E-3,4.465624429E-3
1.689809542E0,-3.850669600E-5,-2.117389813E-4,6.680464372E-3,6.683930011E-3
1.699765542E0,-3.806063905E-4,-4.016896710E-4,4.223282449E-3,4.259381464E-3
1.709722542E0,-3.768780734E-4,-8.610542864E-5,3.347368911E-3,3.369618651E-3
1.719680667E0,5.954154767E-5,1.212957315E-3,3.392645158E-3,3.603449987E-3
1.729637667E0,-2.195576672E-4,-1.909598708E-3,4.578409716E-4,1.975953226E-3
1.739594667E0,2.898601815E-5,-2.274494618E-3,1.801950857E-3,2.901929160E-3
1.749550667E0,-1.085546915E-3,-8.608885109E-4,5.549019203E-3,5.719366682E-3
1.759507667E0,-2.039152198E-3,1.075557433E-3,6.515281275E-3,6.911139962E-3
1.769464667E0,-1.164836343E-3,-7.017515600E-6,5.646558478E-3,5.765458837E-3
1.779420667E0,-5.838240031E-4,-9.068222716E-4,4.891433753E-3,5.008922165E-3
1.789377667E0,1.052155858E-3,8.990671486E-4,3.157450818E-3,3.447440986E-3
1.799333667E0,-9.999419563E-4,3.386689350E-4,1.918658614E-3,2.189938684E-3
1.809290667E0,1.135256607E-4,1.280894503E-3,4.230549559E-3,4.421665792E-3
1.819247667E0,-8.398783393E-6,-2.112391405E-3,4.200144671E-3,4.701434169E-3
1.829203667E0,-5.871036556E-4,1.338798553E-3,4.207069986E-3,4.453819724E-3
1.839160667E0,2.693842398E-3,-1.459311694E-3,5.543228239E-3,6.333542200E-3
1.849116667E0,-1.465216163E-3,-4.558330402E-4,1.706145704E-3,2.294684145E-3
1.859073667E0,-9.729014710E-4,-2.184360288E-3,4.792392254E-3,5.355837064E-3
1.869030667E0,-1.161719440E-3,-1.347861253E-3,5.348192528E-3,5.636442613E-3
1.878986667E0,-3.376142588E-3,1.040515490E-3,5.771731958E-3,6.767119110E-3
1.888943667E0,1.199168270E-3,-1.061517745E-3,3.034535795E-3,3.431214356E-3
1.898899667E0,-1.519272919E-3,1.609492116E-3,5.674521439E-3,6.090882418E-3
1.908856667E0,-1.089971163E-3,-1.108530909E-3,3.286197782E-3,3.635378078E-3
1.918813667E0,-6.758337840E-4,2.449313179E-4,2.996839583E-3,3.081848494E-3
1.928769667E0,9.255249752E-4,7.975371554E-4,1.845022663E-3,2.212864800E-3
1.938726667E0,-2.498307731E-4,2.119261771E-4,4.943531007E-3,4.954374525E-3
1.948683667E0,1.904400298E-3,-1.003008336E-3,3.105150536E-3,3.778190846E-3
1.958639667E0,-3.297867719E-3,2.118256874E-3,2.695820294E-3,4.757141026E-3
1.968596667E0,-1.997446408E-3,5.211587995E-4,4.769889638E-3,5.197426845E-3
1.978552667E0,-4.381089006E-3,-4.874719307E-4,2.299893647E-3,4.972029822E-3
1.988509667E0,1.031415304E-4,1.027333550E-3,4.103919491E-3,4.231809021E-3
1.998466667E0,1.355688320E-3,5.692280829E-4,2.429899760E-3,2.840127510E-3
2.008422667E0,-1.362333889E-3,1.109584235E-3,5.256047472E-3,5.541946033E-3
2.018379667E0,5.689371610E-4,1.466358081E-3,2.725201659E-3,3.146525003E-3
2.028335667E0,6.831867504E-4,-9.531239048E-4,3.094049171E-3,3.308826013E-3
2.038292667E0,1.200540108E-3,1.247145236E-3,1.484676264E-3,2.280555064E-3
2.048249667E0,9.938788135E-4,-2.842937596E-3,5.345195532E-3,6.135242827E-3
2.058205667E0,-1.585191581E-3,1.564949751E-3,5.380315706E-3,5.823203343E-3
2.068162667E0,-1.402498921E-3,1.289046369E-3,4.426106811E-3,4.818616530E-3
2.078119667E0,1.078048721E-3,1.441209577E-3,2.857434563E-3,3.377011456E-3
2.088075667E0,2.912167693E-3,1.863278449E-4,4.442548379E-3,5.315230460E-3
2.098032667E0,9.932148969E-4,-1.506545581E-3,3.354127519E-3,3.808717216E-3
2.107988667E0,1.403608010E-3,-8.130585775E-4,3.269439563E-3,3.649714339E-3
2.117945667E0,2.827468794E-3,2.103621140E-3,3.328939900E-3,4.847849269E-3
2.127902667E0,-2.027473878E-3,1.912405714E-3,1.486298628E-3,3.158643626E-3
2.137858667E0,1.563914469E-3,9.228093550E-4,4.492872395E-3,4.845957896E-3
2.147815667E0,-1.950392849E-3,2.066856250E-4,5.044412799E-3,5.412287104E-3
2.157771667E0,-9.115342982E-4,2.190764062E-3,5.091316998E-3,5.617103411E-3
2.167728667E0,-1.027322141E-4,2.262136899E-3,4.472130910E-3,5.012760929E-3
2.177685667E0,1.352467807E-4,-2.346576191E-3,2.003193833E-3,3.088283835E-3
2.187641667E0,-1.919914503E-3,1.882212237E-4,3.527054563E-3,4.020150845E-3
2.197598667E0,9.959859308E-4,5.187764764E-4,6.325023249E-3,6.423942411E-3
2.207555667E0,1.390932826E-3,8.833631873E-4,4.525525495E-3,4.816160884E-3
2.217511667E0,-2.014976228E-3,6.394870579E-4,5.868868902E-3,6.238004095E-3
2.227468667E0,1.331551932E-3,-7.906304672E-4,4.347138107E-3,4.614730415E-3
2.237424667E0,6.817235844E-4,2.112251706E-3,9.017158300E-5,2.221370125E-3
2.247381667E0,-1.616051770E-3,2.761371434E-6,2.045197412E-3,2.606619152E-3
2.257338667E0,4.306860501E-4,1.191080548E-3,2.809733152E-3,3.082006446E-3
2.267294667E0,1.926050987E-3,1.586293802E-3,-5.908571184E-4,2.564198230E-3
2.277251667E0,-3.967796220E-4,3.187293187E-4,3.577284515E-3,3.613306927E-3
2.287207667E0,-3.842626465E-4,-1.324098557E-4,2.300564200E-3,2.336190444E-3
2.297164667E0,-7.120287046E-4,-4.098908976E-4,2.717817202E-3,2.839282615E-3
2.307121667E0,1.277885167E-3,2.404537052E-3,4.967389628E-3,5.664781430E-3
2.317077667E0,-4.810828250E-5,-8.577723056E-4,3.822641447E-4,9.403263324E-4
2.327034667E0,-9.602409555E-4,-8.092820644E-5,3.621999174E-3,3.747998144E-3
2.336990667E0,-7.912060246E-4,1.595665701E-3,2.068493515E-3,2.729619282E-3
2.346947667E0,-1.869519940E-3,-2.833704464E-3,2.897535451E-3,4.463260858E-3
2.356904667E0,2.053731587E-4,4.141405225E-4,2.912370488E-3,2.948828982E-3
2.366860667E0,1.881833072E-3,2.194633707E-4,2.718758769E-3,3.313775660E-3
2.376817667E0,-1.048303558E-3,-5.582142621E-4,-2.065170556E-4,1.205484470E-3
2.386774667E0,1.660131151E-3,-1.303632744E-3,1.183386892E-3,2.419896342E-3
2.396730667E0,2.601655899E-3,2.108753659E-3,1.753959805E-3,3.780453730E-3
2.406687667E0,7.840484031E-4,1.530582085E-3,1.022921875E-3,2.000945422E-3
2.416643667E0,-6.857649423E-4,8.712671697E-4,2.224917524E-3,2.485887774E-3
2.426600667E0,3.984078066E-4,-3.849454224E-4,3.261153586E-3,3.307874615E-3
2.436557667E0,2.656560391E-4,1.194738783E-3,1.785813831E-3,2.164972270E-3
2.446513667E0,2.833742183E-3,2.253474668E-4,2.374905162E-3,3.704193673E-3
2.456470667E0,2.656195546E-3,2.831732854E-4,2.462575212E-3,3.633158208E-3
2.466427667E0,1.363230869E-3,-4.228306934E-4,2.569900826E-3,2.939655499E-3
2.476383667E0,5.038317759E-3,-3.843577579E-4,1.329357736E-3,5.224898919E-3
2.486340667E0,-1.072837971E-3,3.508944064E-5,2.006599680E-3,2.275665805E-3
2.496296667E0,1.236703363E-3,2.506929450E-3,8.669523522E-4,2.926728012E-3
2.506253667E0,1.421441557E-4,-2.145347185E-3,2.788422629E-3,3.521082258E-3
2.516210667E0,-2.235659864E-3,5.406700075E-5,2.751622349E-3,3.545775489E-3
2.526166667E0,1.917273505E-3,6.343694404E-4,1.576369628E-3,2.561894511E-3
2.536123667E0,-1.891574124E-3,-1.200382598E-3,1.741364598E-3,2.837485103E-3
2.546079667E0,-1.833250746E-3,-8.254097775E-4,2.320069820E-3,3.069989180E-3
2.556036667E0,-6.241060328E-5,1.478944905E-3,4.693910480E-3,4.921785114E-3
2.565993667E0,1.190074021E-3,1.367367804E-5,1.576147974E-3,1.975020400E-3
2.575949667E0,8.679070743E-4,5.165645853E-4,5.939155817E-4,1.171681432E-3
2.585906667E0,1.239151694E-3,1.107254066E-3,8.130930364E-4,1.850034803E-3
2.595862667E0,-7.889656117E-4,-9.002806619E-4,2.478474751E-3,2.752418772E-3
2.605819667E0,4.627200542E-4,1.054746099E-3,1.178052276E-3,1.647545552E-3
2.615776667E0,-7.802977925E-4,5.954224616E-5,1.388796605E-3,1.594103489E-3
2.625732667E0,3.558067838E-4,-2.480846830E-3,2.452197485E-3,3.506347382E-3
2.635689667E0,2.445842838E-4,-1.003488898E-3,3.196286969E-3,3.359026917E-3
2.645646667E0,-2.896458609E-4,1.174976118E-3,2.711857669E-3,2.969618767E-3
2.655602667E0,8.051644545E-4,1.987208612E-3,6.205637008E-3,6.565608772E-3
2.665559667E0,1.020347932E-3,-1.369971782E-3,2.187726088E-3,2.775622096E-3
2.675515667E0,-8.009476587E-4,1.712242141E-3,4.090815783E-4,1.934072915E-3
2.685472667E0,-8.291772101E-4,3.931783140E-4,-9.938720614E-4,1.352740074E-3
2.695429667E0,5.907235900E-4,-1.165478490E-3,2.425885759E-3,2.755397646E-3
2.705385667E0,-1.188267954E-3,-9.500281885E-4,3.201664425E-3,3.544741088E-3
2.715342667E0,-4.661894636E-4,2.336101606E-4,1.936050132E-3,2.005042752E-3
2.725295917E0,-4.648579052E-4,-1.294512302E-3,2.718486823E-3,3.046641689E-3
2.735252917E0,3.268860746E-5,-1.930057071E-3,3.201674670E-3,3.738570520E-3
2.745209917E0,4.060638603E-4,3.858273849E-4,1.186461188E-3,1.312036882E-3
2.755165917E0,-1.670570695E-3,-1.161560416E-3,2.961769700E-3,3.593342289E-3
2.765122917E0,1.148917945E-3,-2.129422501E-4,5.185864866E-4,1.278393050E-3
2.775079917E0,1.010376844E-3,-1.472681761E-3,-1.565247774E-3,2.374795471E-3
2.785035917E0,-1.310539665E-4,1.129759476E-3,1.835342497E-3,2.159169677E-3
2.794992917E0,1.121598762E-3,-4.603142850E-3,2.792365849E-4,4.746038448E-3
2.804948917E0,1.665891614E-4,3.793649375E-4,2.259297296E-3,2.296974962E-3
2.814905917E0,2.654673299E-4,3.457162529E-4,6.697615609E-4,7.991077394E-4
2.824862917E0,-1.761198160E-3,1.037606038E-3,2.995500341E-3,3.626495215E-3
2.834818917E0,2.989343368E-3,2.207385376E-3,1.536221243E-3,4.021032166E-3
2.844775917E0,7.176668732E-4,-6.299465895E-4,1.180955209E-3,1.518727642E-3
2.854732917E0,-1.813860959E-3,-1.466521062E-3,2.550690435E-3,3.456413936E-3
2.864688917E0,8.298589964E-4,9.662769735E-4,2.162401564E-3,2.509648914E-3
2.874645917E0,2.393384930E-3,-2.249431796E-3,-9.738337249E-4,3.425870247E-3
2.884601917E0,-1.920136972E-3,-6.597908214E-4,-8.838186041E-4,2.214358879E-3
2.894558917E0,8.390971925E-5,1.608762890E-3,3.178901970E-3,3.563786836E-3
2.904515917E0,9.345233557E-4,-9.998027235E-4,3.714464605E-3,3.958558663E-3
2.914471917E0,1.995900180E-3,1.751328819E-3,6.306758150E-4,2.729198077E-3
2.924428917E0,-2.075992525E-4,-6.761029363E-5,4.670158960E-3,4.675259705E-3
2.934384917E0,2.070608782E-3,-1.156243496E-3,1.762790605E-3,2.954953547E-3
2.944341917E0,1.623464050E-3,-3.525018692E-4,2.622725442E-3,3.104606550E-3
2.954298917E0,1.396036241E-4,-1.068730839E-3,2.891300246E-4,1.115917088E-3
2.964254917E0,1.004551305E-4,4.042638466E-4,1.720312983E-3,1.770027471E-3
2.974211917E0,-4.744409584E-3,-1.775437035E-3,1.660788432E-3,5.331024027E-3
2.984168917E0,1.832372509E-4,9.239427745E-4,1.217904501E-3,1.539654998E-3
2.994124917E0,-5.261050537E-4,-8.071707562E-4,-2.156756818E-5,9.637304173E-4
3.004081917E0,6.163909566E-4,1.442135312E-3,2.088988200E-3,2.612195201E-3
3.014037917E0,-2.426690655E-3,2.163747326E-3,-1.359761693E-3,3.524142716E-3
3.023994917E0,-1.398976892E-3,1.292094588E-3,3.477070481E-3,3.964424788E-3
3.033951917E0,-2.404107945E-4,2.081161365E-4,2.034591511E-3,2.059289269E-3
3.043907917E0,-4.739699652E-4,-2.001468092E-4,1.851631328E-3,1.921781686E-3
3.053864917E0,1.722365618E-3,5.857590586E-4,1.972679049E-3,2.683490195E-3
3.063821917E0,1.316233538E-3,1.278979704E-3,1.454428770E-3,2.341713658E-3
3.073777917E0,-1.175872865E-3,-1.177779399E-3,2.119472250E-3,2.694810555E-3
3.083734917E0,1.207389869E-3,8.808439597E-4,1.599092036E-3,2.188783159E-3
3.093690917E0,4.546695855E-4,-2.068936825E-3,2.497176640E-3,3.274616800E-3
3.103647917E0,-1.074251253E-3,5.873003975E-4,2.545276657E-4,1.250488642E-3
3.113604917E0,8.199722506E-4,5.259281024E-4,-1.009440050E-3,1.402827172E-3
3.123560917E0,1.239420148E-3,-2.322737128E-4,2.182777971E-4,1.279749419E-3
3.133517917E0,-3.535741707E-4,-1.064914279E-3,1.898398623E-3,2.205215283E-3
3.143473917E0,1.570027089E-3,-2.302797511E-4,2.012649551E-3,2.562961576E-3
3.153430917E0,5.225044442E-4,-4.706317559E-4,2.605306916E-3,2.698542064E-3
3.163387917E0,2.668479457E-3,-9.590554982E-4,3.592808731E-3,4.576990784E-3
3.173343917E0,1.674783300E-3,4.671290517E-4,2.113092691E-3,2.736470239E-3
3.183300917E0,-1.004798105E-4,-1.014387235E-3,-2.541048452E-3,2.737883287E-3
3.193257917E0,-3.164088586E-3,9.809155017E-5,1.001385972E-3,3.320218728E-3
3.203213917E0,1.169939758E-3,1.109293662E-3,8.666301146E-4,1.830393188E-3
3.213170917E0,9.655518224E-4,-7.669879124E-4,5.987966433E-4,1.370809323E-3
3.223126917E0,-1.277362462E-3,-3.725737333E-4,5.239620805E-4,1.430035772E-3
3.233083917E0,2.064072760E-4,-2.113609575E-3,5.454227328E-3,5.853079971E-3
3.243040917E0,-3.291920992E-3,-7.519349456E-4,4.615066573E-3,5.718477896E-3
3.252996917E0,1.925554825E-4,2.298103645E-4,-3.737797961E-4,4.791677717E-4
3.262953917E0,-3.499303712E-4,1.438884996E-3,7.367581129E-4,1.653981201E-3
3.272910917E0,2.545927186E-3,8.402867243E-4,1.668248326E-3,3.157669946E-3
3.282866917E0,7.131800521E-5,-1.206086017E-3,2.179840580E-3,2.492275003E-3
3.292823917E0,-3.471530974E-3,-4.182467237E-4,2.962945029E-3,4.583175850E-3
3.302779917E0,-8.786773542E-4,7.934914902E-4,3.008751199E-3,3.233308895E-3
3.312736917E0,-1.726423972E-3,3.679636866E-3,-6.335424259E-4,4.113592493E-3
3.322693917E0,-9.980493924E-4,2.323023044E-3,-1.886826009E-3,3.154782249E-3
3.332649917E0,-8.787247352E-4,-4.238346592E-4,8.213790134E-4,1.275326022E-3
3.342606917E0,3.849451896E-4,-1.309336163E-3,-1.160539687E-4,1.369676060E-3
3.352562917E0,-1.207422116E-3,2.402480692E-3,-1.577728428E-3,3.117532459E-3
3.362519917E0,2.465875819E-3,-4.819892347E-4,2.474537119E-3,3.526498424E-3
3.372476917E0,-2.844488481E-4,-1.199077815E-5,3.492506221E-3,3.504091127E-3
3.382432917E0,-1.867108513E-4,1.581644639E-3,3.232581541E-3,3.603615424E-3
3.392389917E0,6.937594153E-4,1.149318181E-3,2.573309466E-4,1.366913905E-3
3.402346917E0,-2.186715603E-3,-3.713462502E-4,3.955485299E-4,2.253016157E-3
3.412302917E0,8.532496868E-4,1.496440731E-3,2.528745681E-4,1.741067327E-3
3.422259917E0,2.846866846E-5,1.030120999E-3,-1.745827496E-3,2.027282265E-3
3.432215917E0,-2.827964490E-4,2.170437016E-3,8.015558124E-4,2.330935947E-3
3.442172917E0,-5.512430798E-4,-1.073647290E-4,3.229026683E-3,3.277500486E-3
3.452129917E0,-4.044790985E-4,-1.449653879E-3,2.985263243E-3,3.343186555E-3
3.462085917E0,2.470669802E-3,-5.100909621E-4,3.452114761E-3,4.275686890E-3
3.472042917E0,3.501811530E-3,-1.246954314E-3,5.281707272E-4,3.754536373E-3
3.481999917E0,-2.100147773E-3,1.291571185E-3,1.351353712E-3,2.811571384E-3
3.491955917E0,-3.197136335E-3,-4.857499152E-4,5.789268762E-4,3.285238203E-3
3.501912917E0,2.590178512E-3,2.330373973E-4,1.061491668E-3,2.808931419E-3
3.511868917E0,-2.639176091E-4,2.626515925E-4,-9.238589555E-4,9.960691407E-4
3.521825917E0,-6.149221445E-4,-6.441548467E-4,1.260199584E-3,1.543103270E-3
3.531782917E0,5.530971684E-4,-3.589829430E-4,4.139481112E-3,4.191669013E-3
3.541738917E0,-1.140246168E-4,-9.366227314E-4,2.476871014E-3,2.650500664E-3
3.551695917E0,1.623223769E-3,-1.578163356E-3,2.714741975E-3,3.534866189E-3
3.561652917E0,1.848793472E-3,2.546806820E-3,9.914105758E-4,3.299569246E-3
3.571608917E0,-3.062742762E-4,6.538266316E-4,-7.748119533E-4,1.059068817E-3
3.581565917E0,7.557943463E-4,9.196102619E-4,1.235608011E-3,1.715702563E-3
3.591521917E0,6.488742656E-4,4.750564694E-4,5.084108561E-4,9.514189720E-4
3.601478917E0,5.500710104E-4,-4.011234269E-4,8.610133082E-4,1.097643857E-3
3.611435917E0,1.089214347E-4,-1.227260567E-3,3.270085901E-3,3.494494839E-3
3.621391917E0,-5.752446596E-4,-2.413578331E-4,3.373682499E-3,3.430873595E-3
3.631348917E0,8.850541199E-4,-1.688553020E-4,9.866375476E-4,1.336146159E-3
3.641304917E0,1.201942796E-4,2.524931915E-3,1.005811617E-3,2.720548630E-3
3.651261917E0,-1.280189259E-3,1.365343109E-3,-2.768057398E-3,3.341435037E-3
3.661218917E0,1.651684870E-3,1.501163468E-3,4.152189940E-4,2.270233794E-3
3.671174917E0,2.739613410E-4,3.444077447E-4,9.839376435E-4,1.077870492E-3
3.681131917E0,6.819576374E-4,-7.943604141E-4,3.396495245E-3,3.554188323E-3
3.691088917E0,-2.008792944E-3,1.768958755E-3,2.586368471E-3,3.722064755E-3
3.701044917E0,5.062948912E-5,-2.356544137E-3,2.128038555E-3,3.175596276E-3
3.711001917E0,-5.898147356E-4,1.832854003E-3,-1.902396791E-3,2.706722883E-3
3.720958958E0,7.252543001E-4,-9.235171601E-4,-3.109341487E-3,3.323685038E-3
3.730915958E0,-5.983995507E-4,-6.144596264E-4,-5.526505411E-4,1.020326063E-3
3.740872958E0,1.502035651E-3,7.144575939E-4,1.131532714E-3,2.011697550E-3
3.750828958E0,1.463452354E-3,1.230710186E-3,2.062495798E-3,2.812512981E-3
3.760785958E0,1.453864970E-3,-1.024188474E-3,2.586873248E-3,3.139203495E-3
3.770742958E0,1.990462188E-4,5.742395297E-4,6.382325664E-4,8.813122281E-4
3.780698958E0,2.311731922E-3,-1.200465485E-4,1.578329131E-3,2.801720631E-3
3.790655958E0,-1.815821743E-4,9.212931618E-4,1.103366725E-3,1.448851720E-3
3.800611958E0,-9.989063255E-4,-2.179691568E-3,2.269204706E-4,2.408394087E-3
3.810568958E0,-1.799306949E-3,5.475198850E-4,1.984639093E-3,2.734241367E-3
3.820525958E0,7.533330354E-4,1.302361488E-5,3.213688731E-3,3.300829523E-3
3.830481958E0,-5.773396697E-4,1.814933494E-3,1.145354472E-3,2.222417951E-3
3.840438958E0,-3.432098310E-5,1.029567793E-3,1.847895794E-3,2.115633861E-3
3.850395958E0,-4.620652180E-5,9.813103825E-4,-1.667148434E-3,1.935068218E-3
3.860351958E0,-1.255015261E-3,2.242051065E-3,-1.284452155E-3,2.872572649E-3
3.870308958E0,-1.138661755E-4,-1.469148323E-3,8.949218318E-4,1.724020703E-3
3.880264958E0,-2.251972910E-5,-6.371764466E-4,1.097855158E-3,1.269561700E-3
3.890221958E0,6.176783936E-4,1.442215405E-3,3.622409888E-3,3.947577139E-3
3.900178958E0,6.179447519E-4,-1.603641547E-3,1.928905956E-3,2.583447332E-3
3.910134958E0,-9.257555939E-4,3.857379779E-4,1.754335128E-3,2.020769395E-3
3.920091958E0,1.135530998E-3,-6.427746266E-4,1.921243966E-4,1.318901684E-3
3.930048958E0,5.738688051E-4,-4.630424082E-4,1.210035756E-3,1.417011012E-3
3.940004958E0,-1.208851347E-3,2.211239189E-4,-3.162221983E-4,1.268942018E-3
3.949961958E0,-1.190700103E-3,5.000643432E-5,1.254338771E-3,1.730211874E-3
3.959917958E0,8.317044121E-4,3.785889130E-3,2.673536539E-3,4.708766968E-3
3.969874958E0,-5.277335877E-4,6.204200909E-4,1.455911435E-3,1.668263149E-3
3.979831958E0,1.302390709E-3,-1.225151122E-3,1.942737959E-3,2.640349902E-3
3.989787958E0,-4.910221323E-4,4.230998456E-5,1.992305741E-3,2.052358408E-3
3.999744958E0,8.576026303E-4,1.333896071E-4,-1.614679582E-3,1.833157171E-3
4.009701958E0,-6.127516972E-4,-2.271958627E-3,-1.665619202E-3,2.882975541E-3
4.019657958E0,8.296163287E-4,2.008007839E-3,9.733075276E-4,2.380690295E-3
4.029614958E0,5.961686838E-5,-1.357246190E-3,1.519246958E-3,2.038083097E-3
4.039570958E0,7.597618969E-4,-1.441135071E-3,3.652982414E-4,1.669596130E-3
4.049527958E0,3.818202298E-3,-1.412741840E-3,-1.421028748E-3,4.312056470E-3
4.059484958E0,3.768134862E-3,1.132497564E-4,1.816842705E-3,4.184803850E-3
4.069440958E0,1.225714688E-3,-5.744658411E-4,6.675338373E-4,1.509300806E-3
4.079397958E0,1.338366303E-3,-4.263222218E-5,-9.111873806E-4,1.619661788E-3
4.089354958E0,-9.612686699E-4,-2.584041096E-3,1.823045313E-3,3.305268530E-3
4.099310958E0,1.225719228E-3,-3.885757178E-5,1.879237592E-3,2.243976708E-3
4.109267958E0,-5.353003507E-4,-1.542430371E-3,3.306735307E-4,1.665827992E-3
4.119223958E0,-1.256750664E-3,-1.091174781E-4,-4.110168666E-4,1.326749305E-3
4.129180958E0,-4.698201548E-3,-1.120710745E-3,-8.897446096E-4,4.911286576E-3
4.139137958E0,5.468942691E-4,-1.460264437E-3,1.129730605E-3,1.925553636E-3
4.149093958E0,2.727404702E-3,-1.193592325E-3,8.692461997E-4,3.101449339E-3
4.159050958E0,1.581712975E-3,5.901930854E-4,5.813576281E-4,1.785530875E-3
4.169007958E0,1.508501591E-4,4.731118679E-7,1.783548854E-3,1.789916900E-3
4.178963958E0,-6.723328261E-4,1.397567801E-3,5.454458296E-4,1.644000712E-3
4.188920958E0,1.928578131E-4,-3.450233489E-4,-1.835916191E-5,3.956921862E-4
4.198876958E0,1.185151632E-3,1.054201275E-3,1.687929034E-3,2.316253256E-3
4.208833958E0,1.532606664E-3,-8.935267106E-4,1.593999565E-3,2.384975426E-3
4.218790958E0,-1.017103787E-3,6.987769157E-4,1.352984458E-3,1.831217146E-3
4.228746958E0,-4.837326705E-4,-1.649502665E-3,1.302951947E-3,2.156974760E-3
4.238703958E0,1.479691127E-4,-2.508372068E-3,-7.896125317E-5,2.513972985E-3
4.248660958E0,2.675220836E-3,-1.113777980E-4,-1.672814600E-3,3.157137979E-3
4.258616958E0,-8.478749078E-4,-6.636977196E-5,-4.458967596E-4,9.602711732E-4
4.268573958E0,-3.439435037E-3,1.297956333E-3,1.792665571E-4,3.680562527E-3
4.278529958E0,1.460781554E-3,-5.817031488E-4,-1.837811433E-3,2.418638494E-3
4.288486958E0,-1.007326646E-4,1.646304503E-3,4.920605570E-3,5.189684457E-3
4.298443958E0,-2.711749403E-4,-3.105858341E-4,1.456897706E-3,1.514117015E-3
4.308399958E0,-1.324417768E-3,4.679821432E-4,8.596898988E-4,1.646862603E-3
4.318356958E0,1.381902257E-4,1.420594752E-3,-1.784097403E-4,1.438407461E-3
4.328313958E0,-4.007613752E-4,2.310715616E-3,3.316442482E-3,4.061872361E-3
4.338269958E0,6.232240121E-4,-1.551052555E-4,1.557157375E-3,1.684400457E-3
4.348226958E0,-1.222111983E-3,-1.072145998E-3,2.459671348E-3,2.948395815E-3
4.358182958E0,2.263812348E-4,-1.662568189E-3,1.592813060E-3,2.313532989E-3
4.368139958E0,2.230787417E-3,1.078095287E-3,8.908715099E-4,2.632936383E-3
4.378096958E0,-2.962860744E-4,9.047230706E-4,-7.688105106E-4,1.223674333E-3
4.388052958E0,-3.810052294E-5,2.673612908E-4,1.638252288E-4,3.158677179E-4
4.398009958E0,1.821429469E-4,1.134304330E-4,1.766249537E-3,1.779235776E-3
4.407966958E0,-1.753098681E-3,7.927436382E-4,2.915230580E-3,3.492902345E-3
4.417922958E0,-1.392230624E-4,3.695674241E-4,1.969008707E-3,2.008222704E-3
4.427879958E0,-1.085658791E-3,-1.756766811E-3,2.407532185E-3,3.171923054E-3
4.437835958E0,-5.943055730E-4,-1.096017659E-4,1.853594556E-3,1.949621615E-3
4.447792958E0,-8.070620243E-4,5.771797150E-4,-2.512000501E-4,1.023516976E-3
4.457749958E0,-1.174045727E-3,1.377992332E-3,2.319816500E-3,2.942583020E-3
4.467705958E0,-9.709453443E-4,-1.580422744E-3,2.810877748E-3,3.367715045E-3
4.477662958E0,-2.148595173E-3,-2.246070653E-4,2.728053369E-3,3.479825388E-3
4.487619958E0,5.645143683E-4,-2.533450723E-3,2.845846117E-3,3.851738459E-3
4.497575958E0,-1.933797030E-3,6.452985108E-4,4.309520125E-3,4.767383437E-3
4.507532958E0,3.630038118E-4,-1.522777602E-4,1.006613486E-3,1.080847349E-3
4.517489958E0,-2.078848658E-3,-6.707953289E-4,3.373604268E-4,2.210291875E-3
4.527445958E0,-1.390126999E-4,-5.274415016E-4,4.004165530E-4,6.766479767E-4
4.537402958E0,2.359603532E-4,-1.665144227E-3,9.607458487E-4,1.936857035E-3
4.547358958E0,-2.797918394E-3,2.534251660E-3,8.921334520E-4,3.879005145E-3
4.557315958E0,-2.644520253E-3,1.990434714E-3,3.188842908E-3,4.596089295E-3
4.567272958E0,8.694313583E-4,6.400160491E-4,5.951151252E-4,1.232758469E-3
4.577228958E0,2.148083877E-5,1.041620038E-3,1.993691549E-4,1.060745865E-3
4.587185958E0,-1.111513353E-3,2.411035821E-4,8.109239861E-4,1.396850236E-3
4.597142958E0,-3.226862289E-3,1.702114008E-3,-2.980086021E-3,4.710705364E-3
4.607098958E0,4.966147826E-4,-1.649539918E-4,-1.624565572E-3,1.706765760E-3
4.617055958E0,3.173840232E-4,-1.304254867E-3,-8.911313489E-4,1.611188523E-3
4.627011958E0,-1.152093755E-4,1.141739078E-3,-2.964371815E-4,1.185207292E-3
4.636968958E0,-8.060333785E-4,-1.850482076E-4,3.369137645E-3,3.469152795E-3
4.646925958E0,1.682492672E-3,1.031112857E-3,2.466504462E-3,3.158737022E-3
4.656881958E0,-7.327281637E-4,-7.201824337E-4,7.825875655E-4,1.291509426E-3
4.666838958E0,-2.083969768E-3,8.306950331E-4,4.220092669E-4,2.282778144E-3
4.676795958E0,-1.118989894E-4,1.656636596E-5,-8.009150624E-4,8.088638733E-4
4.686751958E0,-1.357371686E-3,3.596932627E-3,2.372168005E-3,4.517473106E-3
4.696708958E0,3.750304924E-3,1.522595994E-3,1.645924523E-3,4.369456845E-3
4.706664958E0,-4.059243947E-4,-4.156865180E-4,2.530058846E-3,2.595913646E-3
4.716621958E0,6.249853177E-4,1.691939309E-3,-9.850477800E-4,2.055136103E-3
4.726577958E0,1.953805331E-4,-4.443023354E-4,1.346413977E-3,1.431226298E-3
4.736533958E0,-9.949202649E-6,-1.081329770E-3,1.997291110E-3,2.271243016E-3
4.746490958E0,2.722917125E-4,1.766660251E-3,-7.680887356E-4,1.945556867E-3
4.756447958E0,-2.386341803E-3,4.151063040E-4,2.732636407E-3,3.651608163E-3
4.766403958E0,-1.298668096E-3,-7.032277063E-4,-3.027319908E-4,1.507552549E-3
4.776360958E0,-1.247002743E-3,-1.146377064E-3,-6.899554282E-4,1.828998280E-3
4.786316958E0,5.690107355E-4,-1.264501363E-3,2.875138074E-3,3.192045717E-3
4.796273958E0,-1.484449022E-4,-3.883214667E-4,9.879376739E-5,4.273051123E-4
4.806230958E0,-9.434403619E-4,1.193918288E-3,2.459772862E-3,2.892404386E-3
4.816186958E0,-1.449707313E-3,1.808043569E-3,-3.377343528E-3,4.095988544E-3
4.826143958E0,3.846797626E-4,3.205481917E-4,-1.743237488E-3,1.813727268E-3
4.836100958E0,4.611124750E-4,1.068363898E-3,7.257796824E-4,1.371416158E-3
4.846056958E0,1.415095059E-3,-2.920664847E-4,1.975463703E-3,2.447499479E-3
4.856013958E0,1.458324259E-4,-5.184952170E-5,3.908652812E-3,3.911716027E-3
4.865970958E0,1.604087884E-4,1.964438707E-3,9.324699640E-4,2.180424419E-3
4.875926958E0,5.707819946E-5,6.339242682E-4,-8.795447648E-4,1.085687290E-3
4.885883958E0,9.967654478E-5,1.546132378E-3,-6.763376296E-4,1.690530489E-3
4.895839958E0,4.552085302E-4,1.485146582E-3,3.867968917E-4,1.600777003E-3
4.905796958E0,-1.235671807E-4,2.318220213E-4,1.266270876E-3,1.293233246E-3
4.915753958E0,6.341022090E-4,1.206539571E-3,-9.841006249E-4,1.681153589E-3
4.925709958E0,-9.811993223E-4,2.390128560E-3,8.906470612E-4,2.732895686E-3
4.935666958E0,2.091822214E-3,1.227658242E-3,-4.465263337E-4,2.466221949E-3
4.945623958E0,-9.967621882E-4,9.079836309E-5,7.978128269E-4,1.279954886E-3
4.955579958E0,-7.903671358E-4,-3.004195169E-4,4.974091426E-4,9.809933489E-4
4.965536958E0,-1.468039118E-4,3.759283572E-5,-9.069228545E-4,9.194964240E-4
4.975492958E0,-1.331378007E-3,3.642181866E-3,5.184011534E-4,3.912390049E-3
4.985449958E0,-7.711276412E-4,2.697249874E-4,1.324702054E-3,1.556349877E-3
4.995406958E0,-3.735176288E-4,2.649305388E-4,1.835761592E-3,1.892015917E-3
5.005362958E0,-1.003957586E-4,4.716292024E-4,3.613593057E-3,3.645623156E-3
5.015319958E0,2.656775061E-3,9.968047962E-4,-1.756139100E-3,3.337079271E-3
5.025276958E0,6.362627028E-4,-6.128195673E-5,-1.972598955E-3,2.073579596E-3
5.035232958E0,5.848637084E-4,2.819988877E-4,-1.881785691E-3,1.990654746E-3
5.045189958E0,-2.528293757E-3,3.257386386E-3,1.753814518E-3,4.480926328E-3
5.055145958E0,1.782769104E-4,-6.038043648E-5,1.404939219E-3,1.417491680E-3
5.065102958E0,-5.951104686E-5,-9.326981381E-4,4.762930796E-3,4.853759074E-3
5.075059958E0,1.084849238E-3,5.493508652E-4,4.287822172E-3,4.456916336E-3
5.085015958E0,-1.956083113E-3,2.042525448E-3,-1.075118780E-5,2.828124279E-3
5.094972958E0,8.373065502E-4,1.169540919E-3,-3.432646394E-3,3.721823409E-3
5.104929958E0,1.476564677E-3,1.540606841E-3,-6.722295657E-4,2.237321004E-3
5.114885958E0,-1.248381799E-3,2.554738894E-3,-2.530477941E-4,2.854677060E-3
5.124842958E0,-2.610852011E-3,1.694269478E-3,1.299080439E-3,3.372640994E-3
5.134799958E0,-4.196679220E-5,-1.283986494E-4,8.215764537E-4,8.326075271E-4
5.144755958E0,2.889214084E-4,4.978151992E-4,1.526772976E-3,1.631665184E-3
5.154712958E0,4.497589543E-5,2.126604319E-3,2.141164616E-3,3.018121050E-3
5.164668958E0,1.659054542E-3,-2.567570657E-3,7.441490889E-4,3.146210247E-3
5.174625958E0,-1.176679274E-3,6.881440058E-4,-3.310780041E-3,3.580416284E-3
5.184582958E0,-9.486086201E-4,1.194328070E-4,-1.121877693E-3,1.474019018E-3
5.194538958E0,-2.008014126E-3,-2.968190238E-4,-5.090842023E-4,2.092698972E-3
5.204495958E0,-1.348010497E-3,-5.208486691E-4,1.791488379E-3,2.301705074E-3
5.214452958E0,-1.504071755E-3,3.353252076E-3,4.839476198E-3,6.076764040E-3
5.224408958E0,-1.188068069E-3,-9.920615703E-4,1.429421827E-3,2.106878889E-3
5.234365958E0,4.194160574E-4,1.602880657E-4,1.240337268E-3,1.319105239E-3
5.244321958E0,9.015628020E-4,1.300244592E-3,-2.208041027E-3,2.716412462E-3
5.254278958E0,-4.830146208E-4,-2.445491962E-3,-2.507380210E-3,3.535631426E-3
5.264235958E0,-8.004356641E-5,2.943947911E-4,1.502912492E-3,1.533564874E-3
5.274191958E0,6.011931109E-4,-1.434262842E-3,1.424880698E-3,2.109224516E-3
5.284148958E0,1.175819081E-3,-1.337471418E-3,1.909993589E-3,2.611408780E-3
5.294105958E0,2.514359076E-4,-9.883567691E-5,7.581757382E-4,8.048720125E-4
5.304061958E0,3.321260447E-4,9.977873415E-4,-1.198091544E-3,1.594148875E-3
5.314018958E0,-1.516107703E-3,-3.634514287E-3,2.466950566E-3,4.646947575E-3
5.323975958E0,-1.964184688E-3,-5.947547033E-4,2.149306238E-4,2.063480027E-3
5.333931958E0,3.975065774E-4,1.554582268E-4,7.435679436E-4,8.573634154E-4
5.343888958E0,2.217431553E-3,1.012438908E-3,3.701715730E-3,4.432238101E-3
5.353844958E0,1.500242390E-3,1.683555543E-3,-4.871748388E-6,2.255018898E-3
5.363801958E0,-3.432719037E-3,2.952655777E-4,2.186981030E-3,4.080885660E-3
5.373758958E0,-9.392010979E-4,3.422083333E-3,2.226929180E-3,4.189506727E-3
5.383714958E0,9.047446074E-4,-2.202566713E-3,7.865102962E-4,2.507680477E-3
5.393671958E0,-1.071853447E-3,1.565007493E-3,-1.072109677E-3,2.178884445E-3
5.403628958E0,3.428759053E-3,-1.609195024E-4,-2.988027409E-4,3.445514012E-3
5.413584958E0,-2.168939449E-3,1.791443676E-3,2.963569015E-3,4.086111854E-3
5.423541958E0,5.264044739E-4,1.725190319E-3,-2.576187253E-4,1.822018308E-3
5.433498958E0,-4.280724097E-4,-6.048092619E-4,1.732029952E-3,1.883870480E-3
5.443454958E0,-7.512376178E-4,9.640827775E-4,5.918340757E-4,1.357969489E-3
5.453411958E0,-7.107576821E-4,-5.605770275E-4,1.442447305E-3,1.702961336E-3
5.463367958E0,-1.403561793E-3,9.670583531E-4,2.438552678E-3,2.975185159E-3
5.473324958E0,-2.775773173E-4,-1.088902354E-3,-1.598931849E-4,1.135043318E-3
5.483281958E0,-1.809862442E-5,8.457340300E-4,2.244431525E-3,2.398555082E-3
5.493237958E0,-8.889522869E-4,-1.201704144E-3,2.824733034E-3,3.195848202E-3
5.503194958E0,2.551771700E-3,-1.150898635E-3,-2.006436698E-3,3.444110147E-3
5.513151958E0,3.980734618E-4,3.673695028E-4,-8.016228676E-4,9.674823277E-4
5.523107958E0,-1.183484797E-3,1.608300954E-3,-1.118885353E-3,2.288923908E-3
5.533064958E0,-2.287631389E-3,9.044278413E-4,2.244124189E-4,2.470143321E-3
5.543021958E0,-3.153972328E-3,1.365608536E-3,-1.242366619E-3,3.654572880E-3
5.552977958E0,9.781883564E-4,2.151075751E-5,-1.013867557E-3,1.408986372E-3
5.562934958E0,-3.345193109E-4,-6.198510528E-5,8.602719754E-4,9.251017210E-4
5.572890958E0,1.381918555E-4,6.528068334E-4,-8.465480059E-4,1.077913390E-3
5.582847958E0,4.197587259E-6,-9.933114052E-5,1.593945548E-3,1.597043113E-3
5.592804958E0,5.392266321E-4,-1.490832306E-3,1.116301864E-4,1.589278964E-3
5.602760958E0,2.289593453E-3,9.274911135E-4,1.094412059E-3,2.701891134E-3
5.612717958E0,-3.920984454E-6,1.460655592E-3,2.273924649E-3,2.702640087E-3
5.622674958E0,-2.517072018E-3,1.370890997E-3,2.043679357E-3,3.520173147E-3
5.632630958E0,1.586859231E-3,5.173478276E-4,-1.551322639E-3,2.278677889E-3
5.642587958E0,-3.453410463E-3,-8.805161342E-4,7.996000350E-4,3.652494039E-3
5.652543958E0,7.133714389E-4,-6.184605882E-4,6.656432524E-4,1.155194031E-3
5.662500958E0,-2.018294763E-4,-9.096218273E-4,1.083635725E-3,1.429130292E-3
5.672457958E0,-2.686558524E-3,-1.647351310E-4,3.646927886E-3,4.532639118E-3
5.682413958E0,-3.373646177E-4,2.294048667E-3,1.720996574E-3,2.887612055E-3
5.692370958E0,1.116443891E-4,1.944907941E-3,-4.052706063E-4,1.989817990E-3
5.702327958E0,-2.460036427E-3,-3.072423860E-4,1.970212907E-5,2.479226750E-3
5.712283958E0,1.954152947E-3,1.169746742E-3,9.504780173E-4,2.467879584E-3
5.722241292E0,2.808555262E-3,8.939485997E-4,1.627895981E-3,3.367071737E-3
5.732198292E0,-2.156908624E-3,8.002044633E-4,1.409249380E-3,2.697881727E-3
5.742154292E0,-2.070511458E-3,1.205601729E-3,2.637689002E-3,3.563410796E-3
5.752111292E0,1.240330283E-3,-1.093504950E-3,-1.306186430E-3,2.107200815E-3
5.762067292E0,4.111024318E-4,2.231518738E-3,-4.187617451E-4,2.307388673E-3
5.772024292E0,1.708860742E-3,5.971081555E-5,-7.726959884E-4,1.876387355E-3
5.781981292E0,1.734027173E-4,-2.225041389E-3,-4.507331178E-4,2.276848267E-3
5.791937292E0,1.184604946E-3,-1.813312992E-4,4.008784890E-5,1.199073373E-3
5.801894292E0,3.282751422E-3,-1.602600329E-3,7.954034954E-4,3.738642994E-3
5.811851292E0,-4.613867495E-4,-3.818068653E-4,1.098206267E-3,1.250884175E-3
5.821807292E0,-1.019871677E-3,-1.014365815E-3,2.347211353E-3,2.752903446E-3
5.831764292E0,-2.331739524E-4,1.465063542E-4,1.927764155E-3,1.947333778E-3
5.841721292E0,-2.193084219E-3,-3.443155438E-4,-2.125880681E-3,3.073685127E-3
5.851677292E0,9.510386735E-5,-9.038457647E-4,-1.754103228E-3,1.975565754E-3
5.861634292E0,3.649833379E-4,-1.647255383E-3,5.259132013E-4,1.767271295E-3
5.871591292E0,3.671830287E-3,-8.027674630E-4,-1.906352118E-3,4.214374408E-3
5.881547292E0,-2.157097682E-3,-1.003791578E-3,3.595324233E-3,4.311267132E-3
5.891504292E0,5.462772097E-4,1.464425586E-3,1.725252718E-3,2.327972944E-3
5.901460292E0,-5.927649327E-4,1.061666757E-3,9.847451001E-4,1.564681910E-3
5.911417292E0,1.403540489E-3,2.856217325E-4,-1.241657883E-3,1.895579061E-3
5.921374292E0,-7.881241618E-4,-2.331612632E-4,1.315377653E-3,1.551039083E-3
5.931330292E0,4.704857711E-4,1.384176314E-3,2.698199823E-4,1.486641770E-3
5.941287292E0,-9.596223244E-4,7.188580930E-4,-1.855809242E-4,1.213289843E-3
5.951244292E0,2.062799176E-3,-1.820999198E-3,-2.325430512E-3,3.602610940E-3
5.961200292E0,1.576370560E-3,-2.544041723E-3,4.991013557E-4,3.034171154E-3
5.971157292E0,6.911358214E-4,3.629457206E-5,2.183817327E-3,2.290861004E-3
5.981114292E0,-9.107065853E-5,1.033907756E-3,-1.990580931E-4,1.056826967E-3
5.991070292E0,-1.088158228E-3,-1.071320847E-3,3.266502172E-4,1.561575182E-3
6.001027292E0,7.530271541E-4,-1.037981361E-3,-1.366079785E-3,1.873667308E-3
6.010983292E0,-4.893374862E-4,-1.313884743E-3,-2.325883135E-3,2.715782880E-3
6.020940292E0,-2.064271597E-3,-1.563751139E-3,-1.692352816E-4,2.595221654E-3
6.030897292E0,-6.075224373E-4,1.318055205E-3,2.343990840E-3,2.756926929E-3
6.040853292E0,1.294848742E-3,-4.230039194E-4,6.109774113E-4,1.492936361E-3
6.050810292E0,-1.386688091E-3,1.854822040E-5,1.459894702E-4,1.394475107E-3
6.060767292E0,5.176104605E-4,1.812065020E-4,2.415403724E-3,2.476879394E-3
6.070723292E0,-1.274697017E-3,-1.881746575E-4,-8.309893310E-4,1.533233660E-3
6.080680292E0,-2.720052144E-3,-1.171050593E-3,2.005409449E-3,3.576550044E-3
6.090637292E0,4.155537463E-4,-1.626984216E-3,1.833902672E-3,2.486556166E-3
6.100593292E0,-1.459808555E-4,-2.047152258E-3,2.271099016E-3,3.061051048E-3
6.110550292E0,-1.712452271E-3,-6.484603509E-4,-1.141210087E-3,2.157626953E-3
6.120507292E0,5.540061393E-4,3.665788099E-4,1.732492819E-4,6.865261393E-4
6.130463292E0,-8.553387597E-4,-1.005481929E-3,1.939192414E-3,2.345861360E-3
6.140420292E0,3.280652454E-4,-9.461902082E-4,-4.029218107E-4,1.079466860E-3
6.150376292E0,-8.232786786E-5,2.389951609E-3,3.554002382E-3,4.283640917E-3
6.160333292E0,-8.580995491E-4,-4.668180831E-3,-9.710937738E-4,4.844715701E-3
6.170290292E0,-7.782048779E-4,2.038991079E-3,-4.214178771E-4,2.222764153E-3
6.180246292E0,-4.602745175E-3,-6.948439404E-4,1.625556499E-3,4.930568444E-3
6.190203292E0,1.876459341E-3,-1.022946090E-3,3.937818110E-5,2.137538070E-3
6.200160292E0,8.812265005E-4,1.863484271E-3,2.145573497E-3,2.975335175E-3
6.210116292E0,1.507214038E-4,-3.434773535E-4,1.147953793E-3,1.207680233E-3
6.220073292E0,-3.694781568E-3,-2.050958574E-4,3.242606297E-3,4.920159626E-3
6.230030292E0,-5.690369289E-5,2.725180238E-3,-2.027247101E-4,2.733302521E-3
6.239986292E0,1.635101507E-3,-2.363993786E-3,1.310100779E-4,2.877357677E-3
6.249943292E0,1.318451599E-3,-1.402543858E-4,-3.745779395E-6,1.325895902E-3
6.259899292E0,-8.162050508E-4,8.317288011E-4,7.627950981E-4,1.392774154E-3
6.269856292E0,-1.424252987E-4,-6.399331614E-4,9.601367638E-4,1.162610004E-3
6.279813292E0,9.357772069E-4,7.192799821E-4,7.992442697E-4,1.425424174E-3
6.289769292E0,-4.919434432E-4,-3.369292244E-4,2.029892057E-3,2.115653898E-3
6.299726292E0,-1.122118207E-3,-6.032865494E-4,-1.162989065E-4,1.279308159E-3
6.309683292E0,7.173270569E-4,-7.982300594E-4,3.584695049E-3,3.741893628E-3
6.319639292E0,-1.034384361E-3,-4.081241786E-5,9.418409318E-4,1.399528849E-3
6.329596292E0,-2.996183466E-4,-1.299688593E-3,1.123467460E-3,1.743886672E-3
6.339553292E0,-8.939802647E-4,2.050427720E-4,1.171957701E-3,1.488196259E-3
6.349509292E0,3.246822162E-4,1.550471410E-3,1.460110769E-3,2.154368490E-3
6.359466292E0,3.884265316E-4,1.105329022E-3,3.484571353E-4,1.222313295E-3
6.369423292E0,-3.005332546E-4,2.099220641E-3,-1.224405132E-3,2.448717106E-3
6.379379292E0,-1.751284581E-4,-6.204899400E-4,-1.236328855E-3,1.394340984E-3
6.389336292E0,-3.309234744E-4,-1.603196375E-3,-4.253964871E-4,1.691363691E-3
6.399292292E0,7.991816965E-4,1.851739362E-4,1.176996157E-4,8.287544692E-4
6.409249292E0,-1.152915414E-3,-1.124568284E-3,-2.531241626E-5,1.610747806E-3
6.419206292E0,1.548832050E-3,1.015285961E-3,-7.462501526E-5,1.853444144E-3
6.429162292E0,-6.450799992E-4,-5.866046995E-4,1.080920920E-3,1.388748830E-3
6.439119292E0,-1.703275368E-3,1.204891130E-3,1.925844699E-4,2.095232300E-3
6.449076292E0,-8.247559890E-5,3.564078361E-4,-8.833324537E-4,9.560883818E-4
6.459032292E0,-1.497863093E-3,1.182463020E-3,9.052474052E-4,2.112175538E-3
6.468989292E0,-1.922104741E-3,-6.895605475E-5,6.802100688E-4,2.040080221E-3
6.478946292E0,1.043789904E-3,1.186947338E-3,-5.067279562E-4,1.659853779E-3
6.488902292E0,-2.808663994E-4,-3.757951781E-4,1.501028426E-3,1.572639274E-3
6.498859292E0,-2.390723210E-3,-7.627718151E-4,8.073989302E-4,2.636147063E-3
6.508816292E0,-5.813717144E-4,2.468330786E-4,-1.289840788E-3,1.436178574E-3
6.518772292E0,-1.247449778E-3,1.480041072E-3,5.045626312E-4,2.000308969E-3
6.528729292E0,2.240492264E-3,-1.430261880E-3,9.203795344E-5,2.659685247E-3
6.538685292E0,-2.728446852E-4,-3.347601742E-4,2.095270902E-3,2.139315019E-3
6.548642292E0,1.803621999E-3,-3.134543076E-4,9.133610874E-4,2.045857863E-3
6.558599292E0,-1.785485190E-3,-1.255118288E-3,1.447471790E-3,2.618864996E-3
6.568555292E0,6.795366062E-4,4.778010771E-4,1.427894458E-4,8.428835591E-4
6.578512292E0,-3.517208388E-4,-1.801950857E-4,-9.142095223E-4,9.959703148E-4
6.588469292E0,-4.449314438E-4,-1.480882987E-3,-1.526736654E-3,2.172994069E-3
6.598425292E0,-3.241493832E-4,-1.742467284E-4,7.701152936E-4,8.535293260E-4
6.608382292E0,3.351317719E-5,-1.290377229E-3,4.558628425E-4,1.368943921E-3
6.618339292E0,-2.424146514E-3,2.274786122E-3,2.104602754E-3,3.934525509E-3
6.628295292E0,-2.243755152E-4,-5.508270115E-4,2.387929708E-4,6.409187556E-4
6.638252292E0,-2.447174629E-4,4.433188587E-4,3.232620656E-4,6.007633563E-4
6.648208292E0,9.536824655E-5,1.392469741E-3,-8.495934308E-4,1.633975545E-3
6.658165292E0,-1.016649883E-3,1.194232143E-3,-9.500980377E-5,1.571239721E-3
6.668122292E0,-1.069646794E-3,-1.100347377E-3,2.566820011E-3,2.990564091E-3
6.678078292E0,-1.415151637E-3,-6.539942697E-4,6.556194276E-4,1.691212433E-3
6.688035292E0,6.559886388E-4,1.248833723E-3,1.741200686E-4,1.421346038E-3
6.697992292E0,-9.457047563E-4,-4.516299814E-4,1.434691250E-3,1.776700906E-3
6.707948292E0,-1.174736535E-3,-3.264620900E-4,-4.737302661E-4,1.308053435E-3
6.717905292E0,-3.181218868E-3,-3.000944853E-4,1.424066722E-3,3.498310480E-3
6.727862167E0,-2.234731568E-3,-8.801314980E-4,7.068775594E-4,2.503663819E-3
6.737818167E0,1.165717375E-3,2.006241120E-3,-7.806764916E-4,2.448133210E-3
6.747775167E0,4.453322617E-4,1.067742705E-3,-1.415307634E-3,1.827974564E-3
6.757732167E0,-1.407363452E-4,-1.464958303E-3,4.438906908E-4,1.537188503E-3
6.767688167E0,-8.249024395E-4,3.198925406E-4,1.157894731E-4,8.923017843E-4
6.777645167E0,-2.581429202E-3,-1.594184898E-3,-3.948267549E-4,3.059589904E-3
6.787602167E0,-7.566111162E-5,-1.511893235E-3,-1.512821764E-3,2.140134446E-3
6.797558167E0,-9.470817167E-4,-1.643531024E-3,1.026829705E-4,1.899658337E-3
6.807515167E0,3.093976993E-4,-1.362035051E-3,-3.407327458E-4,1.437694411E-3
6.817472167E0,-3.473945195E-3,-7.240530103E-4,2.062097192E-4,3.554584424E-3
6.827428167E0,-1.415588195E-3,1.386502758E-3,-8.252318949E-4,2.146459297E-3
6.837385167E0,-1.792530529E-4,2.330694348E-3,1.876763999E-4,2.345099194E-3
6.847341167E0,1.583226956E-3,4.856567830E-4,1.345351338E-3,2.133644846E-3
6.857298167E0,2.828170545E-4,8.930973709E-4,1.170222647E-3,1.499009488E-3
6.867255167E0,7.728387136E-4,1.014537178E-3,2.927109599E-4,1.308527825E-3
6.877211167E0,-6.945838686E-4,6.506731734E-4,1.063072123E-3,1.426865329E-3
6.887168167E0,-4.104245454E-4,1.657474786E-5,1.073724590E-3,1.149611902E-3
6.897125167E0,-3.373716027E-7,-8.766800165E-4,3.415616229E-4,9.408678480E-4
6.907081167E0,-1.302889548E-3,-1.942210831E-3,4.680622369E-4,2.385117679E-3
6.917038167E0,9.581507184E-4,9.611900896E-4,-1.065223478E-3,1.725294249E-3
6.926995167E0,1.749150688E-4,-1.810397953E-4,-8.031679317E-4,8.416943717E-4
6.936951167E0,3.396265674E-4,1.210058108E-3,-4.791924730E-4,1.345069610E-3
6.946908167E0,2.826486249E-3,-1.550574787E-3,2.218056470E-3,3.913193221E-3
6.956864167E0,-9.243548848E-4,-1.260794699E-3,1.492172480E-3,2.161160322E-3
6.966821167E0,1.248518238E-3,9.187357500E-4,-1.312402077E-3,2.031076655E-3
6.976778167E0,-1.244209474E-3,2.145134844E-3,-1.160294749E-3,2.737872279E-3
6.986734167E0,-1.195207238E-3,-1.677034423E-3,1.407258213E-3,2.494261509E-3
6.996691167E0,-2.105532214E-3,-1.485794783E-4,2.445686609E-3,3.230592013E-3
7.006648167E0,1.252181246E-3,8.551310748E-5,2.279238775E-3,2.601960753E-3
7.016604167E0,1.856007730E-3,-7.721474394E-4,2.253102139E-3,3.019510823E-3
7.026561167E0,-2.285207622E-3,1.619371586E-3,2.032667398E-4,2.808176557E-3
7.036518167E0,2.701178892E-4,-6.356546655E-4,1.902170479E-4,7.163819185E-4
7.046474167E0,-1.435903250E-3,-1.215691678E-3,-2.216215245E-3,2.907117888E-3
7.056431167E0,-1.465452835E-3,1.185077243E-3,2.829665318E-4,1.905788588E-3
7.066388167E0,1.494916971E-3,1.070560887E-3,9.178640321E-4,2.055079498E-3
7.076344167E0,-9.788080351E-4,-3.140121698E-4,1.934213564E-3,2.190399718E-3
7.086301167E0,6.031095982E-4,1.622105949E-3,1.855650917E-3,2.537402061E-3
7.096258167E0,1.520931022E-3,6.755152717E-4,-3.747800365E-4,1.705875767E-3
7.106214167E0,-1.333711436E-3,1.349028200E-3,2.399701625E-3,3.058959164E-3
7.116171167E0,-2.419549273E-4,-4.658112302E-4,-6.549581885E-4,8.393405255E-4
7.126128167E0,2.016938291E-3,-9.296927601E-5,-2.728229389E-3,3.394100611E-3
7.136084167E0,-1.181619940E-3,1.017733477E-3,-2.456428483E-3,2.909647402E-3
7.146041167E0,-1.919049071E-3,-1.662205905E-3,1.881327480E-3,3.159916280E-3
7.155997167E0,4.339831648E-4,-1.329537481E-4,1.232111827E-4,4.703180648E-4
7.165954167E0,-9.679048089E-4,4.973914474E-5,-5.175825208E-5,9.705630419E-4
7.175911167E0,1.834201743E-3,-3.301072866E-5,1.174966805E-3,2.178516177E-3
7.185867167E0,1.478880877E-4,4.146667197E-4,-1.022852957E-4,4.519752832E-4
7.195824167E0,1.241683494E-3,-1.546327956E-3,-2.148556523E-3,2.923902047E-3
7.205781167E0,-1.643052557E-3,1.120029017E-3,-1.026034355E-3,2.237595407E-3
7.215737167E0,-3.051742446E-3,1.041868702E-3,2.365624532E-4,3.233354936E-3
7.225694167E0,3.243469400E-4,-2.073310316E-5,8.110068738E-4,8.737064430E-4
7.235651167E0,-7.058389019E-4,-5.366439000E-4,1.682434231E-3,1.901783419E-3
7.245607167E0,-2.112899674E-4,-3.749895841E-4,1.936767250E-3,1.984018150E-3
7.255564167E0,1.734681660E-3,2.492124215E-3,2.118330449E-4,3.043793160E-3
7.265521167E0,2.623112174E-3,-1.228312030E-3,-1.799652353E-3,3.410017084E-3
7.275477167E0,-2.077102894E-3,1.198965125E-3,1.145081595E-3,2.657646640E-3
7.285434167E0,2.622577362E-3,-1.473783515E-3,1.000471413E-3,3.170314325E-3
7.295391167E0,-2.967098262E-4,-1.090076752E-3,-5.485778674E-4,1.255882846E-3
7.305347167E0,-2.485066652E-4,-2.503949217E-3,-1.404784620E-3,2.881828773E-3
7.315304167E0,-1.496411976E-3,-5.248086527E-4,-6.055552512E-4,1.697459893E-3
7.325260167E0,-3.001200967E-4,-2.451762557E-4,1.544147730E-3,1.592035075E-3
7.335217167E0,3.396263346E-4,1.414668746E-3,-1.193255186E-3,1.881619422E-3
7.345174167E0,2.548984718E-3,2.416283824E-3,1.278690994E-3,3.737753505E-3
7.355130167E0,-8.014043560E-4,1.448181458E-3,1.051548868E-3,1.960926694E-3
7.365087167E0,-7.289663190E-4,9.262021631E-4,7.213167846E-4,1.381861153E-3
7.375044167E0,-1.784421387E-3,7.530227304E-4,1.198165119E-4,1.940504810E-3
7.385000167E0,-1.436478924E-4,-2.237706445E-3,1.626936719E-4,2.248206859E-3
7.394957167E0,2.738592448E-3,-1.640926115E-3,3.266641870E-4,3.209242372E-3
7.404914167E0,-3.794365330E-4,1.633697189E-3,7.037669420E-4,1.818853072E-3
7.414870167E0,-2.492743544E-3,1.175326295E-3,1.582577825E-3,3.178004853E-3
7.424827167E0,-4.077120684E-5,-1.566397958E-3,-1.775667071E-3,2.368176176E-3
7.434784167E0,-4.924413515E-4,-8.169002831E-4,-2.344817854E-3,2.531401850E-3
7.444740167E0,-6.072237156E-4,6.502354518E-4,2.162848599E-3,2.338683571E-3
7.454697167E0,-8.972885553E-5,5.837008357E-4,-4.645772278E-4,7.513919974E-4
7.464654167E0,-3.344733268E-4,6.817048416E-4,-1.447017305E-3,1.634152067E-3
7.474610167E0,2.931988565E-4,1.972839236E-4,-2.493532375E-4,4.325084427E-4
7.484567167E0,7.770952070E-4,1.213013195E-3,2.550492063E-4,1.462986011E-3
7.494524167E0,5.117363762E-4,6.130943075E-4,-1.215925440E-4,8.078016436E-4
7.504480167E0,-2.079785801E-3,6.842007861E-4,-1.883273944E-3,2.887968221E-3
7.514437167E0,5.656533758E-4,-5.670133978E-4,-1.872914843E-3,2.036977650E-3
7.524394167E0,-3.813666990E-4,2.563798800E-3,-9.632017463E-5,2.593796912E-3
7.534350167E0,-2.777156187E-4,1.307980157E-3,-9.582061321E-4,1.645021899E-3
7.544307167E0,7.302908343E-4,-6.411876529E-4,2.410693094E-3,2.599209015E-3
7.554263167E0,-6.503316108E-4,-2.835856751E-3,7.891524583E-4,3.014593889E-3
7.564220167E0,-1.811203547E-3,-5.766972899E-4,-4.452215508E-4,1.952244934E-3
7.574177167E0,-1.814469695E-3,1.516053453E-3,2.293748781E-3,3.294237669E-3
7.584133167E0,1.169336028E-3,-6.727986038E-4,-2.422709018E-3,2.772999043E-3
7.594090167E0,4.339413135E-4,-2.577287145E-3,-2.824654803E-4,2.628783148E-3
7.604047167E0,-1.034846064E-4,1.339957118E-3,-7.740221918E-5,1.346174300E-3
7.614003167E0,2.767512342E-3,1.239441335E-4,1.711348072E-3,3.256255354E-3
7.623960167E0,-1.280226046E-3,-5.555246025E-5,-8.428897709E-4,1.533795283E-3
7.633917167E0,1.651301864E-3,3.556953743E-4,3.698058426E-4,1.729182872E-3
7.643873167E0,2.565298695E-3,1.270224340E-3,9.354613721E-4,3.011530383E-3
7.653830167E0,1.299844822E-3,-2.867113799E-4,-9.945100173E-4,1.661580618E-3
7.663787167E0,-9.955337737E-4,1.367644407E-3,4.830118269E-4,1.759215491E-3
7.673743167E0,-5.490443436E-4,1.655304804E-4,4.462413490E-4,7.266232674E-4
7.683700167E0,-1.714081736E-4,1.450236887E-4,-9.697610512E-4,9.954140489E-4
7.693657167E0,-4.825610667E-4,6.519071758E-4,3.878250718E-4,8.990308311E-4
7.703613167E0,3.543339670E-3,-4.367930815E-4,-1.889975742E-3,4.039560931E-3
7.713570167E0,-2.996847034E-4,-2.510420047E-3,-3.716517240E-3,4.494943840E-3
7.723526542E0,-2.982553095E-3,-1.427578740E-3,-2.898275852E-4,3.319277640E-3
7.733482542E0,-1.065670978E-3,-1.982122660E-3,9.713415056E-4,2.451115908E-3
7.743439542E0,-1.177523751E-3,-2.556299791E-3,-4.385365173E-4,2.848428528E-3
7.753396542E0,-7.016474847E-4,-2.367636189E-4,2.114811912E-3,2.240713196E-3
7.763352542E0,6.317973603E-4,6.559276953E-4,-2.956576645E-5,9.111987601E-4
7.773309542E0,-2.229935955E-3,-1.478126273E-3,-2.089796588E-3,3.394808009E-3
7.783265542E0,-1.205684035E-3,-1.641111448E-3,-1.531457528E-4,2.042149456E-3
7.793222542E0,-3.089586971E-4,7.881782949E-5,4.846137017E-5,3.225154743E-4
7.803179542E0,-1.421627356E-3,-2.132404596E-3,8.876230568E-4,2.712203604E-3
7.813135542E0,1.334014582E-3,1.503666863E-4,1.219229773E-3,1.813484569E-3
7.823092542E0,1.508717891E-3,2.361322753E-3,2.259194851E-3,3.599449429E-3
7.833049542E0,-1.134852646E-3,1.360374503E-3,6.389198825E-4,1.883275851E-3
7.843005542E0,-1.293577021E-3,1.225378364E-4,-2.375254408E-4,1.320899453E-3
7.852962542E0,5.307829706E-4,-5.545653403E-5,1.135792583E-3,1.254922620E-3
7.862919542E0,7.025568630E-4,-2.639521845E-3,1.472949982E-3,3.103263341E-3
7.872875542E0,-2.347518457E-3,2.133707516E-3,2.999914810E-3,4.366124086E-3
7.882832542E0,-8.111407515E-4,-1.208026893E-3,5.426164716E-4,1.552968425E-3
7.892789542E0,-8.497622330E-4,-6.117429584E-4,8.998485282E-4,1.380598665E-3
7.902745542E0,9.377514943E-4,1.440756023E-3,9.046429768E-4,1.942558802E-3
7.912702542E0,-3.393948078E-3,-2.103541978E-3,1.275563613E-3,4.191757977E-3
7.922659542E0,-7.496954640E-4,-3.035115078E-4,9.285546839E-4,1.231412329E-3
7.932615542E0,-4.264898598E-5,1.801606268E-3,-5.921665579E-4,1.896909411E-3
7.942572542E0,-2.291422337E-3,-6.876504049E-4,-1.508028246E-3,2.828007885E-3
7.952529542E0,1.518589910E-3,-2.706315368E-3,-2.181727439E-3,3.793440761E-3
7.962485542E0,1.234164229E-3,-5.568778142E-4,7.914248854E-4,1.568319990E-3
7.972442542E0,2.155600814E-4,1.227030531E-3,-6.647128612E-4,1.412059935E-3
7.982399542E0,1.507725799E-3,-8.910335600E-5,-1.677675173E-4,1.519645496E-3
7.992355542E0,-1.169116469E-3,5.142297596E-4,3.348669037E-3,3.583971245E-3
8.002312542E0,-1.382067567E-4,-1.049312763E-3,-1.048210077E-3,1.489598183E-3
8.012269542E0,-3.561945632E-4,-6.481958553E-4,-1.153894700E-3,1.370585792E-3
8.022225542E0,-2.644382650E-3,1.321744174E-3,2.378787845E-3,3.794522219E-3
8.032182542E0,-9.040107252E-4,-1.745042391E-3,-1.311209053E-3,2.362557411E-3
8.042138542E0,-2.151967958E-3,1.845697872E-3,-2.994742244E-4,2.850833481E-3
8.052095542E0,1.995201455E-3,-3.871758468E-3,5.198419094E-4,4.386522324E-3
8.062052542E0,9.832002688E-4,-1.366256736E-3,7.667168975E-4,1.849647274E-3
8.072008542E0,2.271813573E-4,-8.527636528E-4,-4.850570112E-4,1.007024091E-3
8.081965542E0,2.506171586E-4,-1.030396670E-3,-2.302664332E-3,2.535111296E-3
8.091922542E0,-1.529070316E-3,8.958540857E-4,9.113308042E-4,1.992770536E-3
8.101878542E0,1.079747453E-4,4.907874390E-4,6.106607616E-4,7.908460164E-4
8.111835542E0,2.120726975E-3,-4.589548334E-4,-1.607628539E-3,2.700479950E-3
8.121792542E0,-1.398374094E-3,-2.707195468E-3,6.315568462E-4,3.111787502E-3
8.131748542E0,-6.766956067E-4,2.212555148E-3,1.933813095E-3,3.015451925E-3
8.141705542E0,6.506238715E-4,-7.153237239E-4,-1.905400306E-3,2.136714716E-3
8.151662542E0,-9.915542323E-4,-7.538124919E-5,6.952472031E-4,1.213355184E-3
8.161618542E0,2.362430561E-3,4.415381700E-4,7.552932948E-5,2.404524650E-3
8.171575542E0,-8.257008158E-4,2.560317516E-4,-3.234495409E-3,3.348028471E-3
8.181532542E0,1.258465927E-4,7.108990103E-4,1.594368368E-4,7.393475994E-4
8.191488542E0,6.005623145E-4,8.282773197E-4,-1.169303432E-4,1.029752940E-3
8.201445542E0,-7.390076062E-4,2.277344465E-4,1.645283774E-3,1.817953222E-3
8.211402542E0,2.311385470E-4,3.576138988E-4,2.327967435E-3,2.366589341E-3
8.221358542E0,1.521972707E-3,-1.625109464E-3,3.945138305E-4,2.261199428E-3
8.231315542E0,1.210748451E-4,-1.533422619E-3,5.278252065E-4,1.626235990E-3
8.241272542E0,-6.472470704E-4,-3.120973706E-4,-3.701932728E-4,8.083171396E-4
8.251228542E0,-6.793496432E-4,2.717878670E-5,1.862896606E-3,1.983088094E-3
8.261185542E0,-8.391392184E-4,-1.066847704E-3,2.751210704E-4,1.384922473E-3
8.271142542E0,1.276781783E-3,1.149820164E-4,1.989468932E-3,2.366723308E-3
8.281098542E0,-2.827653661E-4,-2.797184512E-3,-1.706998795E-3,3.289079253E-3
8.291055542E0,-8.579549612E-4,-7.868539542E-4,-3.130764700E-3,3.340196622E-3
8.301012542E0,-7.490316639E-4,-1.773288473E-3,-5.911737680E-4,2.013724626E-3
8.310968542E0,-2.010020195E-3,-1.679168083E-3,1.202914864E-3,2.882150378E-3
8.320925542E0,1.182311098E-3,3.417022526E-6,4.127547145E-4,1.252292962E-3
8.330882542E0,-2.037573839E-3,-7.887370884E-6,1.696193591E-3,2.651196344E-3
8.340838542E0,-9.057305288E-4,1.305317506E-3,8.775386959E-4,1.815013979E-3
8.350795542E0,-4.454106092E-4,3.456249833E-4,9.144376963E-5,5.711472690E-4
8.360752542E0,-7.612614427E-4,-9.231055155E-4,-3.844629973E-4,1.256763531E-3
8.370708542E0,-1.665352611E-3,-1.219749451E-3,-1.794081181E-4,2.072046166E-3
8.380665542E0,1.120047527E-3,-2.735275775E-4,-1.513386145E-3,1.902540781E-3
8.390622542E0,-9.218708146E-4,-1.325564459E-3,9.491881356E-4,1.872945555E-3
8.400578542E0,1.321575954E-3,-1.332676038E-4,2.294351347E-3,2.651107572E-3
8.410535542E0,3.536297008E-4,2.305144444E-4,2.093631774E-4,4.711940306E-4
8.420492542E0,-1.029083505E-3,4.827156663E-4,1.847207546E-3,2.168917471E-3
8.430448542E0,8.298401372E-4,-2.316180617E-4,1.036748290E-4,8.677730405E-4
8.440405542E0,-1.367800287E-3,-1.210970804E-4,2.207305282E-3,2.599565105E-3
8.450361542E0,-6.422988372E-4,-1.302903518E-3,-1.757960767E-3,2.280467371E-3
8.460318542E0,1.220284030E-4,3.719581291E-4,-1.997444779E-4,4.394788247E-4
8.470275542E0,2.139771823E-5,9.510805830E-4,-1.312716864E-3,1.621184044E-3
8.480231542E0,-1.492609270E-3,1.198754646E-3,7.357858121E-4,2.050920743E-3
8.490188542E0,2.029197058E-4,-4.056720063E-4,-3.539370373E-4,5.753412988E-4
8.500145542E0,-2.208838705E-3,-1.179054379E-5,-2.513760701E-3,3.346356273E-3
8.510101542E0,1.648056787E-5,-3.411956131E-4,6.788372993E-4,7.599382439E-4
8.520058542E0,-2.430697903E-3,-1.425240189E-4,9.230487049E-4,2.603963192E-3
8.530015542E0,5.688679521E-4,-6.640087813E-4,2.076622099E-3,2.253192790E-3
8.539971542E0,1.345445751E-3,-1.048302278E-3,3.600481898E-3,3.984047167E-3
8.549928542E0,-1.098295790E-3,-2.721305937E-3,1.446058974E-3,3.271520472E-3
8.559885542E0,1.704681199E-3,4.119053483E-5,-2.733506262E-3,3.221752805E-3
8.569841542E0,1.390911173E-3,-8.260849863E-4,3.669671714E-4,1.658829467E-3
8.579798542E0,-1.281559234E-4,9.241448715E-4,-2.308976837E-3,2.490349718E-3
8.589755542E0,1.607717481E-3,9.410362691E-4,1.643700525E-3,2.484362327E-3
8.599711542E0,-1.065297285E-3,-1.126641408E-3,7.925555110E-4,1.741356771E-3
8.609668542E0,4.580907989E-4,-3.120522946E-3,2.183953300E-3,3.836295434E-3
8.619625542E0,-2.329706214E-3,1.498386264E-4,-4.373956472E-4,2.375141598E-3
8.629581542E0,-6.457687123E-4,2.144761384E-4,-7.088677958E-4,9.826040889E-4
8.639538542E0,7.212319761E-4,4.597529769E-4,1.021122560E-3,1.332005873E-3
8.649495542E0,-1.267576357E-3,2.906098962E-5,-2.747037448E-3,3.025526252E-3
8.659451542E0,-1.725107431E-3,4.671514034E-4,1.810163260E-3,2.543799739E-3
8.669408542E0,-1.217350480E-3,-2.393266186E-4,3.191241995E-3,3.423922442E-3
8.679365542E0,-2.342269756E-3,1.314096153E-5,1.220768318E-3,2.641339732E-3
8.689321542E0,2.306099283E-3,1.344264485E-3,1.283846796E-4,2.672381622E-3
8.699278542E0,1.515673008E-3,8.603679016E-4,-1.197070815E-3,2.114350049E-3
8.709235542E0,-2.854658756E-3,-2.365391701E-4,3.152955323E-4,2.881742297E-3
8.719191542E0,-1.400987385E-4,1.060952432E-3,-2.344404347E-3,2.577106801E-3
8.729149167E0,-1.755486010E-3,-1.139647327E-3,-8.524181321E-4,2.259899076E-3
8.739106167E0,7.052748697E-4,4.670377821E-4,2.607828006E-3,2.741587832E-3
8.749062167E0,-1.363968709E-3,-4.786364734E-4,1.470824704E-3,2.062238789E-3
8.759019167E0,-7.967152633E-4,-9.422926232E-4,1.395722851E-3,1.862984937E-3
8.768976167E0,-9.835577803E-4,9.035291150E-4,1.480421051E-4,1.343751180E-3
8.778932167E0,-1.949752797E-3,-1.952908933E-4,-2.722041681E-4,1.978324951E-3
8.788889167E0,1.061531017E-3,3.225170076E-5,-1.736780629E-3,2.035754215E-3
8.798846167E0,-1.904210076E-4,6.130868569E-4,1.178048551E-3,1.341616206E-3
8.808802167E0,-2.493679058E-4,1.671572216E-3,-3.652041778E-4,1.729078401E-3
8.818759167E0,9.099061135E-4,-1.790579408E-4,-5.265921354E-4,1.066438071E-3
8.828716167E0,2.475823043E-3,-8.600717410E-4,-1.519614831E-3,3.029629082E-3
8.838672167E0,2.784488024E-4,6.619244814E-4,5.837492645E-4,9.254409535E-4
8.848629167E0,1.752440236E-3,8.826199919E-4,-1.762229949E-4,1.970055678E-3
8.858586167E0,-1.936079934E-5,5.782200024E-4,-3.613121808E-4,6.820994822E-4
8.868542167E0,2.963107545E-5,-2.394848503E-3,-4.579285160E-4,2.438416675E-3
8.878499167E0,1.152952434E-3,1.147954725E-3,2.110157162E-3,2.664556739E-3
8.888456167E0,6.552033592E-4,1.013935544E-3,-7.604705170E-4,1.426769826E-3
8.898412167E0,1.847234205E-3,-2.468680032E-3,-2.148509957E-3,3.758024793E-3
8.908369167E0,-2.410194138E-4,-8.796593174E-4,2.089463174E-3,2.279856844E-3
8.918326167E0,8.500777185E-4,8.045230061E-4,-1.656538807E-3,2.028302298E-3
8.928282167E0,-1.283403602E-3,-1.541069709E-3,7.756575942E-4,2.150270996E-3
8.938239167E0,9.185273666E-5,1.829160377E-3,1.544512808E-3,2.395784720E-3
8.948196167E0,-2.794926986E-4,-6.831381470E-4,2.822143957E-3,2.917068805E-3
8.958152167E0,-6.944132037E-4,2.441016026E-3,6.087906659E-4,2.609864941E-3
8.968109167E0,6.375782541E-4,-3.652889282E-4,5.566664040E-4,9.218565596E-4
8.978066167E0,1.087652519E-3,1.469628885E-3,-1.183176413E-3,2.177774894E-3
8.988022167E0,-9.253202006E-5,5.693743005E-4,-9.499313310E-4,1.111358989E-3
8.997979167E0,2.227862133E-4,-1.454894431E-3,-2.694834955E-3,3.070584136E-3
9.007936167E0,-2.387126442E-3,8.552148938E-5,-3.272667527E-5,2.388882084E-3
9.017892167E0,-6.358317332E-4,3.774035722E-4,1.475421712E-3,1.650328657E-3
9.027849167E0,1.550138812E-3,-9.121270850E-4,1.299839467E-3,2.219118923E-3
9.037806167E0,-1.804112690E-3,3.052037209E-4,-6.935363635E-4,1.956774028E-3
9.047762167E0,-1.513912110E-3,2.090012655E-3,-2.540973946E-4,2.593192677E-3
9.057719167E0,-7.152301259E-4,2.221039496E-3,-5.971118808E-4,2.408550015E-3
9.067676167E0,4.706605105E-4,-1.286792569E-3,2.021571621E-3,2.442152381E-3
9.077632167E0,-1.010057051E-3,-5.395095795E-4,-1.408846118E-3,1.815525603E-3
9.087589167E0,-1.149661257E-3,-1.193738542E-3,2.125967294E-3,2.695639006E-3
9.097546167E0,2.072191564E-4,7.977727801E-4,-9.105689824E-4,1.228217024E-3
9.107502167E0,-1.777648227E-3,-1.084573567E-3,1.632656902E-3,2.646110656E-3
9.117459167E0,1.465016627E-3,-9.191911668E-4,-1.215664670E-4,1.733771762E-3
9.127416167E0,-9.387711762E-4,-5.949605256E-4,-1.377619803E-3,1.770058098E-3
9.137372167E0,1.583774923E-3,-1.270435750E-4,-2.399180084E-4,1.606873899E-3
9.147329167E0,-1.248956542E-3,-1.144458540E-3,9.828824550E-4,1.958503437E-3
9.157286167E0,-1.068660640E-3,7.700873539E-4,1.243606210E-3,1.811526015E-3
9.167242167E0,7.607703446E-4,-8.809706196E-4,-2.242086455E-3,2.526228894E-3
9.177199167E0,-1.121019246E-3,9.973570704E-4,1.557977870E-3,2.163030356E-3
9.187156167E0,-9.904487524E-4,1.004291698E-3,1.898054034E-3,2.364783216E-3
9.197112167E0,3.262181999E-4,-5.032029003E-5,-1.882668585E-4,3.799932309E-4
9.207069167E0,7.775904378E-4,-1.476580277E-3,1.679022796E-3,2.367288270E-3
9.217026167E0,-8.378829807E-4,-1.125084236E-4,2.624867484E-4,8.852148484E-4
9.226982167E0,-1.318271039E-3,-6.684102118E-4,-4.895692691E-4,1.557012785E-3
9.236939167E0,1.517938217E-4,-5.629491061E-4,-4.791831598E-4,7.546983245E-4
9.246896167E0,-5.230440293E-4,1.654353924E-3,-5.181226879E-4,1.810776928E-3
9.256852167E0,-1.887647668E-3,4.101246595E-4,-1.644106582E-3,2.536632099E-3
9.266809167E0,-8.445989806E-5,-1.759580337E-3,-1.688309945E-3,2.440009612E-3
9.276766167E0,-1.009908388E-3,2.532368526E-4,-2.842918038E-4,1.079289436E-3
9.286722167E0,-3.535554279E-4,1.770436764E-3,-1.064892858E-4,1.808531930E-3
9.296679167E0,-8.126844186E-4,8.958540857E-4,7.635653019E-4,1.430399412E-3
9.306636167E0,-5.320841447E-4,1.268703490E-3,1.413905993E-3,1.972777798E-3
9.316592167E0,-1.640225295E-3,3.618970513E-4,8.519794792E-4,1.883395213E-3
9.326549167E0,2.042159904E-3,-1.572097652E-3,-2.653878182E-4,2.590818171E-3
9.336506167E0,2.396893222E-3,-6.823353469E-4,1.131173223E-3,2.736828731E-3
9.346462167E0,-2.216049470E-4,9.239083156E-4,1.348868012E-3,1.649897040E-3
9.356419167E0,3.519071266E-3,-3.988845274E-4,2.416262403E-3,4.287341302E-3
9.366376167E0,-1.462585758E-3,1.760058105E-3,9.350851178E-5,2.290350514E-3
9.376332167E0,3.783928696E-5,2.539832145E-3,-1.431151293E-3,2.915539943E-3
9.386289167E0,1.486070687E-4,-7.592542097E-4,6.427839398E-4,1.005844028E-3
9.396246167E0,-8.910909528E-4,8.916398510E-4,-1.181482337E-3,1.727705190E-3
9.406202167E0,1.705113682E-3,5.167247728E-4,-5.158670247E-4,1.854868175E-3
9.416159167E0,7.823283668E-4,-1.533264294E-4,1.276174560E-3,1.504715314E-3
9.426116167E0,1.783141633E-4,5.645677447E-6,-1.891341060E-3,1.899736514E-3
9.436072167E0,-1.023830846E-4,-1.192777418E-3,-6.878590211E-4,1.380706448E-3
9.446029167E0,7.793476107E-4,1.345417462E-3,-1.309909858E-3,2.033075179E-3
9.455986167E0,-2.056386322E-3,2.766903490E-4,1.427553594E-3,2.518569339E-3
9.465942167E0,-3.704139963E-3,-9.086839855E-4,-7.398007438E-4,3.885056575E-3
9.475899167E0,-8.391115116E-4,1.494818367E-3,-1.290276647E-3,2.145554451E-3
9.485856167E0,1.210711198E-3,4.116352648E-5,6.501423195E-4,1.374845837E-3
9.495812167E0,-1.682813396E-3,4.765903577E-4,-3.911545500E-4,1.792205673E-3
9.505769167E0,3.407767508E-4,-3.557531163E-4,-1.833122224E-5,4.929757675E-4
9.515726167E0,4.198726965E-4,-1.184795052E-3,8.117752150E-4,1.496332649E-3
9.525682167E0,2.108375775E-4,-1.250358298E-3,3.337169066E-3,3.569950383E-3
9.535639167E0,1.426037983E-3,8.042342961E-5,-2.921866253E-4,1.457883837E-3
9.545596167E0,-1.308585517E-3,1.196408644E-3,-2.361825667E-3,2.953304959E-3
9.555552167E0,6.400493439E-4,1.328501850E-3,8.763112128E-4,1.715372167E-3
9.565509167E0,5.978058325E-4,-6.269030273E-4,-1.328680664E-4,8.763750008E-4
9.575466167E0,5.458741216E-4,1.813617535E-3,1.159563661E-3,2.220760006E-3
9.585422167E0,1.769322902E-3,1.429372467E-3,3.903862089E-3,4.518157632E-3
9.595379167E0,-8.019589586E-4,-1.853015274E-4,-3.089923412E-4,8.791763727E-4
9.605336167E0,-2.416317584E-4,-1.500208862E-3,-2.756575122E-4,1.544344392E-3
9.615292167E0,-3.378569148E-3,-1.632834785E-3,-3.496939316E-4,3.768708634E-3
9.625249167E0,-2.855002880E-3,1.710789278E-3,-1.277072355E-3,3.564934109E-3
9.635206167E0,-2.955670003E-3,-1.077806577E-3,-1.454439014E-3,3.465983992E-3
9.645162167E0,5.952734500E-5,7.434086874E-4,7.833093405E-4,1.081560680E-3
9.655119167E0,-7.937494665E-4,2.808170393E-4,-2.027656883E-3,2.195515625E-3
9.665076167E0,8.697165758E-4,4.422813654E-4,3.206487745E-3,3.351653829E-3
9.675032167E0,-8.549465565E-4,-4.983469844E-4,-6.447099149E-4,1.181073328E-3
9.684989167E0,-1.644936041E-3,-1.622438431E-4,-8.181314915E-4,1.844309296E-3
9.694946167E0,2.845241688E-4,-7.209749892E-4,5.233027041E-4,9.352030036E-4
9.704902167E0,9.122944903E-5,-2.002437599E-3,-3.786385059E-4,2.039962320E-3
9.714859167E0,-1.154597383E-3,-7.893675938E-4,1.902093180E-3,2.360964798E-3
9.724815958E0,-2.148756292E-3,9.687999263E-4,2.744333819E-3,3.617609018E-3
9.734771958E0,-1.881907461E-3,-7.393518463E-4,2.186400816E-3,2.978013662E-3
9.744728958E0,4.638241371E-4,-1.433682628E-3,-9.338874370E-4,1.772773097E-3
9.754685958E0,8.566403994E-4,2.538422123E-3,4.376415163E-4,2.714580952E-3
9.764641958E0,4.793870030E-4,-6.398456171E-4,-1.826337539E-3,1.993670765E-3
9.774598958E0,-2.215732122E-3,-3.362456337E-4,-1.782394946E-3,2.863470221E-3
9.784555958E0,6.036437117E-5,-1.333244145E-4,1.092938706E-3,1.102694097E-3
9.794511958E0,1.940289862E-3,1.462175511E-3,2.160333097E-3,3.251110743E-3
9.804468958E0,1.019780291E-3,-1.605097204E-3,1.466392539E-3,2.401373765E-3
9.814425958E0,1.087128185E-4,5.933418870E-4,2.001688816E-3,2.090605459E-3
9.824381958E0,2.062540501E-3,1.443772577E-3,6.658304483E-5,2.518528514E-3
9.834338958E0,-9.515276179E-5,-7.123220712E-4,-2.682863735E-3,2.777447497E-3
9.844295958E0,2.790071303E-4,-1.183990389E-4,1.564050093E-3,1.593146574E-3
9.854252958E0,1.833227929E-3,8.416706696E-4,1.088408753E-3,2.292109895E-3
9.864208958E0,1.880089636E-3,5.193706602E-4,-9.397882968E-5,1.952771093E-3
9.874165958E0,5.873912014E-4,-9.453678504E-4,7.867291570E-4,1.362971593E-3
9.884122958E0,2.827935386E-4,-8.666412905E-4,-2.916263416E-3,3.055426587E-3
9.894078958E0,-1.705522416E-3,-1.824749634E-4,-1.747401431E-3,2.448574195E-3
9.904035958E0,-2.816473134E-3,1.260446385E-3,1.861956902E-3,3.603904758E-3
9.913992958E0,3.811841598E-4,-1.965973526E-3,-9.567327797E-4,2.219389754E-3
9.923948958E0,1.722152345E-3,-8.431077003E-5,1.345882192E-4,1.729459740E-3
9.933905958E0,-1.895752037E-3,-4.635453224E-4,2.890160307E-3,3.487373891E-3
9.943862958E0,-1.797243836E-3,-7.128575817E-4,2.313872799E-3,3.015337240E-3
9.953818958E0,-9.242595406E-4,-1.460673288E-3,1.537827775E-3,2.313598154E-3
9.963775958E0,1.142032561E-3,5.816109478E-6,-1.486856490E-3,1.874837172E-3
9.973732958E0,9.436270921E-4,1.417558640E-3,-8.150655776E-5,1.704860084E-3
9.983688958E0,-6.368403556E-4,1.138404012E-3,1.092707738E-3,1.701628495E-3
9.993645958E0,1.415125094E-3,7.943231612E-4,5.744565278E-4,1.721490232E-3
1.000360296E1,6.374579389E-4,-5.886480212E-4,9.004874155E-4,1.250494583E-3
1.001355896E1,-1.092531485E-3,6.041815504E-4,1.966283657E-3,2.329148302E-3
1.002351596E1,-1.390516874E-3,2.923719585E-4,-8.955039084E-5,1.423740781E-3
1.003347296E1,-9.441712173E-4,8.550975472E-4,-3.587957472E-4,1.323399218E-3
1.004342896E1,-2.387478016E-3,1.831701025E-3,1.515896991E-3,3.369439658E-3
1.005338596E1,2.373334719E-4,-4.964349791E-4,-1.046596095E-3,1.182428963E-3
1.006334296E1,-9.823092259E-4,1.449339092E-3,5.771182477E-4,1.843523987E-3
1.007329896E1,-1.251288457E-3,1.367313787E-3,-2.165045589E-4,1.866050380E-3
1.008325596E1,1.048308564E-3,-3.604022786E-4,-3.534620628E-4,1.163518835E-3
1.009321296E1,-1.062512863E-3,-5.116695538E-4,1.973874867E-3,2.299330622E-3
1.010316896E1,-5.577697884E-4,6.854115054E-4,9.177597240E-4,1.274040415E-3
1.011312596E1,-9.212912992E-4,5.716942251E-4,5.467822775E-4,1.214324011E-3
1.012308296E1,-1.110237441E-3,2.434886992E-4,-8.882461116E-4,1.442530789E-3
1.013303896E1,7.601006073E-4,-2.256128937E-5,-1.824880019E-3,1.976979774E-3
1.014299596E1,1.569939894E-3,-1.656970941E-3,-1.312875189E-3,2.633230949E-3
1.015295296E1,1.716680010E-3,-1.349909231E-3,-2.398912795E-3,3.244075798E-3
1.016290896E1,-2.116217278E-3,1.344308257E-3,-5.687158555E-4,2.570793259E-3
1.017286596E1,2.774317982E-4,3.333725035E-4,3.769733012E-4,5.746429313E-4
1.018282296E1,-1.664164942E-3,-1.191580668E-3,7.839351892E-4,2.191771846E-3
1.019277896E1,6.272187456E-4,-1.054162160E-3,1.181811094E-3,1.703331640E-3
1.020273596E1,-5.935619120E-4,1.144568436E-3,2.838205546E-4,1.320191939E-3
1.021269296E1,2.224305645E-4,-2.205679193E-4,-6.693247706E-4,7.390001431E-4
1.022264996E1,2.048847266E-3,1.672442071E-3,4.302039742E-4,2.679535978E-3
1.023260596E1,2.441397170E-3,-2.289010212E-3,-2.406860702E-3,4.122252579E-3
1.024256296E1,-1.157998806E-3,1.187338494E-3,2.131925896E-3,2.701081627E-3
1.025251996E1,-8.520015981E-4,-3.626216203E-4,-1.481452025E-3,1.747026407E-3
1.026247596E1,-6.144280778E-4,-4.897126928E-4,2.951771021E-4,8.393270554E-4
1.027243296E1,9.530445095E-5,-7.810629904E-4,-4.342636093E-4,8.987364551E-4
1.028238996E1,2.599660307E-3,-1.128229313E-3,2.731597051E-4,2.847060119E-3
1.029234596E1,1.676076092E-3,-1.039014198E-3,-2.662442625E-3,3.313213289E-3
1.030230296E1,3.954590065E-4,1.247568056E-3,2.505090088E-4,1.332504651E-3
1.031225996E1,5.693634739E-4,-4.746988416E-4,-1.278145239E-3,1.477555077E-3
1.032221596E1,2.639213111E-3,-1.424090937E-3,1.022638753E-4,3.000656385E-3
1.033217296E1,2.096194541E-3,1.463308930E-3,-8.815247566E-5,2.557943596E-3
1.034212996E1,-7.407221710E-4,1.945123076E-4,-6.040269509E-4,9.753732259E-4
1.035208596E1,4.481129581E-4,1.408646815E-3,-1.133729704E-3,1.862910119E-3
1.036204296E1,1.937245484E-3,-1.955465414E-3,-1.475401223E-4,2.756543694E-3
1.037199996E1,1.637373585E-3,-9.392034262E-4,1.925996505E-3,2.696768042E-3
1.038195596E1,5.062634591E-4,-4.283245653E-5,-2.871267498E-6,5.080802629E-4
1.039191296E1,1.841039862E-3,-1.110099256E-4,3.704247996E-3,4.138019357E-3
1.040186996E1,-7.988738362E-4,-6.210906431E-4,2.088127658E-3,2.320394386E-3
1.041182596E1,-1.162395347E-3,2.635156736E-3,-7.105888799E-4,2.966504765E-3
1.042178296E1,1.994895749E-3,-1.712583937E-3,-1.946351491E-3,3.271213370E-3
1.043173996E1,1.116585219E-3,-4.814043641E-4,-7.814848796E-4,1.445417355E-3
1.044169596E1,-7.571689785E-4,-1.543938182E-3,-2.702689730E-3,3.203370373E-3
1.045165296E1,5.248767557E-4,5.117561668E-4,-1.124766655E-3,1.342568438E-3
1.046160996E1,5.397938658E-4,7.145181298E-4,5.287490785E-5,8.970559243E-4
1.047156596E1,3.674874315E-4,-1.590714790E-3,-2.997275442E-4,1.659896731E-3
1.048152296E1,1.806171145E-3,1.109243371E-3,7.817968726E-4,2.259177154E-3
1.049147996E1,-2.022655448E-3,5.140267313E-4,-2.774056979E-3,3.471419114E-3