"Time (s)","Gyroscope x (rad/s)","Gyroscope y (rad/s)","Gyroscope z (rad/s)","Absolute (rad/s)"
-3.043333345E-4,-2.548450604E-3,5.179690197E-4,3.823150992E-1,3.823239438E-1
9.651666664E-3,-2.268610988E-3,2.082114108E-3,3.814656436E-1,3.814780716E-1
1.960866667E-2,-2.387654036E-3,5.060060415E-3,3.813036978E-1,3.813447457E-1
2.956466666E-2,-7.240904961E-4,1.046814956E-3,3.815953732E-1,3.815974960E-1
3.952066667E-2,-4.092989489E-3,3.183469176E-3,3.838212490E-1,3.838562729E-1
4.947666666E-2,-6.350088865E-3,2.504175529E-3,3.824376464E-1,3.824985593E-1
5.943266667E-2,-5.927179009E-3,1.003484242E-3,3.833050430E-1,3.833521806E-1
6.938866667E-2,-4.529760219E-3,2.879879437E-3,3.834377825E-1,3.834753519E-1
7.934466666E-2,-3.765166039E-3,1.587181352E-3,3.846753538E-1,3.846970541E-1
8.930166666E-2,-1.357426052E-3,1.862050034E-3,3.836846352E-1,3.836915546E-1
9.925766666E-2,-3.144140821E-3,4.672217183E-3,3.850926459E-1,3.851338224E-1
1.092136667E-1,-2.550812904E-3,2.766770311E-3,3.850770295E-1,3.850954171E-1
1.191696667E-1,-3.386779223E-3,1.960365102E-3,3.845728934E-1,3.845928024E-1
1.291256667E-1,-3.670879873E-3,2.814785577E-3,3.875957131E-1,3.876233161E-1
1.390816667E-1,-4.987546243E-3,2.834759653E-3,3.890016079E-1,3.890439081E-1
1.490376667E-1,-3.842443228E-3,2.197158523E-3,3.909437358E-1,3.909687922E-1
1.589936667E-1,-1.167830778E-3,2.458414529E-3,3.899309337E-1,3.899404322E-1
1.689506667E-1,-4.528947175E-3,5.431075115E-3,3.916809261E-1,3.917447585E-1
1.789066667E-1,-3.055420239E-3,1.696524676E-3,3.961598277E-1,3.961752426E-1
1.888626667E-1,-4.754189402E-3,1.172820106E-3,3.970811963E-1,3.971113878E-1
1.988186667E-1,-3.440984292E-3,8.559031412E-4,3.953551948E-1,3.953710953E-1
2.087746667E-1,-3.413837403E-3,2.665505745E-3,3.939228952E-1,3.939467052E-1
2.187306667E-1,-2.468947787E-3,3.409592900E-3,3.949953318E-1,3.950177631E-1
2.286866667E-1,-3.949248698E-3,4.418267868E-3,3.949129283E-1,3.949573884E-1
2.386426667E-1,-6.869670935E-3,5.918378010E-4,3.931019902E-1,3.931624567E-1
2.485996667E-1,-1.692814752E-3,2.672428265E-3,3.913625181E-1,3.913753033E-1
2.585556667E-1,-3.059282666E-3,3.701207228E-3,3.908466697E-1,3.908761662E-1
2.685116667E-1,-3.125004470E-3,3.259567078E-3,3.928189278E-1,3.928448809E-1
2.784676667E-1,-4.746602848E-3,4.091858864E-4,3.935539424E-1,3.935827782E-1
2.884236667E-1,-2.914151875E-3,2.829895355E-3,3.945607841E-1,3.945816936E-1
2.983796667E-1,-2.626263769E-3,1.063154079E-3,3.918328881E-1,3.918431316E-1
3.083356667E-1,-2.130239271E-3,-6.658649072E-4,3.877369761E-1,3.877433996E-1
3.182916667E-1,-3.115608823E-3,2.675337251E-3,3.854581118E-1,3.854799870E-1
3.282486667E-1,-4.282606766E-3,3.200395498E-3,3.845256269E-1,3.845627920E-1
3.382046667E-1,-3.593114438E-3,2.482140902E-3,3.877936006E-1,3.878181895E-1
3.481606667E-1,-2.043752000E-3,4.642698914E-4,3.899255991E-1,3.899312315E-1
3.581166667E-1,-3.304759040E-3,1.282393001E-3,3.934287131E-1,3.934446826E-1
3.680726667E-1,-1.818825025E-3,4.202704877E-4,3.939408660E-1,3.939452889E-1
3.780286667E-1,-4.082245752E-3,4.007015843E-3,3.969507515E-1,3.969919647E-1
3.879846667E-1,-4.237521905E-3,6.530601531E-4,3.974087536E-1,3.974318816E-1
3.979406667E-1,-2.623646520E-3,3.414758015E-3,3.970969021E-1,3.971202510E-1
4.078976667E-1,-3.226923756E-3,2.690111287E-3,3.945764005E-1,3.945987653E-1
4.178536667E-1,-3.807226662E-3,2.509815153E-3,3.938027620E-1,3.938291629E-1
4.278096667E-1,-2.441285877E-3,5.850298330E-4,3.911569118E-1,3.911649675E-1
4.377656667E-1,9.164679796E-5,1.185306348E-3,3.927569389E-1,3.927587382E-1
4.477216667E-1,-3.806717228E-3,2.909822389E-3,3.904967904E-1,3.905261854E-1
4.576776667E-1,-4.542548675E-3,1.605405938E-3,3.911974728E-1,3.912271397E-1
4.676336667E-1,-1.351862680E-3,1.299130730E-3,3.927748501E-1,3.927793250E-1
4.775906667E-1,-2.029370982E-3,2.960144076E-3,3.925692737E-1,3.925856791E-1
4.875466667E-1,-5.377586931E-3,3.213057760E-3,3.917571306E-1,3.918072123E-1
4.975026667E-1,-4.861466121E-3,3.409598954E-3,3.896385729E-1,3.896838164E-1
5.074586667E-1,-4.310832359E-3,3.084688447E-3,3.913870454E-1,3.914229399E-1
5.174146667E-1,-5.029619671E-3,2.218361944E-3,3.911492527E-1,3.911878782E-1
5.273706667E-1,-3.000425175E-3,2.481618896E-3,3.917911053E-1,3.918104531E-1
5.373266667E-1,-4.468625877E-3,8.885152638E-4,3.937149942E-1,3.937413551E-1
5.472826667E-1,-2.704479033E-3,7.119812071E-4,3.927614093E-1,3.927713657E-1
5.572396667E-1,-4.384401254E-3,2.567405347E-3,3.930849731E-1,3.931178076E-1
5.671956667E-1,-4.203985445E-4,3.475036006E-3,3.943208754E-1,3.943364114E-1
5.771516667E-1,-2.825232688E-3,1.900308765E-3,3.903237581E-1,3.903386085E-1
5.871076667E-1,-3.470112104E-3,9.495038539E-4,3.928723931E-1,3.928888654E-1
5.970636667E-1,-5.217678379E-3,3.944228869E-3,3.942524493E-1,3.943067015E-1
6.070196667E-1,-4.952712916E-3,3.762464039E-3,3.925324082E-1,3.925816820E-1
6.169756667E-1,-5.579887424E-3,3.747550305E-3,3.944533467E-1,3.945106108E-1
6.269326667E-1,-3.486269386E-3,3.427032847E-3,3.922478855E-1,3.922783480E-1
6.368886667E-1,-2.499834867E-3,2.501051873E-3,3.944740295E-1,3.944898787E-1
6.468446667E-1,-1.525603700E-3,1.862442587E-3,3.914024532E-1,3.914098575E-1
6.568000000E-1,-3.821781371E-3,-2.706476487E-3,3.931052685E-1,3.931331621E-1
6.667560000E-1,-2.674452960E-3,3.363421187E-3,3.928117454E-1,3.928352487E-1
6.767120000E-1,-4.214558750E-3,7.559200749E-4,3.945097923E-1,3.945330280E-1
6.866680000E-1,-3.227814799E-3,1.140648033E-3,3.944701254E-1,3.944849804E-1
6.966240000E-1,-3.829422640E-3,1.133457292E-3,3.935795426E-1,3.935998038E-1
7.065810000E-1,-3.947168589E-4,2.904363442E-3,3.920015097E-1,3.920124675E-1
7.165370000E-1,-3.374261549E-3,5.930848420E-5,3.942084610E-1,3.942229064E-1
7.264930000E-1,-2.109063556E-3,1.755228732E-3,3.973669708E-1,3.973764442E-1
7.364490000E-1,-4.167687148E-3,-2.583326772E-3,3.952100873E-1,3.952405044E-1
7.464050000E-1,-2.219434362E-3,5.658762529E-4,3.990120590E-1,3.990186328E-1
7.563610000E-1,-3.167786170E-3,1.308897976E-3,3.961031139E-1,3.961179432E-1
7.663170000E-1,4.985990236E-4,2.237706445E-3,3.986005485E-1,3.986071414E-1
7.762740000E-1,-8.835815825E-4,4.086457193E-5,3.952425718E-1,3.952435616E-1
7.862300000E-1,-5.219833925E-3,4.216881469E-3,3.980505764E-1,3.981071340E-1
7.961860000E-1,-1.485283021E-3,3.215799108E-3,3.982314169E-1,3.982471706E-1
8.061420000E-1,-5.361674819E-3,1.425707713E-3,3.978025615E-1,3.978412474E-1
8.160980000E-1,-4.680970684E-3,2.621467225E-3,3.941886425E-1,3.942251507E-1
8.260540000E-1,-1.722418237E-3,2.242642455E-3,3.931057751E-1,3.931159455E-1
8.360100000E-1,-5.361627787E-3,1.875126269E-3,3.938320279E-1,3.938729863E-1
8.459660000E-1,-4.764683079E-3,3.705502488E-3,3.980100453E-1,3.980558115E-1
8.559230000E-1,-3.168650903E-3,8.910736069E-4,3.939745426E-1,3.939882925E-1
8.658790000E-1,-7.469609845E-4,1.141296700E-3,3.956593871E-1,3.956617383E-1
8.758350000E-1,-1.753103454E-3,-2.858918160E-4,3.960593939E-1,3.960633770E-1
8.857910000E-1,-3.163816174E-3,-2.542929724E-3,3.964507282E-1,3.964715073E-1
8.957470000E-1,-5.246408284E-3,1.594557427E-3,3.968097270E-1,3.968476116E-1
9.057030000E-1,-6.283898838E-4,3.569778055E-4,3.979200125E-1,3.979206688E-1
9.156590000E-1,-2.034006175E-3,4.375353456E-6,3.975466192E-1,3.975518226E-1
9.256160000E-1,-2.864986658E-3,2.501349431E-3,3.996727765E-1,3.996908720E-1
9.355720000E-1,3.305401187E-4,1.558323856E-3,3.977233469E-1,3.977265371E-1
9.455280000E-1,-1.690983307E-3,-1.731058583E-4,3.974973857E-1,3.975010202E-1
9.554840000E-1,-3.925375175E-3,-2.111895010E-4,3.977245390E-1,3.977439655E-1
9.654400000E-1,-1.836316893E-3,-1.479691826E-3,3.985205591E-1,3.985275368E-1
9.753960000E-1,-2.622215776E-3,-1.289275475E-3,3.952579200E-1,3.952687207E-1
9.853520000E-1,-2.662111539E-3,-4.637688398E-4,3.971075118E-1,3.971167055E-1
9.953080000E-1,-2.801660914E-3,2.039336134E-3,3.985056877E-1,3.985207540E-1
1.005265000E0,-1.436363673E-3,2.149342559E-3,3.987334073E-1,3.987417872E-1
1.015221000E0,-3.730676603E-3,1.069430728E-3,4.006551504E-1,4.006739462E-1
1.025177000E0,-4.332220647E-3,2.771981992E-3,3.961431682E-1,3.961765537E-1
1.035133000E0,-2.279722597E-3,1.611109823E-3,3.982649148E-1,3.982746981E-1
1.045089000E0,-3.725076560E-3,7.688580081E-4,4.002190828E-1,4.002371567E-1
1.055045000E0,-6.036967039E-3,1.475394703E-3,3.992912173E-1,3.993395773E-1
1.065001000E0,-3.942001611E-3,1.198388636E-4,4.007808864E-1,4.008002902E-1
1.074958000E0,-6.018202286E-3,1.201082021E-3,4.033063650E-1,4.033530531E-1
1.084914000E0,-3.416415770E-3,3.345645498E-3,3.989699185E-1,3.989985728E-1
1.094870000E0,-2.356211655E-3,4.015963059E-3,3.963269889E-1,3.963543388E-1
1.104826000E0,-5.009050481E-3,2.325094771E-3,3.944748640E-1,3.945135169E-1
1.114782000E0,-3.988260869E-3,-6.786845624E-4,3.982333839E-1,3.982539327E-1
1.124738000E0,-1.674176659E-3,1.635728404E-4,3.952778578E-1,3.952814370E-1
1.134694000E0,-5.324305035E-3,3.617117181E-4,3.953111470E-1,3.953471664E-1
1.144650000E0,-6.864042487E-3,1.199835911E-3,3.970585465E-1,3.971196848E-1
1.154607000E0,-2.871431410E-3,1.679471228E-3,3.968518972E-1,3.968658389E-1
1.164563000E0,-9.858438279E-4,9.125573561E-4,3.945987821E-1,3.946010687E-1
1.174519000E0,-9.182072245E-5,-7.596416399E-4,3.968099952E-1,3.968107329E-1
1.184475000E0,-2.715722891E-3,2.961705439E-3,3.968816996E-1,3.969020412E-1
1.194431000E0,-1.412371872E-3,1.654892229E-3,3.979030252E-1,3.979089731E-1
1.204387000E0,-4.634763580E-3,6.196866743E-4,3.958006501E-1,3.958282704E-1
1.214343000E0,-5.398025271E-3,1.376290340E-3,3.934767842E-1,3.935162164E-1
1.224300000E0,-1.500183716E-4,2.153391950E-3,3.941091001E-1,3.941150116E-1
1.234256000E0,-2.986817388E-3,5.815941840E-4,3.936283886E-1,3.936401500E-1
1.244212000E0,-5.264494568E-3,4.920959473E-4,3.936846554E-1,3.937201607E-1
1.254168000E0,-3.287097439E-3,1.405584626E-4,3.930526972E-1,3.930664671E-1
1.264124000E0,-3.625742160E-3,-6.032949314E-4,3.936454952E-1,3.936626549E-1
1.274080000E0,-2.037432510E-3,1.325366553E-3,3.940809369E-1,3.940884324E-1
1.284036000E0,-6.249212660E-3,8.127568290E-4,3.944420218E-1,3.944923597E-1
1.293992000E0,-1.903199824E-3,1.740069594E-3,3.941799700E-1,3.941884052E-1
1.303949000E0,-2.525850199E-3,3.916248679E-4,3.943782449E-1,3.943865278E-1
1.313905000E0,-2.476847731E-3,1.076323446E-3,3.907371461E-1,3.907464787E-1
1.323861000E0,-3.118371824E-3,2.206378151E-3,3.936850429E-1,3.937035754E-1
1.333817000E0,-6.880086847E-3,9.237998165E-4,3.922583759E-1,3.923197962E-1
1.343773000E0,-4.306357354E-3,5.711019039E-4,3.917624354E-1,3.917865193E-1
1.353729000E0,-4.356157966E-3,7.873503491E-4,3.927709758E-1,3.927959209E-1
1.363685000E0,-2.169742249E-3,7.072612643E-4,3.934033811E-1,3.934100002E-1
1.373642000E0,-2.171606291E-3,7.866234519E-4,3.926185369E-1,3.926253306E-1
1.383598000E0,-2.182513475E-3,-1.441920176E-4,3.945748210E-1,3.945808834E-1
1.393554000E0,-3.986805212E-3,-9.793592617E-4,3.921332359E-1,3.921547252E-1
1.403510000E0,1.140385517E-3,-8.207671344E-4,3.915939331E-1,3.915964537E-1
1.413466000E0,-1.203995198E-3,-1.555000432E-3,3.909542263E-1,3.909591726E-1
1.423422000E0,-1.623083372E-3,-1.234812662E-4,3.923451304E-1,3.923485071E-1
1.433378000E0,-2.557053696E-3,3.044082318E-3,3.925411403E-1,3.925612714E-1
1.443334000E0,-2.443824895E-3,8.986401372E-4,3.913436830E-1,3.913523452E-1
1.453291000E0,-1.243005507E-3,1.567093655E-3,3.932140172E-1,3.932191045E-1
1.463247000E0,-1.939094160E-3,1.241689548E-3,3.951243162E-1,3.951310253E-1
1.473203000E0,-2.580116969E-3,-9.961649776E-4,3.953797221E-1,3.953893954E-1
1.483159000E0,-2.886131639E-3,1.940053422E-3,3.969951272E-1,3.970103583E-1
1.493115000E0,-3.312237328E-3,1.687849872E-4,3.958616853E-1,3.958755780E-1
1.503071000E0,-3.307973966E-3,2.823688090E-3,3.946399987E-1,3.946639640E-1
1.513027000E0,-4.029956646E-3,-3.531146795E-3,3.963752985E-1,3.964115120E-1
1.522984000E0,-1.974337036E-3,3.809668589E-3,3.960865736E-1,3.961098148E-1
1.532940000E0,4.656510428E-4,1.121473964E-3,3.939600587E-1,3.939619301E-1
1.542896000E0,-1.726724673E-3,-1.008031890E-3,3.984518349E-1,3.984568514E-1
1.552852000E0,-3.096388187E-3,-2.053854987E-3,3.931390941E-1,3.931566523E-1
1.562808000E0,-1.183659304E-3,-1.435345039E-3,3.950017989E-1,3.950061802E-1
1.572764000E0,-4.047356546E-3,-1.448393799E-3,3.918118477E-1,3.918354284E-1
1.582720000E0,-2.416776260E-3,-6.374437362E-5,3.912506998E-1,3.912581692E-1
1.592676000E0,-3.269253997E-3,-3.873184323E-4,3.916919827E-1,3.917058174E-1
1.602633000E0,-1.410935074E-3,5.832319148E-4,3.906110525E-1,3.906140362E-1
1.612589000E0,-4.151061643E-3,3.044791985E-3,3.916960061E-1,3.917298345E-1
1.622545000E0,-4.371006042E-3,1.613949426E-3,3.916726112E-1,3.917003254E-1
1.632501000E0,-2.880434273E-3,8.797156624E-4,3.905993402E-1,3.906109514E-1
1.642457000E0,-4.172610119E-3,1.779269427E-3,3.928905725E-1,3.929167577E-1
1.652413250E0,-5.747337826E-3,1.805901062E-3,3.955563903E-1,3.956022637E-1
1.662369250E0,-2.200989518E-3,2.034953330E-3,3.941920102E-1,3.942034072E-1
1.672326250E0,-2.105648629E-3,-9.957235307E-4,3.932167590E-1,3.932236574E-1
1.682282250E0,-3.739675973E-3,1.984887291E-3,3.923902512E-1,3.924130912E-1
1.692238250E0,-1.679720823E-3,8.684899658E-4,3.911654651E-1,3.911700357E-1
1.702194250E0,-3.279426135E-3,1.891771797E-3,3.885964453E-1,3.886148875E-1
1.712150250E0,-1.018668991E-3,2.154892311E-3,3.907866180E-1,3.907938869E-1
1.722106250E0,1.447848044E-4,4.251501523E-4,3.888447881E-1,3.888450475E-1
1.732062250E0,-4.869148601E-3,1.139143482E-3,3.926517963E-1,3.926836378E-1
1.742018250E0,-3.662010422E-3,1.517175231E-3,3.927580416E-1,3.927780434E-1
1.751975250E0,-1.410308061E-3,9.507206269E-4,3.939863145E-1,3.939899858E-1
1.761931250E0,-3.638962284E-3,-1.411425881E-3,3.968300521E-1,3.968492465E-1
1.771887250E0,-1.870889682E-3,3.095082939E-4,3.943269551E-1,3.943315148E-1
1.781843250E0,-2.862667665E-3,3.686789423E-4,3.951517642E-1,3.951623053E-1
1.791799250E0,-1.466105692E-3,3.638854250E-4,3.946255147E-1,3.946284059E-1
1.801755250E0,-3.387562465E-3,-7.511544973E-4,3.946786821E-1,3.946939345E-1
1.811711250E0,-2.252789680E-3,1.492292620E-3,3.926855922E-1,3.926948896E-1
1.821668250E0,-1.160191838E-3,6.102342159E-4,3.942347467E-1,3.942369261E-1
1.831624250E0,-3.519219812E-3,2.041683532E-3,3.967192173E-1,3.967400796E-1
1.841580250E0,-2.945703920E-3,-4.477733746E-4,3.932252228E-1,3.932365109E-1
1.851536250E0,-3.117211629E-3,1.427891199E-3,3.931613266E-1,3.931762768E-1
1.861492250E0,-4.348515533E-3,1.228710171E-3,3.907892406E-1,3.908153655E-1
1.871448250E0,-1.533820760E-3,3.820498474E-3,3.926209509E-1,3.926425345E-1
1.881404250E0,1.444546157E-3,3.760252148E-4,3.926560879E-1,3.926589251E-1
1.891360250E0,-1.921423245E-3,2.001352143E-3,3.954260349E-1,3.954357677E-1
1.901317250E0,-1.838459168E-3,3.045519814E-3,3.959705532E-1,3.959865327E-1
1.911273250E0,-1.283456571E-3,-7.570488378E-5,3.951106369E-1,3.951127288E-1
1.921229250E0,-1.209602691E-3,1.035462134E-3,3.951698840E-1,3.951730918E-1
1.931185250E0,-2.577135805E-3,3.603505902E-4,3.943592310E-1,3.943678163E-1
1.941141250E0,-3.791740164E-5,6.556310691E-4,3.921779394E-1,3.921784893E-1
1.951097250E0,-3.393872175E-4,3.541610204E-4,3.919819593E-1,3.919822663E-1
1.961053250E0,-3.309460822E-3,2.331359778E-3,3.941843212E-1,3.942051076E-1
1.971010250E0,-3.130496480E-3,3.086898476E-3,3.930332959E-1,3.930578846E-1
1.980966250E0,-4.195488058E-3,1.272961497E-3,3.918766677E-1,3.919011932E-1
1.990922250E0,-3.290279768E-3,-2.738291398E-3,3.939765692E-1,3.939998239E-1
2.000878250E0,2.743306104E-4,-8.648820221E-4,3.958280385E-1,3.958290784E-1
2.010834250E0,-1.555793686E-3,-1.205500215E-3,3.938756585E-1,3.938805759E-1
2.020790250E0,-1.427047653E-3,1.967187505E-3,3.932035863E-1,3.932110967E-1
2.030746250E0,2.342322841E-4,9.551784024E-5,3.905659914E-1,3.905660733E-1
2.040702250E0,-1.968626631E-3,-1.557311043E-3,3.919682205E-1,3.919762577E-1
2.050659250E0,-2.011236968E-3,7.172944024E-4,3.906259835E-1,3.906318197E-1
2.060615250E0,-2.229492413E-3,3.358749673E-4,3.938332200E-1,3.938396738E-1
2.070571250E0,-9.908562060E-4,-1.034587622E-3,3.972173035E-1,3.972198867E-1
2.080527250E0,-2.084371168E-3,-1.843383536E-3,3.976442218E-1,3.976539573E-1
2.090483250E0,-2.691606060E-4,2.195034176E-3,3.941125870E-1,3.941187915E-1
2.100439250E0,-1.850997796E-3,6.030173972E-4,3.928627074E-1,3.928675307E-1
2.110395250E0,-2.398810117E-3,-7.597217336E-4,3.962803483E-1,3.962883368E-1
2.120352250E0,-1.682615839E-4,1.884188969E-3,3.906716406E-1,3.906762205E-1
2.130308250E0,-6.176885683E-3,2.953447867E-3,3.910346329E-1,3.910945677E-1
2.140264250E0,-1.499871258E-3,2.892741468E-3,3.917199373E-1,3.917334896E-1
2.150220250E0,-7.821493782E-4,2.299655695E-3,3.924254179E-1,3.924329354E-1
2.160176250E0,-2.573580481E-3,1.496801153E-3,3.942528665E-1,3.942641075E-1
2.170132250E0,-1.961586066E-3,2.511731815E-3,3.959855437E-1,3.959983680E-1
2.180088250E0,-1.164889429E-3,5.447803997E-4,3.984007835E-1,3.984028590E-1
2.190044250E0,-3.540961538E-3,1.062232535E-3,3.959743679E-1,3.959916246E-1
2.200001250E0,-1.629987732E-3,-1.271384768E-3,3.938769996E-1,3.938824242E-1
2.209957250E0,-2.335725352E-3,1.814686228E-3,3.931717873E-1,3.931829129E-1
2.219913250E0,-3.270094749E-4,1.514494885E-3,3.932447731E-1,3.932478255E-1
2.229869250E0,2.954271389E-3,-1.571713947E-4,3.909749389E-1,3.909861318E-1
2.239825250E0,-1.890177606E-3,-3.231503069E-4,3.920055330E-1,3.920102232E-1
2.249781250E0,-1.304282108E-3,-1.426231116E-3,3.912124336E-1,3.912172075E-1
2.259737250E0,9.347782470E-4,1.622785348E-3,3.897022009E-1,3.897067008E-1
2.269694250E0,-4.231675994E-4,1.213457435E-3,3.909229934E-1,3.909251058E-1
2.279650250E0,-1.366185490E-3,5.255937576E-4,3.909953237E-1,3.909980637E-1
2.289606250E0,-1.889496576E-3,5.325181410E-4,3.916909397E-1,3.916958590E-1
2.299562250E0,-2.833072562E-3,3.052608576E-3,3.939387202E-1,3.939607341E-1
2.309518250E0,-2.692476846E-4,3.851866350E-4,3.907216191E-1,3.907219018E-1
2.319474250E0,-5.746497773E-4,5.074301735E-4,3.936322629E-1,3.936330095E-1
2.329430250E0,-2.472152002E-3,-5.881944671E-4,3.935087025E-1,3.935169075E-1
2.339387250E0,-2.905832371E-3,1.261439174E-3,3.977282643E-1,3.977408796E-1
2.349343250E0,-2.196632558E-3,3.578285687E-4,3.999346793E-1,3.999408718E-1
2.359299250E0,-1.873865491E-3,5.671763793E-4,3.986018300E-1,3.986066381E-1
2.369255250E0,-9.617328178E-4,-1.373735256E-3,3.989810646E-1,3.989845886E-1
2.379211250E0,-4.857495427E-3,9.390893392E-4,3.978745043E-1,3.979052630E-1
2.389167250E0,-2.002586378E-3,7.936810143E-4,3.947639465E-1,3.947698238E-1
2.399123250E0,-2.528930083E-3,-3.308937885E-3,3.966121078E-1,3.966339730E-1
2.409079250E0,-7.978752255E-4,-3.054872155E-3,3.950483203E-1,3.950609373E-1
2.419036250E0,-1.475867350E-3,-6.765662692E-4,3.918533027E-1,3.918566661E-1
2.428992250E0,-1.689186785E-3,1.645443961E-3,3.922978044E-1,3.923048918E-1
2.438948250E0,7.330605295E-4,2.073043957E-3,3.911281228E-1,3.911343035E-1
2.448904250E0,-1.998445950E-4,1.411780715E-3,3.896149397E-1,3.896175487E-1
2.458860250E0,-1.034484245E-3,1.841046847E-3,3.901355565E-1,3.901412719E-1
2.468816250E0,-6.419345737E-4,1.167000737E-3,3.886044919E-1,3.886067744E-1
2.478772250E0,-1.510225236E-3,-4.262258299E-4,3.891930282E-1,3.891961917E-1
2.488729250E0,1.950020087E-3,-6.510131061E-5,3.902369738E-1,3.902418513E-1
2.498685250E0,-1.239771489E-3,8.909474127E-4,3.931041956E-1,3.931071602E-1
2.508641250E0,-1.528458204E-3,3.572497517E-4,3.964997232E-1,3.965028301E-1
2.518597250E0,-8.711398114E-4,1.473509241E-3,3.970966041E-1,3.971002935E-1
2.528553250E0,-4.519580398E-4,1.305730082E-3,3.962068558E-1,3.962092651E-1
2.538509250E0,-2.471111715E-3,-5.143955350E-4,3.952167332E-1,3.952247933E-1
2.548465250E0,-3.049284220E-3,2.145836130E-3,3.924134970E-1,3.924312110E-1
2.558421250E0,-5.131969694E-3,-1.394129358E-4,3.921859860E-1,3.922195867E-1
2.568378250E0,-2.793714404E-3,2.468886785E-3,3.937433958E-1,3.937610468E-1
2.578334250E0,-2.750596963E-3,-1.745191403E-4,3.977022767E-1,3.977118268E-1
2.588290250E0,-2.194528934E-3,5.437354557E-4,3.940891623E-1,3.940956476E-1
2.598246250E0,-4.838464782E-3,-1.188167837E-3,3.912953734E-1,3.913270905E-1
2.608202250E0,-4.995858297E-3,1.543322578E-4,3.854433596E-1,3.854757656E-1
2.618158250E0,-1.036770176E-3,3.604381345E-4,3.847984672E-1,3.848000327E-1
2.628114250E0,-6.551393308E-4,-1.012953930E-3,3.864714503E-1,3.864733331E-1
2.638071250E0,-2.247595694E-3,2.060278784E-3,3.895788193E-1,3.895907505E-1
2.648027250E0,-1.942929812E-3,3.248581663E-3,3.909429014E-1,3.909612262E-1
2.657983125E0,-4.946845584E-4,2.817614004E-4,3.935017884E-1,3.935022002E-1
2.667939125E0,-1.215070020E-3,1.902561169E-3,3.951771855E-1,3.951836334E-1
2.677895125E0,-3.335255664E-3,1.570116729E-3,3.936483562E-1,3.936656164E-1
2.687851125E0,-3.400503192E-3,1.102998387E-3,3.932603300E-1,3.932765784E-1
2.697807125E0,-4.906193353E-3,-2.816212364E-4,3.887082338E-1,3.887392971E-1
2.707763125E0,-1.817991724E-3,2.007632051E-3,3.875327110E-1,3.875421755E-1
2.717720125E0,-2.952631563E-3,-9.422553703E-4,3.876320422E-1,3.876444324E-1
2.727676125E0,-5.685696378E-4,-7.049674168E-4,3.943580985E-1,3.943591385E-1
2.737632125E0,-1.593516208E-5,1.920536160E-4,3.976690471E-1,3.976690938E-1
2.747588125E0,-4.649441689E-4,1.547868829E-3,3.979260325E-1,3.979293146E-1
2.757544125E0,-1.742448192E-3,9.225122631E-5,3.940028846E-1,3.940067483E-1
2.767500125E0,-3.709192388E-3,1.048326027E-3,3.912563920E-1,3.912753779E-1
2.777456125E0,-3.204010427E-3,-6.523700431E-4,3.854273856E-1,3.854412547E-1
2.787413125E0,-2.955271397E-3,3.841181751E-3,3.877927959E-1,3.878230793E-1
2.797369125E0,-2.128079999E-3,1.496877521E-4,3.925464451E-1,3.925522420E-1
2.807325125E0,-2.892407589E-3,1.623481512E-3,3.947241008E-1,3.947380365E-1
2.817281125E0,-2.463630866E-3,-1.443549991E-5,3.964412212E-1,3.964488764E-1
2.827237125E0,-1.336847432E-3,-3.126605414E-3,3.953887522E-1,3.954033740E-1
2.837193125E0,4.215820227E-4,-1.091018319E-3,3.917176127E-1,3.917193590E-1
2.847149125E0,-6.063983310E-4,2.338334452E-3,3.875950277E-1,3.876025555E-1
2.857106125E0,-1.029923093E-3,3.871396184E-4,3.890939951E-1,3.890955508E-1
2.867062125E0,-1.316387206E-4,-3.389223013E-3,3.849820495E-1,3.849969903E-1
2.877018125E0,-3.583030775E-6,-2.954215743E-4,3.850999475E-1,3.851000608E-1
2.886974125E0,-1.543689286E-3,-1.256556716E-3,3.881309032E-1,3.881360070E-1
2.896930125E0,-3.459717147E-3,1.068348065E-4,3.953236043E-1,3.953387575E-1
2.906886125E0,4.455421586E-4,2.538833767E-3,3.967089653E-1,3.967173393E-1
2.916842125E0,-6.129797548E-4,9.934850968E-4,4.001378715E-1,4.001395744E-1
2.926799125E0,-3.624748439E-3,1.309602521E-3,4.003666341E-1,4.003851840E-1
2.936755125E0,-1.802977175E-3,1.204665750E-4,3.994057477E-1,3.994098353E-1
2.946711125E0,-2.250388265E-3,-1.241473481E-3,3.998627365E-1,3.998709961E-1
2.956667125E0,7.411867846E-4,2.115685493E-4,3.943440318E-1,3.943447851E-1
2.966623125E0,-2.983776387E-3,2.258208115E-3,3.890717626E-1,3.890897568E-1
2.976579125E0,-3.341855947E-3,2.269409597E-3,3.844831288E-1,3.845043492E-1
2.986535125E0,2.012134064E-4,-2.779038623E-4,3.871255219E-1,3.871256739E-1
2.996491125E0,-1.921387855E-3,9.134830907E-5,3.921982050E-1,3.922029221E-1
3.006448125E0,-9.658453055E-4,-2.108689398E-3,3.930740952E-1,3.930809380E-1
3.016404125E0,-4.099938087E-4,1.057883259E-3,3.946819305E-1,3.946835612E-1
3.026360125E0,-2.793789376E-3,1.545774750E-3,3.975735903E-1,3.975864112E-1
3.036316125E0,-1.352114137E-3,-2.833637409E-4,3.962472677E-1,3.962496759E-1
3.046272125E0,1.240206650E-3,1.847963780E-3,3.986084163E-1,3.986146292E-1
3.056228125E0,-2.148058498E-3,-2.380013932E-3,3.993031681E-1,3.993160385E-1
3.066184125E0,2.317421604E-4,2.706302330E-4,3.990240693E-1,3.990242284E-1
3.076141125E0,-2.016284736E-3,1.268838532E-4,3.938807249E-1,3.938859060E-1
3.086097125E0,-3.740947926E-3,-1.554103103E-3,3.921611011E-1,3.921820230E-1
3.096053125E0,-2.822594251E-4,1.391204074E-3,3.883696795E-1,3.883722738E-1
3.106009125E0,-4.013029393E-4,-2.487956081E-3,3.845888078E-1,3.845970646E-1
3.115965125E0,-1.166623551E-3,4.926542751E-4,3.878925443E-1,3.878946115E-1
3.125921125E0,-2.972013317E-5,1.642341260E-3,3.904936612E-1,3.904971160E-1
3.135877125E0,-1.739460975E-3,1.661346294E-3,3.897549808E-1,3.897624031E-1
3.145833125E0,-1.607634127E-3,-1.410610043E-3,3.932375908E-1,3.932434070E-1
3.155790125E0,-1.572678098E-3,5.888519809E-4,3.950439095E-1,3.950474788E-1
3.165746125E0,2.422661055E-4,-2.993632108E-3,3.929900825E-1,3.930015591E-1
3.175702125E0,-1.280523371E-3,3.111460246E-4,3.954822123E-1,3.954844078E-1
3.185658125E0,-7.577450015E-4,2.437147778E-3,3.945522606E-1,3.945605153E-1
3.195614125E0,1.881214674E-3,-1.380614005E-3,3.927676678E-1,3.927745994E-1
3.205570125E0,-2.223249059E-3,6.332686171E-4,3.920046687E-1,3.920114847E-1
3.215526125E0,-1.064609736E-3,-2.355050761E-3,3.891988695E-1,3.892074507E-1
3.225483125E0,-1.794848591E-3,8.194376715E-4,3.941664696E-1,3.941714078E-1
3.235439125E0,-2.255709842E-3,5.611544475E-5,3.985695243E-1,3.985759113E-1
3.245395125E0,-1.045836136E-3,1.501250081E-4,3.976760209E-1,3.976774244E-1
3.255351125E0,-5.893213674E-4,1.409384422E-3,3.971695602E-1,3.971724981E-1
3.265307125E0,-3.408011049E-3,9.625060484E-4,3.970001936E-1,3.970159879E-1
3.275263125E0,1.061024610E-3,1.557996031E-3,3.914280534E-1,3.914325920E-1
3.285219125E0,-1.434890088E-3,1.976910979E-3,3.860921562E-1,3.860998836E-1
3.295176125E0,-2.058588900E-3,6.891502999E-4,3.896525800E-1,3.896586273E-1
3.305132125E0,-2.294545062E-3,1.592494547E-3,3.952226043E-1,3.952324732E-1
3.315088125E0,-1.763494685E-3,1.429906115E-4,3.909824789E-1,3.909864820E-1
3.325044125E0,3.289508168E-4,1.602136530E-3,3.939732313E-1,3.939766263E-1
3.335000125E0,3.481116146E-4,-7.212059572E-4,3.941086531E-1,3.941094667E-1
3.344956125E0,1.909523038E-3,1.067710109E-4,3.949305117E-1,3.949351425E-1
3.354912125E0,1.039977185E-3,7.166336291E-4,3.963996172E-1,3.964016292E-1
3.364869125E0,-4.313242622E-3,3.893314861E-4,3.916413486E-1,3.916652928E-1
3.374825125E0,-2.715763170E-3,2.213828266E-4,3.839117587E-1,3.839214279E-1
3.384781125E0,-3.582356032E-3,2.594660036E-4,3.816139996E-1,3.816309019E-1
3.394737125E0,-2.983645070E-3,-4.754867405E-4,3.825642467E-1,3.825761768E-1
3.404693125E0,-1.339675859E-3,-1.939907670E-4,3.875288963E-1,3.875312605E-1
3.414649125E0,-8.364114910E-4,2.315452788E-3,3.932398558E-1,3.932475621E-1
3.424605125E0,-3.565619234E-3,2.424908802E-3,3.927562237E-1,3.927798939E-1
3.434562125E0,-2.345117508E-3,1.541133970E-3,3.931849301E-1,3.931949439E-1
3.444518125E0,-2.383733401E-3,4.439116456E-4,3.986401558E-1,3.986475298E-1
3.454474125E0,-7.714536041E-4,9.760991670E-4,4.000538886E-1,4.000558232E-1
3.464430125E0,-1.037503127E-3,3.321468830E-4,4.005852044E-1,4.005866856E-1
3.474386125E0,-8.778232150E-4,4.039234482E-4,3.994856477E-1,3.994868163E-1
3.484342125E0,-1.446674578E-3,2.561616246E-3,4.011170864E-1,4.011278746E-1
3.494298125E0,-2.736201743E-3,4.318421707E-4,3.974135816E-1,3.974232355E-1
3.504254125E0,-8.821089286E-4,9.799208492E-4,3.891412616E-1,3.891434952E-1
3.514211125E0,-2.170142485E-3,8.280188777E-4,3.820703924E-1,3.820774527E-1
3.524167125E0,-2.254298190E-3,1.532691065E-3,3.850416839E-1,3.850513334E-1
3.534123125E0,6.801588461E-4,-2.164006233E-3,3.864048123E-1,3.864114705E-1
3.544079125E0,-2.207884099E-4,-6.889784709E-5,3.899872899E-1,3.899873585E-1
3.554035125E0,-8.629728109E-4,7.413271815E-4,3.911685348E-1,3.911701891E-1
3.563991125E0,-4.006834235E-3,6.555733271E-4,3.921355307E-1,3.921565490E-1
3.573947125E0,-2.399939811E-3,4.062955268E-4,3.943996727E-1,3.944071838E-1
3.583904125E0,1.248058397E-3,7.088305429E-4,3.951102197E-1,3.951128267E-1
3.593860125E0,9.392993525E-5,1.810506452E-3,3.939277530E-1,3.939319247E-1
3.603816125E0,-1.388303936E-4,3.009195440E-3,3.927096426E-1,3.927211962E-1
3.613772125E0,-2.750189509E-3,-8.808355778E-4,3.916912079E-1,3.917018531E-1
3.623728125E0,-2.100111917E-3,1.727730967E-3,3.941695392E-1,3.941789202E-1
3.633684125E0,-1.806147862E-3,-3.504212946E-4,3.942550719E-1,3.942593647E-1
3.643640125E0,-1.822659746E-3,-4.409686662E-4,3.953634799E-1,3.953679271E-1
3.653597542E0,-3.521785839E-3,1.467819791E-3,3.977283537E-1,3.977466541E-1
3.663553542E0,-2.805661643E-3,1.101102680E-3,3.952646852E-1,3.952761762E-1
3.673509542E0,-3.031179542E-3,8.760201745E-4,3.938060403E-1,3.938186801E-1
3.683465542E0,-3.379245754E-4,1.182283740E-3,3.908845484E-1,3.908864825E-1
3.693421542E0,-8.743684739E-4,1.959173474E-3,3.887921572E-1,3.887980766E-1
3.703377542E0,-1.435762737E-3,-7.633767091E-4,3.875218332E-1,3.875252448E-1
3.713333542E0,-2.079504542E-3,3.353529610E-4,3.890571594E-1,3.890628614E-1
3.723290542E0,-1.546339598E-3,-1.070796512E-3,3.904209733E-1,3.904255040E-1
3.733246542E0,-1.060468610E-3,-1.640710980E-5,3.933200538E-1,3.933214838E-1
3.743202542E0,-1.504417509E-3,1.366838813E-3,3.945818543E-1,3.945870896E-1
3.753158542E0,-1.450923504E-3,2.465839963E-3,3.940052688E-1,3.940156563E-1
3.763114542E0,-2.082358813E-3,1.512960996E-3,3.950782418E-1,3.950866265E-1
3.773070542E0,-2.922436222E-3,7.764836773E-4,3.965394795E-1,3.965510085E-1
3.783026542E0,-1.561028417E-3,-9.090825915E-5,3.965874016E-1,3.965904843E-1
3.792983542E0,-1.045482233E-3,1.073695254E-3,3.975931108E-1,3.975959351E-1
3.802939542E0,-7.858239114E-4,1.620175783E-3,3.921674490E-1,3.921715830E-1
3.812895542E0,-2.533057705E-5,-9.947312064E-4,3.904219866E-1,3.904232546E-1
3.822851542E0,-3.477586433E-3,3.202410880E-3,3.869034052E-1,3.869322861E-1
3.832807542E0,-6.439667195E-4,-4.749223590E-4,3.885762393E-1,3.885770632E-1
3.842763542E0,-1.168875489E-3,3.514226759E-3,3.885903358E-1,3.886079839E-1
3.852719542E0,-2.218580106E-3,1.999443397E-3,3.912262619E-1,3.912376616E-1
3.862676542E0,-1.616173191E-3,-7.041981444E-4,3.892539144E-1,3.892579065E-1
3.872632542E0,9.649817366E-4,-2.562184818E-4,3.873355687E-1,3.873368555E-1
3.882588542E0,1.110390294E-3,-1.496452373E-3,3.912072480E-1,3.912116859E-1
3.892544542E0,-1.161476132E-3,-7.898965850E-5,3.914548755E-1,3.914566065E-1
3.902500542E0,-2.198511269E-3,-8.323984221E-4,3.904055953E-1,3.904126729E-1
3.912456542E0,-2.388095949E-3,5.872594193E-5,3.901618421E-1,3.901691550E-1
3.922412542E0,-1.721506938E-3,1.663280185E-3,3.888678253E-1,3.888751929E-1
3.932368542E0,1.402914058E-4,7.918337360E-5,3.868599832E-1,3.868600167E-1
3.942325542E0,-5.882713944E-3,1.633404288E-3,3.883369565E-1,3.883849458E-1
3.952281542E0,4.054671153E-4,1.394505147E-3,3.848187029E-1,3.848214432E-1
3.962237542E0,3.524702042E-4,-2.009947784E-4,3.847363889E-1,3.847366029E-1
3.972193542E0,-3.169537988E-3,-1.634821761E-3,3.806166053E-1,3.806333128E-1
3.982149542E0,-1.621442381E-3,1.011028886E-3,3.831210434E-1,3.831258086E-1
3.992105542E0,-1.928382553E-4,-9.134924039E-5,3.818582296E-1,3.818582893E-1
4.002061542E0,-2.181420568E-3,1.352857798E-4,3.823700845E-1,3.823763309E-1
4.012018542E0,-3.170546377E-3,7.638195530E-5,3.819019496E-1,3.819151180E-1
4.021974542E0,-2.457884373E-3,1.831748523E-4,3.822044730E-1,3.822124199E-1
4.031930542E0,-1.747764181E-4,3.754580393E-4,3.802527785E-1,3.802530041E-1
4.041886542E0,-8.520183619E-4,-2.275452018E-3,3.788959086E-1,3.789036991E-1
4.051842542E0,-1.263040584E-3,-2.616435289E-3,3.780859113E-1,3.780970739E-1
4.061798542E0,-9.498526342E-4,1.265654806E-3,3.785037696E-1,3.785070775E-1
4.071754542E0,-1.007427461E-3,-2.240668982E-4,3.766391575E-1,3.766405715E-1
4.081711542E0,-2.711317968E-3,3.059078008E-3,3.754159510E-1,3.754382046E-1
4.091667542E0,1.538024750E-3,2.116920426E-3,3.738275170E-1,3.738366747E-1
4.101623542E0,-1.966695301E-3,4.258132540E-4,3.730448186E-1,3.730502458E-1
4.111579542E0,-2.376381308E-4,-1.940224320E-4,3.723322451E-1,3.723323715E-1
4.121535542E0,-2.011531033E-4,7.157134824E-4,3.711817563E-1,3.711825008E-1
4.131491542E0,-1.012429129E-3,-1.157496590E-3,3.712622225E-1,3.712654073E-1
4.141447542E0,-2.560918219E-4,-1.946591306E-3,3.690547347E-1,3.690599572E-1
4.151404542E0,-3.030071966E-4,-2.727221232E-3,3.690481782E-1,3.690583794E-1
4.161360542E0,-1.377060078E-3,-2.632412594E-3,3.684087694E-1,3.684207476E-1
4.171316542E0,-3.450785298E-3,2.200817689E-4,3.669550419E-1,3.669713328E-1
4.181272542E0,2.281051129E-4,-1.832682639E-3,3.643254340E-1,3.643301149E-1
4.191228542E0,-3.189644776E-4,-1.188813709E-3,3.647333682E-1,3.647354450E-1
4.201184542E0,1.058422262E-3,5.433935672E-3,3.674689531E-1,3.675106521E-1
4.211140542E0,2.016796498E-3,1.920700073E-3,3.808301389E-1,3.808403225E-1
4.221097542E0,-3.900747281E-3,4.226997495E-3,4.003790617E-1,4.004203746E-1
4.231053542E0,-2.151608467E-3,-9.862999432E-4,4.155400395E-1,4.155467804E-1
4.241009542E0,-4.880549386E-3,-1.086701173E-3,4.199803174E-1,4.200100804E-1
4.250965542E0,-1.443578396E-3,-1.181121916E-3,4.153973460E-1,4.154015335E-1
4.260921542E0,-1.027059741E-3,3.008404747E-5,4.103503823E-1,4.103516687E-1
4.270877542E0,-2.157364506E-3,-4.625832662E-4,4.056252539E-1,4.056312547E-1
4.280833542E0,-1.442039385E-3,-7.589925081E-4,3.999753594E-1,3.999786791E-1
4.290790542E0,-3.031014930E-3,1.188682392E-3,3.959136605E-1,3.959270471E-1
4.300746542E0,-8.046124130E-4,1.041409560E-3,3.916435540E-1,3.916457651E-1
4.310702542E0,4.039327614E-4,6.527034566E-5,3.901375234E-1,3.901377380E-1
4.320658542E0,6.217793562E-4,2.100991085E-3,3.887018263E-1,3.887080017E-1
4.330614542E0,1.445301808E-3,1.959753688E-3,3.875395060E-1,3.875471561E-1
4.340570542E0,-1.569662709E-3,4.609332420E-3,3.852840662E-1,3.853148342E-1
4.350526542E0,-2.337008249E-3,2.882798202E-3,3.833406270E-1,3.833585898E-1
4.360483542E0,-1.916228794E-3,5.743699148E-4,3.846434653E-1,3.846486672E-1
4.370439542E0,-1.011018641E-3,5.828961730E-4,3.809009194E-1,3.809027072E-1
4.380395542E0,-1.282661222E-3,1.024448313E-3,3.835595548E-1,3.835630676E-1
4.390351542E0,-1.705062110E-3,2.032368910E-3,3.855642080E-1,3.855733345E-1
4.400307542E0,-2.747157123E-3,2.028108109E-3,3.843250275E-1,3.843401967E-1
4.410263542E0,-4.291351419E-3,2.518244088E-3,3.887375593E-1,3.887694012E-1
4.420219542E0,-2.216748428E-3,9.847958572E-4,3.910183012E-1,3.910258249E-1
4.430176542E0,-2.658790443E-3,-6.546089426E-4,3.971860111E-1,3.971954495E-1
4.440132542E0,-2.163176425E-3,-3.196862061E-3,4.000704587E-1,4.000890790E-1
4.450088542E0,-3.283821046E-3,-2.511972561E-4,4.010221362E-1,4.010356597E-1
4.460044542E0,-2.188995481E-3,8.846409619E-4,4.030568004E-1,4.030637153E-1
4.470000542E0,-1.108866651E-3,2.625700552E-3,4.020601511E-1,4.020702538E-1
4.479956542E0,-1.602489501E-4,-1.227094792E-3,4.033632278E-1,4.033651262E-1
4.489912542E0,-1.146391034E-3,-9.606266394E-4,4.015144110E-1,4.015171967E-1
4.499869542E0,-1.503254753E-3,1.309452113E-3,4.041748941E-1,4.041798108E-1
4.509825542E0,-8.948985487E-5,1.398182008E-3,4.039285183E-1,4.039309481E-1
4.519781542E0,-3.282353282E-3,8.333255537E-4,4.069448113E-1,4.069589018E-1
4.529737542E0,-2.686469816E-3,-1.291900408E-3,4.092068672E-1,4.092177248E-1
4.539693542E0,-2.846259158E-3,-1.618403476E-3,4.103145003E-1,4.103275638E-1
4.549649542E0,-1.967521384E-3,5.685263313E-4,4.109935760E-1,4.109986787E-1
4.559605542E0,-3.026127815E-3,3.277759999E-3,4.120497704E-1,4.120739186E-1
4.569562542E0,-3.013064619E-3,-4.351790994E-4,4.119045436E-1,4.119157936E-1
4.579518542E0,-5.126227625E-4,1.282826066E-3,4.144140482E-1,4.144163507E-1
4.589474542E0,-2.039866522E-4,-5.550370552E-4,4.128252268E-1,4.128256503E-1
4.599430542E0,-8.535315283E-4,1.165098511E-3,4.129951298E-1,4.129976552E-1
4.609386542E0,5.298347678E-4,1.448542345E-3,4.152374566E-1,4.152403212E-1
4.619342542E0,-6.036064588E-4,1.675709616E-3,4.169964790E-1,4.170002828E-1
4.629298542E0,6.232752930E-4,2.648398746E-3,4.177111983E-1,4.177200590E-1
4.639255542E0,-2.645488363E-3,1.076334622E-3,4.179165065E-1,4.179262657E-1
4.649211542E0,-3.837939817E-3,1.511478797E-3,4.192789495E-1,4.192992390E-1
4.659166917E0,-1.763870008E-3,4.241098650E-4,4.175907671E-1,4.175947077E-1
4.669122917E0,-1.299185678E-3,-2.527440432E-3,4.184934795E-1,4.185031281E-1
4.679078917E0,-6.167177577E-3,-2.112519462E-3,4.151107371E-1,4.151619213E-1
4.689034917E0,-2.193446271E-3,-4.003259353E-3,4.012534618E-1,4.012794262E-1
4.698990917E0,5.783720408E-4,2.130798995E-3,3.802872002E-1,3.802936095E-1
4.708947917E0,-1.330506057E-4,3.915010951E-3,3.708026707E-1,3.708233618E-1
4.718903917E0,-2.157851588E-3,2.443762496E-4,3.712674081E-1,3.712737594E-1
4.728859917E0,-3.616571892E-3,-1.845472027E-3,3.764384091E-1,3.764603049E-1
4.738815917E0,-3.680221736E-3,-2.238731831E-4,3.824134767E-1,3.824312504E-1
4.748771917E0,-1.771251205E-3,2.224756870E-3,3.822487891E-1,3.822593669E-1
4.758727917E0,-2.884985413E-3,2.319299150E-3,3.856054544E-1,3.856232213E-1
4.768683917E0,1.256619813E-3,1.027584076E-4,3.875314593E-1,3.875335103E-1
4.778640917E0,-2.438249532E-3,1.486537047E-3,3.894459903E-1,3.894564600E-1
4.788596917E0,-3.587473184E-4,-1.443647780E-3,3.902194798E-1,3.902223151E-1
4.798552917E0,7.691013161E-4,7.132459432E-4,3.955953419E-1,3.955967325E-1
4.808508917E0,-1.147039700E-3,7.960014045E-6,3.926607072E-1,3.926623827E-1
4.818464917E0,-1.212819479E-3,-3.212071024E-4,3.955534399E-1,3.955554296E-1
4.828420917E0,-9.199632332E-4,-5.670413375E-4,3.935005367E-1,3.935020206E-1
4.838376917E0,-2.776985057E-3,-2.852790058E-4,3.941495419E-1,3.941594276E-1
4.848333917E0,-1.153117511E-3,7.434654981E-5,3.976954222E-1,3.976971008E-1
4.858289917E0,-2.008791082E-3,-5.549583584E-4,3.964006007E-1,3.964060790E-1
4.868245917E0,-1.500092912E-3,-1.156097278E-5,3.956444860E-1,3.956473299E-1
4.878201917E0,-8.042086847E-4,1.106779091E-4,3.954937756E-1,3.954946087E-1
4.888157917E0,-1.362211071E-3,-2.272085287E-3,3.931572735E-1,3.931661986E-1
4.898113917E0,-2.665864304E-4,-8.728597313E-4,3.932369053E-1,3.932379644E-1
4.908069917E0,-1.357919071E-3,1.390585210E-3,3.963094056E-1,3.963141716E-1
4.918026917E0,-3.558222670E-3,-3.540515900E-4,3.960015476E-1,3.960176915E-1
4.927982917E0,-8.051265031E-4,2.529923338E-3,3.964737058E-1,3.964825950E-1
4.937938917E0,-6.816680077E-3,1.476110425E-3,3.971706629E-1,3.972318989E-1
4.947894917E0,-4.968779162E-3,-3.514175303E-3,3.942411840E-1,3.942881552E-1
4.957850917E0,2.142926678E-3,6.324937567E-5,3.942675591E-1,3.942733877E-1
4.967806917E0,-5.416239146E-3,8.958703838E-4,3.945854306E-1,3.946236185E-1
4.977763917E0,-1.122158021E-3,9.757652879E-4,3.917070925E-1,3.917099152E-1
4.987719917E0,-7.567382418E-4,1.411252189E-3,3.911478817E-1,3.911511596E-1
4.997675917E0,-1.510146540E-3,-2.564191818E-4,3.937391341E-1,3.937421136E-1
5.007631917E0,-1.056077890E-3,2.024126239E-3,3.930253386E-1,3.930319697E-1
5.017587917E0,-1.595900860E-3,-5.982881412E-4,3.964501619E-1,3.964538255E-1
5.027543917E0,-7.905601524E-4,-4.528886639E-4,3.949312270E-1,3.949322779E-1
5.037499917E0,-1.638510264E-3,5.284859799E-4,3.996362090E-1,3.996399174E-1
5.047456917E0,-1.888441853E-3,2.258557826E-3,3.968490660E-1,3.968599860E-1
5.057412917E0,4.247799516E-4,1.292362809E-3,3.967278898E-1,3.967302221E-1
5.067368917E0,-2.581596375E-3,1.723733731E-4,3.917107582E-1,3.917193031E-1
5.077324917E0,-1.189713366E-4,-1.468133647E-3,3.910247386E-1,3.910275128E-1
5.087280917E0,-1.142779365E-3,-1.386554446E-3,3.886458874E-1,3.886500408E-1
5.097236917E0,-1.078064553E-3,-1.075231005E-3,3.884853125E-1,3.884882963E-1
5.107192917E0,-1.262752339E-3,1.300719101E-3,3.895094693E-1,3.895136879E-1
5.117149917E0,-4.984247498E-4,-9.363363497E-4,3.920913935E-1,3.920928283E-1
5.127105917E0,-9.672772139E-4,4.169400781E-4,3.899912238E-1,3.899926462E-1
5.137061917E0,-1.422144938E-3,1.441724133E-3,3.910948336E-1,3.911000766E-1
5.147017917E0,-3.648810554E-3,-3.027087077E-4,3.881093860E-1,3.881266558E-1
5.156973917E0,-8.692694828E-4,-7.615713403E-4,3.864254653E-1,3.864271935E-1
5.166929917E0,-1.914876048E-3,6.234771572E-4,3.902642131E-1,3.902694089E-1
5.176885917E0,-2.060817555E-3,1.547594089E-3,3.897166550E-1,3.897251765E-1
5.186842917E0,2.911253832E-4,-2.550358418E-3,3.901470304E-1,3.901554746E-1
5.196798917E0,-2.465512604E-3,-6.163711660E-4,3.928445280E-1,3.928527483E-1
5.206754917E0,-4.356393125E-3,6.030946970E-4,3.911112249E-1,3.911359509E-1
5.216710917E0,-2.652768511E-3,2.470769454E-3,3.933845162E-1,3.934012195E-1
5.226666917E0,-7.515698671E-4,1.246931497E-3,3.912571967E-1,3.912599055E-1
5.236622917E0,-3.148681019E-3,1.341739669E-3,3.924388587E-1,3.924537837E-1
5.246578917E0,2.580136061E-5,-2.210654318E-3,3.907492757E-1,3.907555298E-1
5.256535917E0,-3.251750953E-3,-2.321917564E-4,3.920664787E-1,3.920800321E-1
5.266491917E0,-1.916411333E-3,-1.043436583E-3,3.925747275E-1,3.925807918E-1
5.276447917E0,-1.899899915E-3,1.230636612E-3,3.916351497E-1,3.916416916E-1
5.286403917E0,-3.555294592E-3,-5.840416998E-4,3.910664618E-1,3.910830587E-1
5.296359917E0,-2.088425681E-3,-3.869677894E-4,3.890973330E-1,3.891031300E-1
5.306315917E0,-2.003616188E-3,2.504405566E-4,3.914018571E-1,3.914070656E-1
5.316272917E0,-8.113188669E-4,7.356684655E-4,3.906252980E-1,3.906268333E-1
5.326228917E0,-3.118748777E-3,1.338674687E-3,3.885992467E-1,3.886140672E-1
5.336184917E0,-1.658359542E-4,-8.717491291E-4,3.892171085E-1,3.892181201E-1
5.346140917E0,-5.286512896E-5,-2.974411473E-4,3.865176439E-1,3.865177620E-1
5.356096917E0,-2.290452830E-3,-3.825863358E-3,3.859461248E-1,3.859718832E-1
5.366052917E0,3.104817588E-4,1.978269313E-3,3.845458627E-1,3.845510765E-1
5.376008917E0,2.894427162E-4,1.232372597E-5,3.852721155E-1,3.852722244E-1
5.385965917E0,-1.355959103E-3,1.310931519E-3,3.817175329E-1,3.817221923E-1
5.395921917E0,5.383475218E-4,1.644625794E-3,3.844587207E-1,3.844626152E-1
5.405877917E0,-1.661188435E-3,1.391791739E-4,3.834462762E-1,3.834498998E-1
5.415833917E0,4.837214947E-4,-1.588282175E-4,3.841149807E-1,3.841153181E-1
5.425789917E0,-2.802085597E-3,-8.231298998E-4,3.812355101E-1,3.812466962E-1
5.435745917E0,-1.027057879E-4,2.836799249E-4,3.822981119E-1,3.822982310E-1
5.445701917E0,-3.231943585E-3,3.669494763E-4,3.813073337E-1,3.813212069E-1
5.455658917E0,-5.812989548E-4,-5.830000155E-4,3.804681897E-1,3.804690805E-1
5.465614917E0,-2.203564625E-3,6.011268124E-4,3.826297224E-1,3.826365397E-1
5.475570917E0,-2.420612145E-3,-7.621455006E-4,3.806003928E-1,3.806088533E-1
5.485526917E0,-1.019523013E-3,9.378138930E-4,3.821752369E-1,3.821777475E-1
5.495482917E0,-1.989179756E-3,-1.852114219E-3,3.803501725E-1,3.803598834E-1
5.505438917E0,-1.225218177E-3,1.651663799E-3,3.794330955E-1,3.794386684E-1
5.515394917E0,-1.585544087E-3,1.389882527E-4,3.773880601E-1,3.773914164E-1
5.525351917E0,-3.926267847E-3,-2.473723143E-4,3.802868128E-1,3.803071611E-1
5.535307917E0,-1.770439092E-3,-1.099528745E-4,3.797746897E-1,3.797788323E-1
5.545263917E0,-8.668052033E-5,-2.924259752E-5,3.782863021E-1,3.782863132E-1
5.555219917E0,-1.282439567E-3,7.918099873E-4,3.798319995E-1,3.798349898E-1
5.565175917E0,-2.601048443E-3,-4.738876596E-4,3.823481500E-1,3.823572908E-1
5.575131917E0,-1.186909620E-3,-7.234257646E-4,3.795867264E-1,3.795892714E-1
5.585088917E0,-1.794698648E-3,3.215877339E-3,3.822287023E-1,3.822464436E-1
5.595044917E0,-3.038661089E-3,1.899939962E-4,3.819812834E-1,3.819934168E-1
5.605000917E0,4.330014344E-4,4.591341130E-4,3.801604509E-1,3.801609748E-1
5.614956917E0,6.151616108E-4,8.735666052E-5,3.811410367E-1,3.811415432E-1
5.624912917E0,6.925584748E-4,1.958575565E-3,3.802575469E-1,3.802632215E-1
5.634868917E0,-1.051013358E-3,-3.466564231E-4,3.815014958E-1,3.815031011E-1
5.644824917E0,-1.652904786E-3,-6.292015314E-5,3.811951280E-1,3.811987167E-1
5.654781875E0,1.573248766E-3,-9.734551422E-4,3.836228549E-1,3.836273160E-1
5.664737875E0,1.515678596E-3,2.522841096E-4,3.838912249E-1,3.838942998E-1
5.674693875E0,8.283166680E-4,1.780405641E-3,3.860348165E-1,3.860398108E-1
5.684649875E0,2.836971544E-4,-1.770206727E-4,3.875919282E-1,3.875920725E-1
5.694605875E0,-1.569596585E-3,1.901576295E-3,3.959635794E-1,3.959712563E-1
5.704561875E0,-1.947727054E-3,6.499895826E-4,3.977734745E-1,3.977787741E-1
5.714517875E0,-2.627451904E-4,-1.341256313E-3,4.013069570E-1,4.013092844E-1
5.724474875E0,-4.016554449E-3,-2.903564833E-3,3.997853696E-1,3.998160892E-1
5.734430875E0,-2.778983675E-3,1.055407338E-4,3.985661566E-1,3.985758586E-1
5.744386875E0,-2.555206884E-3,-3.521563020E-3,3.987935185E-1,3.988172525E-1
5.754342875E0,-5.349325947E-4,-1.380914357E-3,3.939628005E-1,3.939655838E-1
5.764298875E0,-1.789228525E-3,6.588874385E-4,3.923330605E-1,3.923376936E-1
5.774254875E0,-3.390587401E-3,8.977730758E-4,3.900158405E-1,3.900316115E-1
5.784211875E0,1.366222277E-4,5.173073150E-4,3.876196742E-1,3.876200435E-1
5.794167875E0,1.520400634E-3,4.408746026E-4,3.865573406E-1,3.865605820E-1
5.804123875E0,-4.742944613E-3,1.390472054E-3,3.884820044E-1,3.885134447E-1
5.814079875E0,-1.223044470E-3,-9.503914043E-5,3.860670626E-1,3.860690116E-1
5.824035875E0,-3.158933017E-3,2.153827343E-3,3.866866231E-1,3.867055240E-1
5.833991875E0,-1.921894960E-3,8.129258640E-4,3.874011636E-1,3.874067837E-1
5.843947875E0,-1.159344334E-3,2.460471354E-3,3.885143697E-1,3.885238905E-1
5.853904875E0,-2.944195177E-3,-1.018416137E-3,3.898371458E-1,3.898495937E-1
5.863860875E0,-2.055792138E-3,2.526193857E-4,3.894225061E-1,3.894280143E-1
5.873816875E0,-1.182275359E-3,-2.275486477E-4,3.909729719E-1,3.909748257E-1
5.883772875E0,-1.945143100E-3,7.807901129E-4,3.908237219E-1,3.908293423E-1
5.893728875E0,2.913794015E-4,1.091314480E-3,3.922975361E-1,3.922991623E-1
5.903684875E0,1.012056135E-3,-5.447696894E-4,3.918263316E-1,3.918280173E-1
5.913640875E0,-3.190944903E-3,3.108554520E-3,3.966722190E-1,3.966972329E-1
5.923597875E0,-1.653258689E-3,1.157033257E-3,3.957831562E-1,3.957883003E-1
5.933553875E0,-3.489774652E-3,-3.071730025E-4,3.931322396E-1,3.931478484E-1
5.943509875E0,-3.620659467E-3,7.778313011E-5,3.897823393E-1,3.897991628E-1
5.953465875E0,-9.788037278E-4,-7.693683729E-4,3.874076009E-1,3.874096013E-1
5.963421875E0,-1.566042192E-3,1.070708968E-3,3.881780803E-1,3.881827159E-1
5.973377875E0,4.430466797E-4,-7.466319948E-4,3.863668740E-1,3.863678494E-1
5.983334875E0,7.166620344E-5,-2.865876071E-3,3.866523802E-1,3.866630077E-1
5.993290875E0,-1.042867079E-3,-1.309765503E-5,3.937547803E-1,3.937561615E-1
6.003246875E0,-2.189221326E-3,5.043516867E-4,3.977054358E-1,3.977117809E-1
6.013202875E0,-3.429188859E-3,-7.398771122E-4,3.990796208E-1,3.990950395E-1
6.023158875E0,3.160010092E-4,-1.243944746E-3,3.988517523E-1,3.988538173E-1
6.033114875E0,-3.112552688E-3,1.904177945E-3,3.978551924E-1,3.978719241E-1
6.043070875E0,-3.548394889E-3,1.279551070E-3,3.939594030E-1,3.939774608E-1
6.053027875E0,-4.553471692E-3,1.771170646E-3,3.896259069E-1,3.896565392E-1
6.062983875E0,-1.941711176E-3,5.805399269E-6,3.878718615E-1,3.878767216E-1
6.072939875E0,-6.937538274E-4,-2.405154053E-3,3.858758211E-1,3.858839403E-1
6.082895875E0,-1.803677063E-3,-3.700737376E-3,3.822610080E-1,3.822831764E-1
6.092851875E0,-1.765860245E-3,-1.310366206E-4,3.839736879E-1,3.839777707E-1
6.102807875E0,-1.370589249E-3,2.084444277E-3,3.892203569E-1,3.892283516E-1
6.112763875E0,-3.683278803E-3,-4.559447989E-4,3.984165192E-1,3.984338053E-1
6.122720875E0,-3.321717493E-3,6.178300828E-4,4.021554589E-1,4.021696516E-1
6.132676875E0,-1.711037941E-3,-1.962506212E-3,3.997799158E-1,3.997883942E-1
6.142632875E0,-1.672341488E-3,1.869020984E-3,3.964700699E-1,3.964780023E-1
6.152588875E0,-7.333112881E-4,-5.587167107E-4,3.902513385E-1,3.902524274E-1
6.162544875E0,-2.362439409E-4,-1.532072201E-3,3.874374926E-1,3.874405938E-1
6.172500875E0,2.676455304E-3,-1.181600615E-3,3.818690777E-1,3.818802850E-1
6.182457875E0,-9.519979358E-5,-7.232297212E-4,3.845833540E-1,3.845840458E-1
6.192413875E0,-2.564749215E-3,-1.842290163E-3,3.905789256E-1,3.905916910E-1
6.202369875E0,1.572999172E-4,-8.829794824E-4,3.941050470E-1,3.941060675E-1
6.212325875E0,-1.393458806E-3,-2.544140443E-5,3.989551961E-1,3.989576305E-1
6.222281875E0,-3.206921276E-3,-1.642968040E-3,3.983123899E-1,3.983286879E-1
6.232237875E0,-1.760291867E-3,-3.508022055E-4,3.958566785E-1,3.958607477E-1
6.242193875E0,-7.645417936E-4,2.114987001E-4,3.926431835E-1,3.926439848E-1
6.252150875E0,-9.309891611E-4,-9.637540206E-4,3.865732849E-1,3.865756073E-1
6.262106875E0,-4.539009184E-3,1.465828158E-3,3.875544071E-1,3.875837583E-1
6.272062875E0,5.857120268E-4,1.463431399E-3,3.881222010E-1,3.881254019E-1
6.282018875E0,-1.782174688E-3,1.119930297E-3,3.885170221E-1,3.885227238E-1
6.291974875E0,-2.129983623E-3,2.075739205E-3,3.955469728E-1,3.955581540E-1
6.301930875E0,-8.029229939E-4,6.710086018E-5,3.954129815E-1,3.954138024E-1
6.311887875E0,-3.578469623E-3,2.825502306E-4,3.914211690E-1,3.914376283E-1
6.321843875E0,1.707957359E-3,1.874997281E-3,3.875190914E-1,3.875273912E-1
6.331799875E0,2.508769976E-3,6.075990386E-4,3.869028389E-1,3.869114497E-1
6.341755875E0,-8.334466256E-4,8.410192095E-4,3.876836300E-1,3.876854381E-1
6.351711875E0,-1.009215135E-3,1.371456310E-4,3.953822851E-1,3.953835969E-1
6.361667875E0,-8.915122598E-4,-1.414599828E-4,4.009793997E-1,4.009804157E-1
6.371623875E0,4.299124703E-5,2.240205184E-3,4.010781944E-1,4.010844529E-1
6.381580875E0,1.431652345E-4,-1.459735911E-3,3.985156417E-1,3.985183409E-1
6.391536875E0,-1.798811834E-3,1.077724155E-3,3.913061619E-1,3.913117805E-1
6.401492875E0,-1.161451917E-3,-1.087104436E-3,3.848114610E-1,3.848147493E-1
6.411448875E0,3.432342783E-4,1.993906219E-3,3.782574236E-1,3.782628346E-1
6.421404875E0,-1.479697879E-3,-1.484591980E-3,3.774789274E-1,3.774847469E-1
6.431360875E0,-3.574540373E-3,-1.135971397E-4,3.875760436E-1,3.875925436E-1
6.441317875E0,-1.955588814E-3,1.953147817E-3,3.945864737E-1,3.945961535E-1
6.451273875E0,-2.900744788E-3,1.311325934E-3,4.025692940E-1,4.025818803E-1
6.461229875E0,-1.008614898E-3,-1.405656803E-3,4.018875957E-1,4.018913195E-1
6.471185875E0,-3.669911996E-3,2.265244257E-3,3.993368149E-1,3.993601023E-1
6.481141875E0,-3.128900658E-3,-7.210401818E-4,3.911900520E-1,3.912032294E-1
6.491097875E0,2.505815355E-3,-1.540494617E-3,3.806982636E-1,3.807096271E-1
6.501053875E0,3.182050772E-3,-8.259341121E-5,3.796657324E-1,3.796790758E-1
6.511010875E0,-4.421453923E-6,-9.028473869E-4,3.801091611E-1,3.801102334E-1
6.520966875E0,-2.001734450E-3,-3.140581306E-3,3.894042671E-1,3.894220762E-1
6.530922875E0,-6.885705981E-3,-1.352268737E-3,4.010127187E-1,4.010741105E-1
6.540878875E0,-1.002765447E-2,1.369742211E-3,4.085373282E-1,4.086626709E-1
6.550834875E0,-6.067001261E-3,6.943643093E-4,4.097309709E-1,4.097764746E-1
6.560790875E0,-4.766852129E-3,-7.757730782E-5,4.074303806E-1,4.074582726E-1
6.570747875E0,-5.122384522E-3,2.548703924E-5,3.958815634E-1,3.959147026E-1
6.580703875E0,-2.079114318E-3,2.813507337E-3,3.859601319E-1,3.859759862E-1
6.590659875E0,1.046371646E-3,2.890639007E-5,3.782521486E-1,3.782535970E-1
6.600615875E0,4.423588980E-4,1.014250796E-3,3.750038743E-1,3.750055068E-1
6.610571875E0,-2.388847526E-3,9.713736363E-4,3.846690059E-1,3.846776498E-1
6.620527875E0,-1.259264536E-4,1.638480462E-4,3.945806921E-1,3.945807462E-1
6.630483875E0,-2.019700594E-3,-2.169613726E-3,4.054197371E-1,4.054305732E-1
6.640440875E0,-3.655616660E-3,-8.727302775E-4,4.095565975E-1,4.095738416E-1
6.650396875E0,-5.849794950E-3,-2.026786096E-4,4.056372344E-1,4.056794636E-1
6.660353542E0,-6.323768757E-4,-2.093613148E-3,3.962449133E-1,3.962509488E-1
6.670309542E0,1.284832601E-3,3.011017106E-4,3.883896470E-1,3.883918889E-1
6.680265542E0,-3.017433919E-4,-2.223951742E-5,3.830603659E-1,3.830604854E-1
6.690221542E0,1.411468023E-3,5.593947135E-4,3.762264252E-1,3.762294887E-1
6.700178542E0,9.947526269E-4,2.029696479E-3,3.819368184E-1,3.819435068E-1
6.710134542E0,2.599839820E-3,-8.995146491E-4,3.893212378E-1,3.893309575E-1
6.720090542E0,-3.933986649E-3,-7.569566369E-4,4.013223946E-1,4.013423895E-1
6.730046542E0,-1.074550673E-3,-2.852864098E-3,4.050465524E-1,4.050580244E-1
6.740002542E0,-2.864975482E-3,-1.435526647E-4,4.088743329E-1,4.088843954E-1
6.749958542E0,-2.937946469E-3,-1.156352926E-3,4.013144374E-1,4.013268572E-1
6.759914542E0,-2.381016966E-3,1.088837162E-4,3.928584456E-1,3.928656760E-1
6.769871542E0,1.483762171E-3,-1.869845204E-3,3.826380372E-1,3.826454826E-1
6.779827542E0,1.265635248E-3,7.180520333E-4,3.783397675E-1,3.783425658E-1
6.789783542E0,4.770732485E-4,1.160669141E-3,3.826572895E-1,3.826593472E-1
6.799739542E0,-1.100579742E-3,-2.389941365E-4,3.905238211E-1,3.905254451E-1
6.809695542E0,-2.534958534E-3,1.058764290E-3,3.998408914E-1,3.998503287E-1
6.819651542E0,-3.510635812E-3,-3.100181930E-4,4.050072134E-1,4.050225470E-1
6.829608542E0,-4.546871409E-3,7.187901065E-5,4.003717303E-1,4.003975545E-1
6.839564542E0,6.223237142E-4,7.791910321E-4,3.927583098E-1,3.927595758E-1
6.849520542E0,-1.524716616E-3,-2.505019307E-3,3.821357489E-1,3.821470011E-1
6.859476542E0,2.886671573E-4,-1.153722405E-4,3.806011677E-1,3.806012946E-1
6.869432542E0,-1.001900993E-3,1.188245136E-3,3.828824162E-1,3.828855709E-1
6.879388542E0,4.633530043E-4,-3.604777157E-4,3.905639946E-1,3.905644359E-1
6.889345542E0,-4.519953858E-3,1.801210456E-3,3.980967402E-1,3.981264735E-1
6.899301542E0,-1.252248883E-3,1.258187462E-3,4.071395397E-1,4.071434096E-1
6.909257542E0,-3.321791533E-3,4.861368798E-4,4.081960022E-1,4.082098074E-1
6.919213542E0,-1.912944485E-3,2.080914564E-3,4.031978548E-1,4.032077624E-1
6.929169542E0,-4.155859351E-3,-9.518931620E-4,3.958456814E-1,3.958686408E-1
6.939125542E0,-1.677200198E-3,2.186552156E-3,3.908520937E-1,3.908618083E-1
6.949081542E0,-2.419956028E-3,9.423233569E-4,3.860999644E-1,3.861086980E-1
6.959038542E0,2.022488043E-4,1.738488674E-3,3.815216124E-1,3.815256269E-1
6.968994542E0,-4.582153633E-4,5.794810131E-4,3.825261593E-1,3.825268726E-1
6.978950542E0,-1.721585169E-3,6.259777583E-4,3.883769512E-1,3.883812714E-1
6.988906542E0,-9.998683818E-4,-4.627224989E-4,3.955903947E-1,3.955919290E-1
6.998862542E0,-1.677497756E-3,-2.686736640E-3,4.028477967E-1,4.028602485E-1
7.008818542E0,-2.169117332E-3,-4.478171468E-4,4.037039876E-1,4.037100633E-1
7.018775542E0,-7.565482520E-4,-5.015339702E-4,3.940680325E-1,3.940690779E-1
7.028731542E0,-3.475369420E-3,1.187442802E-3,3.899206817E-1,3.899379774E-1
7.038687542E0,-7.414007559E-4,-2.222938929E-3,3.840528727E-1,3.840600215E-1
7.048643542E0,-9.994613938E-4,-5.810996518E-4,3.794133961E-1,3.794151575E-1
7.058599542E0,-5.044587888E-4,-1.049225684E-3,3.765122294E-1,3.765140293E-1
7.068555542E0,-7.273652591E-4,-6.745192222E-4,3.861648440E-1,3.861661181E-1
7.078512542E0,-1.028797589E-3,1.030869782E-3,3.956434429E-1,3.956461235E-1
7.088468542E0,-2.644537482E-3,-8.823452517E-4,4.057714641E-1,4.057810410E-1
7.098424542E0,-1.999742351E-3,-1.762062777E-3,4.039870203E-1,4.039958123E-1
7.108380542E0,-6.902660243E-4,-1.694923267E-4,3.992093205E-1,3.992099533E-1
7.118336542E0,-1.682530623E-3,1.193077303E-3,3.924998045E-1,3.925052240E-1
7.128292542E0,-2.025546040E-3,-5.028238520E-4,3.837249577E-1,3.837306332E-1
7.138248542E0,-3.754482605E-4,1.402317081E-3,3.768301308E-1,3.768329271E-1
7.148205542E0,1.106600976E-3,1.461439300E-3,3.804046512E-1,3.804090680E-1
7.158161542E0,2.095680684E-4,1.358741429E-3,3.901166022E-1,3.901190247E-1
7.168117542E0,-3.736643121E-4,-1.013602130E-3,4.002976120E-1,4.002990696E-1
7.178073542E0,-2.274136059E-4,-4.358203150E-4,4.106071889E-1,4.106074832E-1
7.188029542E0,-4.476487637E-3,-7.538017817E-4,4.092788100E-1,4.093039842E-1
7.197985542E0,-5.894708447E-4,-2.313177567E-3,4.031931758E-1,4.032002422E-1
7.207942542E0,-1.888826955E-3,1.413117163E-3,3.954574764E-1,3.954645119E-1
7.217898542E0,1.236735843E-4,-1.542037819E-3,3.845035136E-1,3.845066256E-1
7.227854542E0,1.659784932E-3,9.168591350E-4,3.801670969E-1,3.801718257E-1
7.237810542E0,-3.974376712E-3,1.545479987E-3,3.780852854E-1,3.781093324E-1
7.247766542E0,-9.471615776E-4,2.629386727E-3,3.844206929E-1,3.844308520E-1
7.257722542E0,-1.476756297E-4,-4.159854725E-4,3.925529420E-1,3.925531902E-1
7.267679542E0,-2.616588026E-4,-6.815027446E-4,3.995975554E-1,3.995982222E-1
7.277635542E0,-1.860081218E-3,-1.352595631E-3,4.019814432E-1,4.019880223E-1
7.287591542E0,-2.255827188E-3,-3.855168354E-3,3.954148889E-1,3.954401161E-1
7.297547542E0,-2.388673835E-3,-3.702126909E-3,3.878417015E-1,3.878667257E-1
7.307503542E0,-1.419282984E-3,-1.025383826E-3,3.801621795E-1,3.801662116E-1
7.317459542E0,-1.929921564E-3,-2.871386707E-3,3.840557635E-1,3.840713461E-1
7.327416542E0,-5.365554243E-4,-3.693467006E-4,3.920812011E-1,3.920817422E-1
7.337372542E0,-4.433109425E-4,6.969263777E-4,4.021514654E-1,4.021523136E-1
7.347328542E0,-9.730136953E-4,1.033017412E-3,4.076466560E-1,4.076491262E-1
7.357284542E0,-4.164971877E-3,1.092852559E-3,4.091276228E-1,4.091502818E-1
7.367240542E0,-1.781708561E-3,7.319943979E-4,4.051981270E-1,4.052027054E-1
7.377196542E0,-3.254688345E-3,-1.123593189E-3,3.924556077E-1,3.924707116E-1
7.387152542E0,-3.061609343E-3,5.379039794E-5,3.843513429E-1,3.843635403E-1
7.397109542E0,1.729579875E-3,-1.798338722E-3,3.793348968E-1,3.793431025E-1
7.407065542E0,-6.456933916E-4,-3.865975887E-4,3.827807605E-1,3.827815003E-1
7.417021542E0,1.407689415E-3,-2.789944410E-4,3.868659437E-1,3.868686053E-1
7.426977542E0,-2.737520728E-3,-3.897822462E-4,3.987130225E-1,3.987226106E-1
7.436933542E0,-5.809282884E-4,-2.686092630E-4,4.050329328E-1,4.050334384E-1
7.446889542E0,-3.719463013E-3,-1.056905370E-3,4.094756246E-1,4.094938810E-1
7.456846542E0,-2.729639877E-3,-1.447191462E-4,4.061047733E-1,4.061139726E-1
7.466802542E0,-3.364271019E-3,-1.987810247E-4,3.969666660E-1,3.969809715E-1