"Time (s)","Gyroscope x (rad/s)","Gyroscope y (rad/s)","Gyroscope z (rad/s)","Absolute (rad/s)"
-1.579208332E-3,2.860176028E-4,7.304996252E-4,1.508872360E-1,1.508892754E-1
8.376791669E-3,-9.790182812E-4,3.151107579E-3,1.440375894E-1,1.440753800E-1
1.833279167E-2,-2.335099969E-3,3.404640127E-3,1.427587420E-1,1.428184255E-1
2.828883333E-2,-9.006599430E-4,2.825830132E-3,1.461184025E-1,1.461485000E-1
3.824383334E-2,-1.605598722E-3,6.188685074E-4,1.538117379E-1,1.538213628E-1
4.819983333E-2,-7.502522785E-4,1.829550602E-3,1.540815085E-1,1.540941965E-1
5.815583334E-2,-1.468718983E-5,-1.798048615E-4,1.540213078E-1,1.540214135E-1
6.811183333E-2,-1.116702333E-3,2.108318731E-4,1.502426714E-1,1.502469693E-1
7.806783334E-2,-1.196064521E-3,2.193821594E-3,1.481156051E-1,1.481366798E-1
8.802383333E-2,9.929569205E-4,-1.126745716E-3,1.505676508E-1,1.505751407E-1
9.797883334E-2,-3.468104172E-3,2.112457529E-3,1.485061049E-1,1.485616149E-1
1.079348333E-1,-7.185594877E-4,7.812213153E-4,1.494748443E-1,1.494786129E-1
1.178908333E-1,-1.902600983E-3,1.457930543E-3,1.466087550E-1,1.466283482E-1
1.278468333E-1,2.645373344E-3,9.446851909E-4,1.456352323E-1,1.456623195E-1
1.378028333E-1,2.264541574E-3,1.947898418E-3,1.504065394E-1,1.504361976E-1
1.477578333E-1,1.135944622E-4,1.124930568E-3,1.557332873E-1,1.557373916E-1
1.577138333E-1,2.386336215E-3,8.535543457E-4,1.642074734E-1,1.642270303E-1
1.676698333E-1,-1.218365971E-3,4.280833527E-4,1.596923172E-1,1.596975387E-1
1.776258333E-1,-4.977144999E-4,-7.602190599E-4,1.497307569E-1,1.497335140E-1
1.875818333E-1,-1.621951931E-3,1.750400290E-3,1.423343122E-1,1.423543152E-1
1.975378333E-1,-1.094379812E-3,3.182381857E-3,1.435348690E-1,1.435743147E-1
2.074928333E-1,-1.824425417E-3,4.145184997E-3,1.493760198E-1,1.494446600E-1
2.174488333E-1,-2.224698663E-3,4.905294627E-4,1.533015221E-1,1.533184483E-1
2.274048333E-1,-2.516422421E-3,1.816296019E-3,1.574776322E-1,1.575082091E-1
2.373608333E-1,-3.857324133E-3,2.285811119E-3,1.578555256E-1,1.579191909E-1
2.473168333E-1,-1.171442680E-3,2.892142162E-3,1.479651481E-1,1.479980467E-1
2.572728333E-1,-4.475360271E-3,2.221291885E-3,1.414049715E-1,1.414932117E-1
2.672278333E-1,-2.719651442E-3,2.329579554E-3,1.382924318E-1,1.383387876E-1
2.771838333E-1,-2.566253301E-3,-1.788511872E-4,1.443737596E-1,1.443966763E-1
2.871398333E-1,-1.126255025E-3,1.902779564E-3,1.523155719E-1,1.523316200E-1
2.970958333E-1,-1.235747477E-4,4.195761401E-3,1.585827917E-1,1.586383355E-1
3.070518333E-1,-5.834258161E-3,-1.662550494E-4,1.628408432E-1,1.629454093E-1
3.170078333E-1,-1.596103772E-3,2.933398820E-3,1.571206301E-1,1.571561160E-1
3.269628333E-1,3.333376371E-4,2.489202656E-3,1.488344967E-1,1.488556840E-1
3.369188333E-1,-4.086190602E-4,8.492283523E-4,1.382186115E-1,1.382218243E-1
3.468748333E-1,-4.353845492E-3,3.292321693E-3,1.340391040E-1,1.341502022E-1
3.568308333E-1,-3.180152271E-5,1.764732413E-3,1.398623735E-1,1.398735100E-1
3.667868333E-1,-1.157911611E-3,1.603082754E-3,1.478819251E-1,1.478951467E-1
3.767428333E-1,-2.279368695E-3,2.480061725E-3,1.535792351E-1,1.536161700E-1
3.866978333E-1,-1.033194945E-3,2.933553420E-3,1.587241441E-1,1.587546130E-1
3.966538333E-1,-2.390341833E-3,4.565473646E-4,1.593641043E-1,1.593826838E-1
4.066098333E-1,-8.411880117E-4,4.484878853E-3,1.635459661E-1,1.636096109E-1
4.165658333E-1,-1.292327419E-3,-7.663425058E-4,1.615520567E-1,1.615590431E-1
4.265218333E-1,-3.885235172E-3,1.882142387E-3,1.516313553E-1,1.516927995E-1
4.364768333E-1,-7.174051134E-4,1.238989644E-3,1.400849521E-1,1.400922681E-1
4.464328333E-1,-4.143262748E-3,1.550120302E-3,1.425907016E-1,1.426593063E-1
4.563888333E-1,-5.360110663E-4,8.715465665E-4,1.455260366E-1,1.455296335E-1
4.663448333E-1,-2.145437524E-3,-6.458722055E-6,1.563327909E-1,1.563475118E-1
4.763008333E-1,-2.635193057E-3,2.969090827E-3,1.572819352E-1,1.573320275E-1
4.862568333E-1,-5.190385273E-4,1.541820355E-3,1.619234979E-1,1.619316701E-1
4.962118333E-1,-9.667158592E-4,3.881939687E-3,1.563436538E-1,1.563948275E-1
5.061678333E-1,-3.216145560E-3,1.177362166E-3,1.534509808E-1,1.534891960E-1
5.161238333E-1,-1.974313520E-3,7.134396583E-4,1.486160159E-1,1.486308417E-1
5.260798333E-1,-2.469862346E-3,1.362758689E-3,1.480005383E-1,1.480274187E-1
5.360358333E-1,-1.078893314E-3,-8.908081800E-4,1.498940438E-1,1.499005734E-1
5.459918333E-1,-6.640694337E-4,2.616504207E-3,1.518114209E-1,1.518354195E-1
5.559468333E-1,-2.346388297E-3,2.721698955E-3,1.502782404E-1,1.503211986E-1
5.659028333E-1,-2.959465608E-3,1.612524502E-3,1.494971514E-1,1.495351361E-1
5.758588333E-1,-6.678154459E-4,3.259423189E-3,1.443900019E-1,1.444283299E-1
5.858148333E-1,-1.398072927E-3,3.036084119E-3,1.521466523E-1,1.521833639E-1
5.957708333E-1,-3.362706630E-4,1.562290825E-3,1.550713331E-1,1.550795672E-1
6.057268333E-1,-2.098152880E-3,1.449893229E-3,1.567824185E-1,1.568031606E-1
6.156818333E-1,-1.547410968E-3,9.548114613E-4,1.553858519E-1,1.553964900E-1
6.256378333E-1,-1.517767669E-3,2.182594500E-3,1.474699080E-1,1.474938680E-1
6.355938333E-1,-2.392616123E-3,1.778060570E-3,1.470411420E-1,1.470713553E-1
6.455498333E-1,1.101209666E-3,5.348352715E-4,1.494774967E-1,1.494825098E-1
6.555058333E-1,-2.226143843E-3,2.112612128E-4,1.545233876E-1,1.545395666E-1
6.654618333E-1,-1.360748895E-3,1.525245607E-3,1.581550092E-1,1.581682172E-1
6.754168333E-1,-7.713914383E-4,1.733504236E-3,1.593539715E-1,1.593652669E-1
6.853728333E-1,-2.946933266E-3,2.703578211E-3,1.582290530E-1,1.582795848E-1
6.953288333E-1,-5.591452122E-3,2.954714466E-3,1.525152326E-1,1.526462932E-1
7.052848333E-1,-1.311139786E-3,3.108411096E-3,1.465561539E-1,1.465949779E-1
7.152408333E-1,-1.053878455E-3,7.768133655E-4,1.489276886E-1,1.489334433E-1
7.251968333E-1,-1.679190900E-3,2.525155433E-3,1.498745233E-1,1.499051994E-1
7.351518333E-1,-2.889065072E-3,1.632730477E-3,1.549739391E-1,1.550094652E-1
7.451078333E-1,-2.540058456E-3,3.296462819E-3,1.566499919E-1,1.567052600E-1
7.550638333E-1,1.114597660E-3,1.702294685E-3,1.532709748E-1,1.532844801E-1
7.650198333E-1,-1.810595859E-4,5.818903446E-4,1.501276642E-1,1.501289011E-1
7.749758333E-1,-1.863859361E-4,8.687125519E-4,1.441693753E-1,1.441721130E-1
7.849318333E-1,-2.397569595E-3,1.992932521E-3,1.461479217E-1,1.461811723E-1
7.948868333E-1,-1.608474879E-3,1.380139031E-3,1.514574736E-1,1.514723021E-1
8.048428333E-1,-1.660137321E-3,9.927023202E-4,1.581013352E-1,1.581131674E-1
8.147988333E-1,2.269785036E-4,-1.064323820E-3,1.587500870E-1,1.587538171E-1
8.247548333E-1,4.816136207E-4,3.017969895E-3,1.517157108E-1,1.517464892E-1
8.347108333E-1,-3.061493626E-4,1.077324152E-3,1.468631625E-1,1.468674329E-1
8.446668333E-1,-3.787011374E-4,2.131070942E-4,1.455473751E-1,1.455480238E-1
8.546218333E-1,-2.580336295E-3,2.830462530E-3,1.513400227E-1,1.513884808E-1
8.645778333E-1,1.396863023E-3,1.106569543E-3,1.564049423E-1,1.564150942E-1
8.745338333E-1,-2.670582850E-3,9.358609095E-4,1.633797586E-1,1.634042636E-1
8.844898333E-1,-1.378175104E-3,1.900393516E-3,1.589508057E-1,1.589681398E-1
8.944458333E-1,-1.596021466E-3,5.986411124E-4,1.526111513E-1,1.526206708E-1
9.044018333E-1,-1.152154524E-3,2.984366380E-3,1.484457701E-1,1.484802363E-1
9.143568333E-1,-6.277781213E-4,5.178278312E-3,1.455101669E-1,1.456036309E-1
9.243128333E-1,-2.192243002E-3,2.586501651E-3,1.452559978E-1,1.452955636E-1
9.342688333E-1,4.402918275E-4,3.164233640E-4,1.490810961E-1,1.490820820E-1
9.442248333E-1,-1.780858147E-3,4.083793610E-3,1.519326866E-1,1.519979936E-1
9.541808333E-1,-2.285793424E-3,-2.395818010E-4,1.542576253E-1,1.542747459E-1
9.641368333E-1,-1.605527708E-3,2.970835194E-4,1.554960310E-1,1.555046033E-1
9.740918333E-1,-1.824705862E-3,2.662769519E-3,1.489571631E-1,1.489921351E-1
9.840478333E-1,-1.668420504E-3,1.599212177E-3,1.433369666E-1,1.433555967E-1
9.940038333E-1,-1.083057723E-3,1.735299826E-3,1.450192779E-1,1.450337038E-1
1.003959833E0,-3.592895810E-4,1.616328955E-4,1.474324167E-1,1.474329431E-1
1.013915833E0,-2.596611157E-3,1.994419843E-3,1.489280462E-1,1.489640327E-1
1.023871833E0,-3.749678377E-3,1.219763421E-3,1.518207192E-1,1.518719154E-1
1.033827417E0,-1.034585875E-3,-1.333886757E-4,1.504563838E-1,1.504600000E-1
1.043783417E0,-1.625376754E-4,1.648622565E-3,1.440358460E-1,1.440453724E-1
1.053739417E0,-4.307481460E-3,1.668063924E-3,1.462159157E-1,1.462888609E-1
1.063695417E0,-1.634494052E-3,5.210091826E-3,1.462119073E-1,1.463138355E-1
1.073651417E0,-2.636109013E-3,1.852391288E-4,1.466963291E-1,1.467201294E-1
1.083607417E0,-2.329733688E-4,3.770068754E-3,1.505268514E-1,1.505742365E-1
1.093562417E0,-7.123423275E-4,4.041977692E-3,1.566422731E-1,1.566960329E-1
1.103518417E0,-1.862152363E-3,1.343595795E-3,1.588365585E-1,1.588531560E-1
1.113474417E0,2.894786187E-3,-2.127420157E-5,1.586490721E-1,1.586754811E-1
1.123430417E0,-2.875759266E-3,-3.776038066E-4,1.577726007E-1,1.577992588E-1
1.133386417E0,1.171180164E-3,1.867175102E-3,1.529813111E-1,1.529971880E-1
1.143342417E0,-1.648517093E-3,3.725756891E-3,1.481659263E-1,1.482219302E-1
1.153297417E0,-8.503675926E-4,1.255675219E-3,1.475067884E-1,1.475145839E-1
1.163253417E0,-6.684911205E-4,-8.221995085E-5,1.505121142E-1,1.505136211E-1
1.173209417E0,-2.645089291E-3,3.015568946E-3,1.507842839E-1,1.508376293E-1
1.183165417E0,1.785444329E-4,1.078816131E-4,1.527372897E-1,1.527374321E-1
1.193121417E0,-2.615644131E-3,8.793994784E-4,1.571392268E-1,1.571634548E-1
1.203077417E0,-3.730398137E-3,1.429423690E-3,1.534917951E-1,1.535437732E-1
1.213033417E0,-2.534905216E-3,1.142068766E-3,1.546691805E-1,1.546941675E-1
1.222988417E0,4.663869040E-4,6.940215826E-4,1.528984606E-1,1.529007470E-1
1.232944417E0,-3.631685162E-3,1.002682373E-3,1.528736949E-1,1.529201135E-1
1.242900417E0,-2.832858358E-3,-1.735741273E-3,1.534516811E-1,1.534876423E-1
1.252856417E0,-9.326931322E-4,1.960726455E-3,1.529041380E-1,1.529195533E-1
1.262812417E0,-1.027740189E-3,2.784517594E-3,1.521653384E-1,1.521942837E-1
1.272768417E0,-4.104194231E-4,-9.202053770E-4,1.503636986E-1,1.503670745E-1
1.282723417E0,-3.080107039E-3,1.338846982E-3,1.516960263E-1,1.517332000E-1
1.292679417E0,-7.612924092E-4,2.066955902E-3,1.558684111E-1,1.558839743E-1
1.302635417E0,-8.986876346E-4,1.356028020E-3,1.543062329E-1,1.543148080E-1
1.312591417E0,-2.388459863E-3,1.623675227E-3,1.558554024E-1,1.558821590E-1
1.322547417E0,-1.174535137E-3,2.270064317E-3,1.556996405E-1,1.557206177E-1
1.332503417E0,-4.700560123E-3,2.560348716E-3,1.499267071E-1,1.500222256E-1
1.342458417E0,-1.792534720E-3,8.960450068E-4,1.457055211E-1,1.457193019E-1
1.352414417E0,-1.835411415E-3,9.975954890E-5,1.473627985E-1,1.473742618E-1
1.362370417E0,-9.736062493E-4,-7.119318470E-4,1.481444240E-1,1.481493338E-1
1.372326417E0,-5.212825723E-3,2.173603512E-3,1.534569114E-1,1.535608081E-1
1.382282417E0,1.473562676E-3,6.641363725E-4,1.545426995E-1,1.545511515E-1
1.392238417E0,9.084946942E-5,2.706781495E-3,1.580388993E-1,1.580621037E-1
1.402193417E0,-1.866106060E-3,2.159224823E-4,1.552918702E-1,1.553032322E-1
1.412149417E0,-2.142275684E-3,2.358965576E-4,1.534692049E-1,1.534843375E-1
1.422105417E0,1.467607333E-3,1.543368213E-3,1.478006691E-1,1.478160128E-1
1.432061417E0,-3.116492182E-3,8.706534281E-4,1.470714957E-1,1.471070882E-1
1.442017417E0,-5.377203925E-4,4.044165835E-4,1.489943862E-1,1.489959054E-1
1.451973417E0,-2.701272257E-3,-1.476518810E-5,1.573460698E-1,1.573692561E-1
1.461928417E0,-4.533133004E-3,-1.168570481E-3,1.574562639E-1,1.575258388E-1
1.471884417E0,-2.753342502E-3,-5.403812975E-5,1.579462737E-1,1.579702794E-1
1.481840417E0,-3.344870638E-4,-1.011445187E-3,1.537694782E-1,1.537731684E-1
1.491796417E0,-4.312983248E-3,2.710855566E-3,1.464031786E-1,1.464917788E-1
1.501752417E0,-2.411690773E-3,-2.816133201E-4,1.426752210E-1,1.426958802E-1
1.511708417E0,-3.147788346E-3,1.462224871E-3,1.421274096E-1,1.421697831E-1
1.521663417E0,8.504539146E-4,4.144756123E-3,1.481819302E-1,1.482423243E-1
1.531619417E0,-8.473112248E-4,1.281857491E-3,1.506378949E-1,1.506457317E-1
1.541575417E0,-7.712601218E-4,-4.301713780E-4,1.550417095E-1,1.550442246E-1
1.551531417E0,2.058537211E-4,-3.505432978E-4,1.588628143E-1,1.588633344E-1
1.561487417E0,3.820026759E-4,2.258433960E-3,1.582954079E-1,1.583119787E-1
1.571443417E0,-4.380794708E-3,-1.399950124E-3,1.601870507E-1,1.602530575E-1
1.581398417E0,-1.216838602E-3,2.189166844E-3,1.581016332E-1,1.581214709E-1
1.591354417E0,3.243326209E-4,-1.344049349E-3,1.566430181E-1,1.566491200E-1
1.601310417E0,-2.650982933E-3,5.446393043E-4,1.540642530E-1,1.540880216E-1
1.611266417E0,-1.900504110E-3,1.331070438E-3,1.498756260E-1,1.498935853E-1
1.621222417E0,3.923640470E-4,1.487130299E-3,1.443462670E-1,1.443544606E-1
1.631178417E0,-2.785852179E-3,-4.471233115E-4,1.434061825E-1,1.434339363E-1
1.641133417E0,-2.529075136E-4,9.705219418E-5,1.470124424E-1,1.470126919E-1
1.651089417E0,-1.261446625E-3,1.361255534E-3,1.522831172E-1,1.522944255E-1
1.661045417E0,-3.747561481E-3,6.459560245E-5,1.570152640E-1,1.570599934E-1
1.671001417E0,-1.567764324E-3,-1.452340744E-3,1.594709605E-1,1.594852796E-1
1.680957417E0,-7.754407125E-4,-5.093747750E-4,1.582518518E-1,1.582545714E-1
1.690913417E0,-1.108868630E-3,2.371366601E-3,1.552051902E-1,1.552272657E-1
1.700868417E0,-1.094430918E-4,6.343247369E-4,1.463969499E-1,1.463983650E-1
1.710824417E0,-3.497250378E-3,1.773256809E-4,1.424703896E-1,1.425134173E-1
1.720780417E0,-1.060673152E-3,2.602932975E-3,1.481101364E-1,1.481368043E-1
1.730736417E0,-1.657753834E-3,1.768298447E-3,1.511783749E-1,1.511978044E-1
1.740692417E0,-2.432676964E-3,2.523399889E-4,1.509490758E-1,1.509688878E-1
1.750648417E0,-4.424967337E-4,1.535369083E-4,1.583955437E-1,1.583962362E-1
1.760603417E0,2.767783590E-4,5.244025961E-4,1.603304148E-1,1.603315113E-1
1.770559417E0,-1.377044711E-3,1.493260264E-3,1.554855853E-1,1.554988531E-1
1.780515417E0,-4.471761174E-3,-1.223484054E-3,1.512824893E-1,1.513535105E-1
1.790471417E0,-1.012847526E-3,3.638116643E-3,1.474837512E-1,1.475320935E-1
1.800427417E0,-2.296026796E-3,1.281590201E-3,1.495925933E-1,1.496157017E-1
1.810383417E0,1.281930017E-3,8.594794199E-4,1.517942250E-1,1.518020711E-1
1.820339417E0,-7.772992831E-4,3.564665094E-4,1.543077081E-1,1.543100776E-1
1.830294417E0,-2.144566271E-3,1.350359060E-3,1.579668969E-1,1.579872246E-1
1.840250417E0,-3.229772672E-3,-1.276729628E-3,1.559169143E-1,1.559555887E-1
1.850206417E0,-2.037208993E-3,2.475734800E-5,1.470605731E-1,1.470746851E-1
1.860162417E0,-3.479181323E-3,2.288381569E-3,1.446159780E-1,1.446759223E-1
1.870118417E0,-2.448005136E-3,2.980004530E-3,1.423629373E-1,1.424151645E-1
1.880074417E0,-9.468403878E-4,-1.190323383E-3,1.480528861E-1,1.480606986E-1
1.890029417E0,-1.583602396E-3,-6.620306522E-5,1.533171684E-1,1.533253609E-1
1.899985417E0,-3.609287320E-3,1.236180775E-3,1.560519487E-1,1.560985771E-1
1.909941417E0,-1.835888252E-3,1.230588183E-3,1.541107744E-1,1.541266220E-1
1.919897417E0,5.431811442E-4,-1.181262545E-3,1.560077667E-1,1.560131844E-1
1.929853417E0,-5.591012305E-4,-3.652703017E-4,1.497807652E-1,1.497822541E-1
1.939809417E0,-2.278788015E-3,7.371203974E-4,1.465130448E-1,1.465326193E-1
1.949764417E0,-1.588496496E-3,-1.054122113E-3,1.464129090E-1,1.464253203E-1
1.959720417E0,-1.077124733E-3,-1.756474376E-5,1.489787400E-1,1.489826348E-1
1.969676417E0,-1.365811448E-3,2.282873727E-3,1.529756188E-1,1.529987481E-1
1.979632417E0,-7.628469029E-4,4.296342842E-3,1.564297378E-1,1.564905856E-1
1.989588417E0,-2.627326176E-3,-1.495500095E-3,1.580151170E-1,1.580440337E-1
1.999544417E0,-3.214424243E-3,1.159377396E-3,1.601531655E-1,1.601896160E-1
2.009499417E0,-8.346233517E-4,3.851968795E-4,1.562244743E-1,1.562271786E-1
2.019455417E0,-1.912082662E-3,-5.073193461E-5,1.522193402E-1,1.522313574E-1
2.029410833E0,-1.791974180E-3,2.568624914E-4,1.468027383E-1,1.468138996E-1
2.039366833E0,-1.483165892E-3,1.563886181E-4,1.503048390E-1,1.503122379E-1
2.049322833E0,-4.010239616E-3,5.204426125E-4,1.500124186E-1,1.500669138E-1
2.059278833E0,-1.560898265E-3,-1.927902922E-4,1.524296701E-1,1.524377837E-1
2.069233833E0,-2.070094692E-3,1.751316711E-3,1.517372429E-1,1.517614684E-1
2.079189833E0,-3.226189176E-3,5.917288363E-4,1.529970318E-1,1.530321868E-1
2.089145833E0,-9.057770949E-4,2.124378458E-3,1.541051716E-1,1.541224751E-1
2.099101833E0,-2.071083058E-3,1.615198329E-3,1.541085690E-1,1.541309485E-1
2.109057833E0,3.734324710E-4,-4.423595965E-4,1.552824974E-1,1.552835765E-1
2.119013833E0,-2.054663375E-3,-7.203323767E-4,1.548187733E-1,1.548340824E-1
2.128968833E0,-8.581052534E-4,2.489575651E-3,1.526919752E-1,1.527146805E-1
2.138924833E0,-2.137881704E-3,8.957283571E-4,1.515309513E-1,1.515486788E-1
2.148880833E0,-2.372239949E-3,1.780064777E-4,1.436685026E-1,1.436881966E-1
2.158836833E0,-1.997467829E-3,1.403883100E-3,1.425129175E-1,1.425338291E-1
2.168792833E0,-2.151132328E-3,-6.085541099E-5,1.475841105E-1,1.475997993E-1
2.178748833E0,-1.721624751E-3,1.720859669E-3,1.526245177E-1,1.526439280E-1
2.188704833E0,3.589783562E-3,-1.910093240E-3,1.550772786E-1,1.551305816E-1
2.198659833E0,-4.057232291E-4,3.211823758E-3,1.587232947E-1,1.587563061E-1
2.208615833E0,-7.777668070E-4,-6.654718891E-4,1.575038284E-1,1.575071546E-1
2.218571833E0,-2.839929191E-3,-2.310979180E-3,1.549971253E-1,1.550403646E-1
2.228527833E0,-1.471064519E-3,1.076295041E-3,1.548687518E-1,1.548794780E-1
2.238483833E0,-2.040212043E-3,-8.746879175E-4,1.484662890E-1,1.484828829E-1
2.248439833E0,-1.855921582E-3,1.474486664E-3,1.468082070E-1,1.468273415E-1
2.258394833E0,-6.063407054E-4,-6.723999977E-4,1.487685889E-1,1.487713441E-1
2.268350833E0,-5.323048681E-4,1.077562571E-3,1.543385834E-1,1.543432629E-1
2.278306833E0,-1.914233551E-3,-1.449198462E-3,1.552154422E-1,1.552340103E-1
2.288262833E0,-2.717176452E-3,-5.083037540E-4,1.549778879E-1,1.550025392E-1
2.298218833E0,-6.190725835E-4,2.258982509E-3,1.569213569E-1,1.569388368E-1
2.308174833E0,-2.338409424E-3,1.226209104E-3,1.545223743E-1,1.545449316E-1
2.318129833E0,2.560184803E-4,2.347917762E-3,1.509999186E-1,1.510183885E-1
2.328085833E0,1.446984243E-5,-4.492001608E-4,1.499897838E-1,1.499904571E-1
2.338041833E0,-3.294097027E-3,5.340529606E-4,1.506977528E-1,1.507346974E-1
2.347997833E0,-7.832690608E-4,-1.441213302E-3,1.479680091E-1,1.479771007E-1
2.357953833E0,-2.684817882E-4,6.606848910E-4,1.515064538E-1,1.515081322E-1
2.367909833E0,-4.466156475E-3,8.111530915E-4,1.490779221E-1,1.491470126E-1
2.377864833E0,-2.151167486E-3,4.528785590E-3,1.493409872E-1,1.494251247E-1
2.387820833E0,5.612620153E-4,3.017392009E-5,1.523365229E-1,1.523375599E-1
2.397776833E0,-1.150382217E-3,1.822334714E-3,1.552343518E-1,1.552493100E-1
2.407732833E0,1.958456123E-4,1.701426692E-3,1.563968211E-1,1.564061983E-1
2.417688833E0,-1.271682675E-3,-1.552887261E-3,1.535439342E-1,1.535570525E-1
2.427644833E0,-2.570506651E-3,-2.527870238E-3,1.516445726E-1,1.516874221E-1
2.437600833E0,-8.244718192E-4,1.589379273E-3,1.481613070E-1,1.481721255E-1
2.447555833E0,-9.640216595E-4,3.525230568E-3,1.491703689E-1,1.492151318E-1
2.457511833E0,2.594914753E-3,2.173081972E-3,1.518397778E-1,1.518774967E-1
2.467467833E0,3.362878924E-4,1.590382308E-3,1.572811455E-1,1.572895455E-1
2.477423833E0,-2.273189602E-3,-7.928758860E-4,1.579747647E-1,1.579931085E-1
2.487379833E0,-1.684364630E-3,-1.248542219E-3,1.570237428E-1,1.570377399E-1
2.497335833E0,-2.560189692E-3,2.623801120E-3,1.527562290E-1,1.528002108E-1
2.507290833E0,7.341404562E-4,4.828860983E-4,1.453017741E-1,1.453044311E-1
2.517246833E0,-2.365277149E-3,6.403466687E-4,1.431249082E-1,1.431458834E-1
2.527202833E0,-3.012691624E-3,6.696861237E-5,1.418308765E-1,1.418628856E-1
2.537158833E0,-2.891495358E-3,-1.769136637E-3,1.460982561E-1,1.461375757E-1
2.547114833E0,-3.209743183E-3,3.199256491E-3,1.494088322E-1,1.494775462E-1
2.557070833E0,-1.419002889E-3,7.070908323E-4,1.548238397E-1,1.548319569E-1
2.567025833E0,-1.511414768E-3,-9.778914973E-4,1.545702964E-1,1.545807788E-1
2.576981833E0,-8.722917410E-4,1.286996529E-3,1.566152871E-1,1.566230040E-1
2.586937833E0,-1.974840183E-3,1.413230784E-3,1.586944163E-1,1.587129956E-1
2.596893833E0,-2.423638944E-3,-1.802854240E-5,1.512135863E-1,1.512330091E-1
2.606849833E0,9.654996684E-4,7.590819150E-4,1.505174339E-1,1.505224445E-1
2.616805833E0,-2.334227320E-3,-1.756133512E-3,1.464343965E-1,1.464635282E-1
2.626761833E0,-1.629022416E-3,8.468404412E-4,1.519450098E-1,1.519561018E-1
2.636716833E0,-4.119656514E-4,1.542884856E-3,1.539340913E-1,1.539423746E-1
2.646672833E0,5.084227887E-4,2.248678356E-5,1.548102647E-1,1.548111012E-1
2.656628833E0,-1.547391177E-3,1.124768518E-3,1.548974216E-1,1.549092339E-1
2.666584833E0,-2.357258461E-3,5.380744115E-4,1.542926133E-1,1.543115572E-1
2.676540833E0,-3.999500535E-3,1.552515663E-3,1.484657973E-1,1.485277728E-1
2.686496833E0,-3.494831501E-3,-8.488567546E-4,1.515484154E-1,1.515910836E-1
2.696451833E0,3.996392479E-4,3.730524331E-4,1.491647214E-1,1.491657232E-1
2.706407833E0,-2.190284897E-3,4.329737276E-4,1.458679885E-1,1.458850742E-1
2.716363833E0,-7.489459822E-4,4.878817126E-4,1.448840499E-1,1.448868071E-1
2.726319833E0,-6.051353412E-4,1.018648967E-3,1.453884542E-1,1.453932820E-1
2.736275833E0,-7.147128927E-4,-8.887192234E-4,1.493757069E-1,1.493800604E-1
2.746231833E0,-4.968662979E-4,-1.230669208E-3,1.521744132E-1,1.521802006E-1
2.756186833E0,-1.046200050E-3,4.403871018E-3,1.531245857E-1,1.531914729E-1
2.766142833E0,-1.038476825E-3,1.979329623E-3,1.540399194E-1,1.540561357E-1
2.776098833E0,1.110035344E-3,-1.104306430E-4,1.550102532E-1,1.550142670E-1
2.786054833E0,1.501786406E-3,6.688106805E-4,1.545559168E-1,1.545646599E-1
2.796010833E0,7.403458585E-4,2.865120769E-5,1.482192576E-1,1.482211093E-1
2.805966833E0,-3.150649136E-4,-4.525817931E-4,1.450136006E-1,1.450146491E-1
2.815922833E0,-2.246043412E-3,5.126353353E-4,1.423933208E-1,1.424119564E-1
2.825877833E0,-2.034854610E-3,8.271550760E-4,1.454373151E-1,1.454539014E-1
2.835833833E0,-2.994648647E-3,4.659220576E-5,1.512461901E-1,1.512758411E-1
2.845789833E0,-2.162943361E-3,9.078579023E-4,1.554782093E-1,1.554959038E-1
2.855745833E0,1.191804535E-3,9.106732905E-4,1.570078433E-1,1.570150075E-1
2.865701833E0,5.973869702E-4,1.552761532E-3,1.619416177E-1,1.619501636E-1
2.875657833E0,-2.174289897E-3,8.493382484E-4,1.583432555E-1,1.583604606E-1
2.885612833E0,-1.287159976E-4,3.127111122E-4,1.533873826E-1,1.533877554E-1
2.895568833E0,7.941727526E-4,-1.529725268E-3,1.447571218E-1,1.447673827E-1
2.905524833E0,-1.011184184E-3,1.872462220E-3,1.448620558E-1,1.448776857E-1
2.915480833E0,-2.394630574E-3,3.999760374E-4,1.481405646E-1,1.481604573E-1
2.925436833E0,-2.626591828E-3,1.322494820E-3,1.526538283E-1,1.526821511E-1
2.935392833E0,-1.152890734E-3,-5.765510723E-4,1.555954963E-1,1.556008356E-1
2.945347833E0,-2.068485599E-3,2.935092896E-3,1.522447020E-1,1.522870404E-1
2.955303833E0,-2.251606900E-3,8.125947788E-4,1.507045478E-1,1.507235574E-1
2.965259833E0,-2.465724945E-3,1.124450937E-3,1.515751332E-1,1.515993575E-1
2.975215833E0,-3.368635662E-3,1.470274292E-3,1.496942937E-1,1.497394103E-1
2.985171833E0,-2.353971824E-3,6.659999490E-4,1.554903984E-1,1.555096419E-1
2.995127833E0,-2.479526680E-3,4.292232916E-4,1.545936912E-1,1.546141703E-1
3.005083833E0,-2.782328054E-3,1.244417392E-3,1.546104699E-1,1.546405100E-1
3.015038833E0,-2.563640475E-3,1.283996738E-3,1.493875086E-1,1.494150215E-1
3.024994833E0,-1.438454841E-3,7.252655923E-4,1.495299786E-1,1.495386561E-1
3.034950542E0,-1.275072689E-3,1.625087112E-3,1.475184262E-1,1.475328871E-1
3.044906542E0,-2.848201897E-3,-5.464544520E-4,1.506037116E-1,1.506316329E-1
3.054862542E0,-1.144806738E-3,3.039781936E-3,1.516655982E-1,1.517003775E-1
3.064818542E0,-1.881969743E-3,1.136421226E-3,1.540451199E-1,1.540608069E-1
3.074773542E0,-2.786436118E-3,-8.901674300E-4,1.546769887E-1,1.547046459E-1
3.084729542E0,-1.245264662E-3,1.314130612E-3,1.524039805E-1,1.524147332E-1
3.094685542E0,3.369256156E-4,5.056913942E-4,1.489385515E-1,1.489397911E-1
3.104641542E0,-2.188550076E-3,2.460184973E-3,1.516043842E-1,1.516401384E-1
3.114597542E0,-2.012553625E-3,-5.976436660E-4,1.525631845E-1,1.525776288E-1
3.124553542E0,-3.187007736E-3,-5.646198988E-4,1.537690610E-1,1.538031207E-1
3.134509542E0,-9.361343691E-4,2.232648898E-3,1.522400081E-1,1.522592563E-1
3.144464542E0,-1.638676156E-3,4.460649099E-3,1.514226943E-1,1.514972442E-1
3.154420542E0,-1.554840477E-3,4.806518555E-4,1.438449472E-1,1.438541532E-1
3.164376542E0,-3.881095909E-4,1.135256141E-3,1.456401944E-1,1.456451361E-1
3.174332542E0,-3.113429993E-4,1.188710332E-3,1.475894004E-1,1.475945158E-1
3.184288542E0,-3.516190918E-3,-4.099858925E-4,1.543873847E-1,1.544279645E-1
3.194244542E0,-4.134898772E-4,1.063176431E-3,1.555900723E-1,1.555942541E-1
3.204199542E0,-1.016962109E-3,1.782762818E-3,1.588449776E-1,1.588582367E-1
3.214155542E0,-1.984867267E-4,1.310523599E-3,1.569843143E-1,1.569899099E-1
3.224111542E0,-8.556875400E-5,1.076964661E-3,1.524508148E-1,1.524546428E-1
3.234067542E0,-2.282052767E-3,2.028998919E-3,1.520094275E-1,1.520400956E-1
3.244023542E0,-2.217072062E-3,-3.467232920E-3,1.471496969E-1,1.472072363E-1
3.253979542E0,-1.079046633E-4,7.348116487E-4,1.518730372E-1,1.518748532E-1
3.263935542E0,1.342452830E-3,-3.136750311E-4,1.568507403E-1,1.568567987E-1
3.273890542E0,-1.253796509E-3,2.129559405E-3,1.564344317E-1,1.564539499E-1
3.283846542E0,-2.400021069E-3,-1.217502169E-3,1.554887444E-1,1.555120318E-1
3.293802542E0,-3.100091591E-3,8.884845302E-4,1.523064971E-1,1.523406349E-1
3.303758542E0,1.225995366E-4,6.048576906E-4,1.500883400E-1,1.500896089E-1
3.313714542E0,-2.139510121E-3,3.774603829E-4,1.484131068E-1,1.484290074E-1
3.323670542E0,-1.638569520E-3,1.116754487E-3,1.513276696E-1,1.513406609E-1
3.333625542E0,-3.872202942E-4,4.599345848E-4,1.548201591E-1,1.548213265E-1
3.343581542E0,-3.747034352E-4,3.590006381E-4,1.559629291E-1,1.559637924E-1
3.353537542E0,-4.714108072E-4,1.910002902E-3,1.525059640E-1,1.525186527E-1
3.363493542E0,-1.068757847E-3,2.025584690E-3,1.455066353E-1,1.455246582E-1
3.373449542E0,-3.286175430E-3,3.084585071E-3,1.427555978E-1,1.428267283E-1
3.383405542E0,-1.618238050E-3,2.247819677E-3,1.413337290E-1,1.413608657E-1
3.393361542E0,-1.911434694E-3,-3.462387249E-4,1.457498521E-1,1.457627965E-1
3.403316542E0,1.058788970E-3,-6.580948830E-4,1.533350646E-1,1.533401323E-1
3.413272542E0,-3.211197909E-3,-1.373241656E-3,1.550433189E-1,1.550826499E-1
3.423228542E0,-2.232752740E-3,1.846786588E-3,1.606926769E-1,1.607187986E-1
3.433184542E0,5.578976707E-4,-2.931524068E-5,1.614518315E-1,1.614527980E-1
3.443140542E0,5.160860601E-4,8.732294664E-4,1.599426121E-1,1.599458284E-1
3.453096542E0,-1.749454881E-3,1.089026220E-3,1.528546959E-1,1.528685862E-1
3.463051542E0,3.552412381E-4,1.785176806E-3,1.420659572E-1,1.420776170E-1
3.473007542E0,4.772348329E-4,-5.792453885E-4,1.413480937E-1,1.413500863E-1
3.482963542E0,-1.492439071E-3,-9.588245302E-5,1.424591690E-1,1.424670187E-1
3.492919542E0,-2.271713223E-3,3.143512644E-3,1.474689543E-1,1.475199473E-1
3.502875542E0,-6.466523046E-4,1.646283083E-3,1.541095525E-1,1.541197021E-1
3.512831542E0,2.914611716E-3,-4.013190046E-4,1.579999626E-1,1.580273527E-1
3.522787542E0,-3.562826896E-4,2.133743837E-3,1.564449370E-1,1.564598930E-1
3.532742542E0,-3.647592850E-3,2.140141092E-3,1.581420153E-1,1.581985529E-1
3.542698542E0,-3.203643952E-3,1.588334329E-3,1.572091132E-1,1.572497740E-1
3.552654542E0,4.878940526E-4,-1.429184340E-3,1.503920257E-1,1.503996077E-1
3.562610542E0,-1.027444727E-3,-4.274304956E-5,1.458145827E-1,1.458182087E-1
3.572566542E0,-4.138185177E-4,3.317610826E-3,1.399368495E-1,1.399767825E-1
3.582522542E0,-3.058071015E-3,8.419360965E-4,1.459585130E-1,1.459929730E-1
3.592478542E0,-1.373420702E-3,4.668971524E-4,1.503693014E-1,1.503762983E-1
3.602433542E0,-1.957984641E-3,-2.843802795E-4,1.534665674E-1,1.534793207E-1
3.612389542E0,6.484687910E-4,1.432974823E-3,1.559949070E-1,1.560028363E-1
3.622345542E0,-1.928139594E-3,-4.067365080E-4,1.585984081E-1,1.586106497E-1
3.632301542E0,-8.321134374E-5,-1.528861932E-3,1.557317227E-1,1.557392494E-1
3.642257542E0,2.430258319E-4,-1.490777358E-4,1.455864161E-1,1.455866953E-1
3.652213542E0,5.842186511E-6,3.030194901E-3,1.441363841E-1,1.441682328E-1
3.662168542E0,-8.184062317E-4,2.862682100E-3,1.466125995E-1,1.466428282E-1
3.672124542E0,-1.979943598E-3,1.338674687E-3,1.485307664E-1,1.485499942E-1
3.682080542E0,-3.073969856E-3,5.423184484E-5,1.565306336E-1,1.565608236E-1
3.692036542E0,1.866315491E-3,1.687564887E-3,1.546162963E-1,1.546367682E-1
3.701992542E0,-4.959632643E-3,-5.140695721E-4,1.560133845E-1,1.560930439E-1
3.711948542E0,-2.635719022E-3,-5.376897752E-4,1.567430496E-1,1.567661307E-1
3.721904542E0,-1.655409578E-3,4.287706688E-4,1.492142975E-1,1.492240960E-1
3.731859542E0,-8.130669594E-4,1.251667738E-3,1.439592838E-1,1.439670211E-1
3.741815542E0,-6.239823997E-4,1.247673295E-3,1.451835334E-1,1.451902353E-1
3.751771542E0,-3.339094110E-4,6.448775530E-4,1.518565118E-1,1.518582482E-1
3.761727542E0,-1.384526491E-3,1.217457466E-3,1.539633423E-1,1.539743806E-1
3.771683542E0,-3.953037085E-4,1.447791234E-3,1.600481421E-1,1.600551784E-1
3.781639542E0,-1.231536269E-3,2.226792276E-6,1.623142213E-1,1.623188933E-1
3.791595542E0,-2.729499480E-3,1.117378473E-3,1.559729725E-1,1.560008553E-1
3.801550542E0,-7.715437096E-4,-6.182035431E-4,1.499686092E-1,1.499718680E-1
3.811506542E0,-6.475062110E-4,6.473911926E-4,1.425156295E-1,1.425185709E-1
3.821462542E0,5.623679608E-4,1.621637493E-4,1.440368295E-1,1.440380186E-1
3.831418542E0,-1.163162291E-3,1.176703721E-3,1.486890614E-1,1.486982668E-1
3.841374542E0,-8.576977998E-4,5.444698036E-5,1.557914466E-1,1.557938171E-1
3.851330542E0,-8.377067279E-4,2.033053897E-3,1.615484953E-1,1.615634593E-1
3.861285542E0,1.697671833E-4,-1.371558756E-4,1.604816318E-1,1.604817802E-1
3.871241542E0,-3.011533059E-3,-1.913494430E-3,1.573434770E-1,1.573839272E-1
3.881197542E0,-3.876794130E-3,-5.054809153E-4,1.480804682E-1,1.481320698E-1
3.891153542E0,5.599064752E-5,1.426688395E-3,1.435893774E-1,1.435964759E-1
3.901109542E0,-2.724083140E-3,-2.684136853E-4,1.462000608E-1,1.462256833E-1
3.911065542E0,-1.197785023E-3,1.941410825E-3,1.534672827E-1,1.534842357E-1
3.921021542E0,-1.093122759E-3,-1.574761234E-3,1.558841020E-1,1.558958885E-1
3.930976542E0,-1.400138717E-3,2.274194267E-3,1.583145261E-1,1.583370504E-1
3.940932542E0,-1.199336490E-3,1.202537678E-3,1.596231908E-1,1.596322259E-1
3.950888542E0,-4.827390658E-4,1.258952543E-4,1.541697830E-1,1.541705902E-1
3.960844542E0,1.768164686E-3,1.687040552E-3,1.484727412E-1,1.484928530E-1
3.970800542E0,-1.963135088E-3,8.455570787E-4,1.477518678E-1,1.477673282E-1
3.980756542E0,-1.200405648E-3,-6.846953183E-4,1.480485499E-1,1.480549996E-1
3.990712542E0,-3.593605943E-3,3.764219582E-5,1.516898274E-1,1.517323933E-1
4.000667542E0,8.149910136E-4,2.088835463E-4,1.536882669E-1,1.536905697E-1
4.010623542E0,-3.415900283E-3,2.364180982E-4,1.509149671E-1,1.509538060E-1
4.020579542E0,-1.780187129E-3,1.386795193E-4,1.484230459E-1,1.484337861E-1
4.030535917E0,-2.084124368E-3,9.045572951E-4,1.474254429E-1,1.474429484E-1
4.040491917E0,-1.839380129E-3,1.021736301E-3,1.477761865E-1,1.477911653E-1
4.050447917E0,5.758676562E-4,6.419392303E-4,1.525561363E-1,1.525585737E-1
4.060402917E0,-2.126974519E-3,2.187630162E-4,1.533785164E-1,1.533934196E-1
4.070358917E0,5.860418896E-4,6.840247661E-4,1.525402516E-1,1.525429110E-1
4.080314917E0,-2.142899204E-3,-1.754898578E-3,1.455590427E-1,1.455853928E-1
4.090270917E0,-1.152821467E-3,4.428150132E-4,1.477254629E-1,1.477306247E-1
4.100226917E0,-4.206135403E-3,2.843921538E-3,1.480964422E-1,1.481834527E-1
4.110182917E0,-2.132267226E-3,1.159845851E-3,1.537082940E-1,1.537274584E-1
4.120138917E0,2.360818908E-4,2.900576219E-4,1.552939415E-1,1.552943918E-1
4.130093917E0,-8.270912804E-5,1.892495900E-3,1.588982642E-1,1.589095552E-1
4.140049917E0,4.856094019E-4,7.641138509E-4,1.566715986E-1,1.566742145E-1
4.150005917E0,-8.501235861E-4,1.067122445E-3,1.541302651E-1,1.541363036E-1
4.159961917E0,3.744361922E-3,-1.337445341E-3,1.476156414E-1,1.476691795E-1
4.169917917E0,-7.080974756E-4,1.132052392E-3,1.434992403E-1,1.435054525E-1
4.179873917E0,-4.620547406E-3,2.769110724E-4,1.429152042E-1,1.429901455E-1
4.189829917E0,9.404372540E-4,7.898630574E-4,1.463647485E-1,1.463699009E-1
4.199784917E0,-1.626317273E-3,-1.899134368E-4,1.527241170E-1,1.527328940E-1
4.209740917E0,2.225709613E-4,1.397892833E-3,1.581248045E-1,1.581311400E-1
4.219696917E0,-2.984673949E-3,-4.809675738E-4,1.616159379E-1,1.616442112E-1
4.229652917E0,-4.763763864E-4,2.383989282E-3,1.633600891E-1,1.633781780E-1
4.239608917E0,-3.360579954E-3,1.691301353E-3,1.543578058E-1,1.544036471E-1
4.249564917E0,6.867941120E-4,-1.518877223E-3,1.469193697E-1,1.469288259E-1
4.259520917E0,-1.942278584E-3,3.191722091E-3,1.377873868E-1,1.378380335E-1
4.269475917E0,2.458685543E-3,5.172835663E-4,1.420368552E-1,1.420590756E-1
4.279431917E0,-2.556082327E-4,-1.374625601E-3,1.469599754E-1,1.469666264E-1
4.289387917E0,-3.180356696E-3,2.654524986E-3,1.560329944E-1,1.560879768E-1
4.299343917E0,-1.687921351E-3,-4.696287215E-4,1.600370556E-1,1.600466457E-1
4.309299917E0,1.610958832E-3,5.915407091E-4,1.628538221E-1,1.628628640E-1
4.319255917E0,-3.173942678E-3,-1.981072128E-3,1.597171426E-1,1.597609595E-1
4.329211917E0,-2.565874718E-3,-7.931143045E-5,1.505225152E-1,1.505444040E-1
4.339166917E0,-3.362763673E-4,1.341751777E-3,1.447495818E-1,1.447561909E-1
4.349122917E0,2.928351751E-4,1.102240756E-3,1.432536989E-1,1.432582387E-1
4.359078917E0,1.496051322E-3,5.215685815E-5,1.457815617E-1,1.457892473E-1
4.369034917E0,2.792486921E-4,-5.498202518E-4,1.540982425E-1,1.540994764E-1
4.378990917E0,-3.868078347E-4,1.761537045E-3,1.570482254E-1,1.570585806E-1
4.388946917E0,-7.159281522E-4,1.131625846E-3,1.594870836E-1,1.594927050E-1
4.398902917E0,-1.061606454E-3,-6.383107975E-4,1.594846845E-1,1.594894950E-1
4.408857917E0,5.491125630E-4,5.853893235E-4,1.555325091E-1,1.555345800E-1
4.418813917E0,-5.973783555E-4,-7.336735725E-4,1.519500166E-1,1.519529621E-1
4.428769917E0,9.568949463E-4,1.034352928E-3,1.505798846E-1,1.505864775E-1
4.438725917E0,-2.869268646E-3,-8.333213627E-4,1.505974680E-1,1.506271041E-1
4.448681917E0,-1.897069160E-3,6.967866793E-4,1.504427344E-1,1.504563083E-1
4.458637917E0,-5.931854248E-4,-9.112302214E-4,1.518454254E-1,1.518493181E-1
4.468593917E0,1.421123277E-3,2.268166747E-3,1.538734287E-1,1.538967064E-1
4.478548917E0,-8.438951336E-4,-8.043227717E-4,1.510771066E-1,1.510816045E-1
4.488504917E0,-1.614598907E-3,2.101705875E-3,1.534046531E-1,1.534275454E-1
4.498460917E0,-9.304328123E-4,1.414343715E-3,1.540059894E-1,1.540152942E-1
4.508416917E0,-1.510623842E-3,-1.274328679E-4,1.524966210E-1,1.525041562E-1
4.518372917E0,-1.847513719E-3,9.791105986E-4,1.521243155E-1,1.521386845E-1
4.528328917E0,-1.296865521E-3,1.406144351E-3,1.502712816E-1,1.502834561E-1
4.538284917E0,-4.348002840E-4,-2.596620470E-4,1.507091075E-1,1.507099584E-1
4.548239917E0,6.804403383E-4,2.222315874E-3,1.531922221E-1,1.532098515E-1
4.558195917E0,1.667165197E-4,3.367741127E-3,1.559094489E-1,1.559459064E-1
4.568151917E0,-3.442810616E-3,1.931039616E-3,1.557347327E-1,1.557847516E-1
4.578107917E0,9.383556317E-4,1.791755669E-3,1.564234346E-1,1.564365104E-1
4.588063917E0,-1.799493795E-3,6.686421111E-4,1.507048458E-1,1.507170720E-1
4.598019917E0,9.542148327E-4,2.279588487E-3,1.498299986E-1,1.498503772E-1
4.607975917E0,-1.080431626E-3,2.247110475E-3,1.500121951E-1,1.500329148E-1
4.617930917E0,-4.609803436E-4,-1.364402473E-3,1.528844237E-1,1.528912068E-1
4.627886917E0,-6.797518581E-4,-7.545659319E-4,1.536393166E-1,1.536426732E-1
4.637842917E0,-7.303548045E-6,2.281405032E-4,1.547895372E-1,1.547897055E-1
4.647798917E0,-1.922329189E-3,1.162913628E-3,1.487997621E-1,1.488167226E-1
4.657754917E0,6.678584032E-5,-7.367189974E-4,1.423946023E-1,1.423965238E-1
4.667710917E0,-1.140863635E-3,2.684918698E-3,1.441589743E-1,1.441884885E-1
4.677666917E0,6.927228533E-4,3.969967365E-4,1.450458169E-1,1.450480144E-1
4.687621917E0,-2.401480917E-3,6.358502433E-4,1.522617638E-1,1.522820283E-1
4.697577917E0,-2.115457319E-3,1.556239091E-3,1.562772840E-1,1.562993491E-1
4.707533917E0,-1.973144710E-3,1.387415454E-3,1.562364995E-1,1.562551184E-1
4.717489917E0,-2.359569538E-3,-1.438731328E-3,1.578778028E-1,1.579019891E-1
4.727445917E0,7.251114585E-4,1.011401415E-3,1.494802982E-1,1.494854784E-1
4.737401917E0,-1.909287414E-3,4.100603983E-4,1.436730176E-1,1.436862886E-1
4.747357917E0,-1.823860686E-3,9.815581143E-4,1.429340690E-1,1.429490749E-1
4.757312917E0,6.028118078E-4,1.206595451E-3,1.456459612E-1,1.456522065E-1
4.767268917E0,-4.654421937E-4,-3.623105586E-4,1.525484920E-1,1.525496323E-1
4.777224917E0,-3.626442049E-4,6.733927876E-4,1.589904130E-1,1.589922526E-1
4.787180917E0,-1.823729021E-3,1.094050705E-3,1.607586890E-1,1.607727559E-1
4.797136917E0,-2.942789346E-3,8.754050359E-4,1.601679921E-1,1.601974158E-1
4.807092917E0,-1.873857225E-3,-1.341749914E-3,1.511959136E-1,1.512134779E-1
4.817048917E0,-8.919498650E-4,2.579221968E-3,1.422540843E-1,1.422802603E-1
4.827003917E0,-6.610879209E-4,7.462315261E-5,1.448144019E-1,1.448159300E-1
4.836959917E0,-9.180828929E-4,1.819792204E-3,1.496200860E-1,1.496339689E-1
4.846915917E0,-2.791440580E-3,-2.225616015E-3,1.563604325E-1,1.564011840E-1
4.856871917E0,-1.169309253E-3,-2.930779010E-5,1.585894972E-1,1.585938106E-1
4.866827917E0,-3.416689578E-3,1.486912370E-4,1.608523279E-1,1.608886798E-1
4.876783917E0,-6.217024056E-4,-7.927361876E-4,1.587931663E-1,1.587963621E-1
4.886739917E0,-3.231884912E-4,2.412926871E-3,1.509489417E-1,1.509685718E-1
4.896694917E0,1.867527724E-3,3.250092268E-4,1.444175392E-1,1.444299793E-1
4.906650917E0,-3.334827488E-4,1.150514930E-3,1.477645934E-1,1.477694486E-1
4.916606917E0,-1.593956957E-3,2.447739244E-4,1.536094248E-1,1.536178896E-1
4.926562917E0,-4.587486386E-3,-1.354233362E-3,1.611367166E-1,1.612076934E-1
4.936518917E0,-5.160457222E-4,-1.118010841E-3,1.619266123E-1,1.619312941E-1
4.946474917E0,-3.055072855E-3,-1.715424471E-3,1.546539664E-1,1.546936504E-1
4.956430917E0,-1.666086027E-4,1.979711931E-3,1.490778327E-1,1.490910702E-1
4.966386917E0,-8.293396095E-4,1.674278639E-3,1.417353600E-1,1.417476747E-1
4.976341917E0,-1.909251208E-3,9.080870077E-4,1.422765106E-1,1.422922181E-1
4.986297917E0,8.530786727E-5,-5.820812657E-4,1.464377493E-1,1.464389310E-1
4.996253917E0,-1.063579926E-3,1.729808748E-3,1.545843482E-1,1.545976848E-1
5.006209917E0,-1.402402646E-3,1.133861020E-3,1.600378305E-1,1.600479914E-1
5.016165917E0,-2.774197143E-3,9.983060881E-4,1.618679613E-1,1.618948105E-1
5.026121917E0,-2.949833404E-3,-2.838457003E-3,1.600880027E-1,1.601403352E-1
5.036077542E0,-4.768223735E-4,1.129119657E-3,1.506364346E-1,1.506414209E-1
5.046032542E0,-1.859196112E-3,1.652191393E-3,1.422923207E-1,1.423140572E-1
5.055988542E0,-2.260268200E-3,6.713494658E-4,1.436790228E-1,1.436983685E-1
5.065944542E0,-9.764517890E-4,-2.692118287E-4,1.505662352E-1,1.505696421E-1
5.075900542E0,-1.245963736E-3,1.852528192E-3,1.553751081E-1,1.553911468E-1
5.085856542E0,-2.640259685E-3,-1.877462491E-3,1.588137150E-1,1.588467560E-1
5.095812542E0,-2.521482529E-3,1.099685207E-3,1.575772166E-1,1.576012258E-1
5.105768542E0,-1.214908203E-3,3.069237806E-3,1.541167945E-1,1.541521409E-1
5.115723542E0,-5.411284510E-4,-2.288213000E-4,1.536384970E-1,1.536396203E-1
5.125679542E0,-2.012509387E-3,-7.393294945E-4,1.456030011E-1,1.456187857E-1
5.135635542E0,3.892346285E-5,3.197355196E-3,1.451875567E-1,1.452227642E-1
5.145591542E0,-4.215050489E-3,6.864452735E-4,1.481227875E-1,1.481843380E-1
5.155547542E0,-1.135157654E-4,2.664644271E-4,1.504344046E-1,1.504346834E-1
5.165503542E0,-1.075732755E-3,-5.553932860E-4,1.535661817E-1,1.535709537E-1
5.175459542E0,4.161699908E-4,9.500915185E-4,1.562043130E-1,1.562077568E-1
5.185414542E0,-2.224839991E-4,3.226278350E-4,1.565010846E-1,1.565015753E-1
5.195370542E0,-2.576984465E-3,-5.711289123E-4,1.521457583E-1,1.521686525E-1
5.205326542E0,-1.204782049E-3,1.137745567E-3,1.511680484E-1,1.511771306E-1
5.215282542E0,-2.289221156E-3,1.958797686E-3,1.498966515E-1,1.499269274E-1
5.225238542E0,-7.453215076E-4,2.509903628E-3,1.456628293E-1,1.456863582E-1
5.235194542E0,-8.457227377E-4,1.566345803E-3,1.481377035E-1,1.481483982E-1
5.245150542E0,-1.956901047E-3,-1.264080405E-3,1.492174119E-1,1.492355969E-1
5.255106542E0,-3.161715344E-3,-1.625738107E-3,1.467132419E-1,1.467563110E-1
5.265061542E0,-1.031488762E-3,-5.929712206E-4,1.506438404E-1,1.506485388E-1
5.275017542E0,-1.840290730E-3,-1.937625930E-4,1.507215947E-1,1.507329537E-1
5.284973542E0,-1.069292892E-3,1.558788121E-3,1.541643292E-1,1.541759177E-1
5.294929542E0,-1.890079118E-3,-1.170951873E-3,1.591652036E-1,1.591807324E-1
5.304885542E0,-1.841558376E-3,1.031951979E-3,1.601287425E-1,1.601426565E-1
5.314841542E0,7.390446845E-4,1.413905993E-4,1.529435366E-1,1.529453876E-1
5.324797542E0,3.377717221E-4,4.863664508E-4,1.431210041E-1,1.431222291E-1
5.334752542E0,-1.978912158E-3,2.444322221E-3,1.424562782E-1,1.424909892E-1
5.344708542E0,-2.247714438E-3,-2.683140337E-5,1.450650543E-1,1.450824694E-1
5.354664542E0,-9.667340200E-4,7.996056229E-5,1.500550061E-1,1.500581415E-1
5.364620542E0,-2.482726239E-3,4.594214261E-6,1.538501084E-1,1.538701394E-1
5.374576542E0,7.793799741E-4,1.175586134E-3,1.568714678E-1,1.568778087E-1
5.384532542E0,-1.576345763E-3,-1.732579432E-3,1.553438753E-1,1.553615341E-1
5.394488542E0,-9.481062880E-4,8.666655049E-4,1.504439265E-1,1.504494102E-1
5.404444542E0,1.561479992E-3,4.262905568E-4,1.451040953E-1,1.451131229E-1
5.414399542E0,6.265286356E-5,-2.003577538E-3,1.446020901E-1,1.446159836E-1
5.424355542E0,-3.218868515E-3,1.536006108E-3,1.494912207E-1,1.495337604E-1
5.434311542E0,-1.852666959E-3,-2.541709691E-4,1.513349265E-1,1.513464798E-1
5.444267542E0,-1.532215625E-3,-3.032945096E-5,1.550648808E-1,1.550724536E-1
5.454223542E0,-2.396145137E-3,-1.720096916E-4,1.582782567E-1,1.582964865E-1
5.464179542E0,-1.480966457E-3,-1.290803775E-3,1.548776180E-1,1.548900771E-1
5.474135542E0,-3.140115645E-3,3.536986187E-4,1.488841772E-1,1.489177077E-1
5.484090542E0,-2.829663921E-3,1.975260675E-3,1.512344629E-1,1.512738292E-1
5.494046542E0,-1.578244381E-3,-8.876370266E-4,1.538049430E-1,1.538156014E-1
5.504002542E0,-1.391601050E-3,2.060706727E-3,1.548627615E-1,1.548827233E-1
5.513958542E0,-3.394564614E-3,6.982330233E-4,1.603946686E-1,1.604321050E-1
5.523914542E0,3.160914639E-4,-1.006071456E-3,1.566756666E-1,1.566792156E-1
5.533870542E0,-3.539633239E-3,-7.716100663E-5,1.549571306E-1,1.549975718E-1
5.543826542E0,-3.020973876E-3,1.779884100E-3,1.465848088E-1,1.466267385E-1
5.553782542E0,3.061135067E-4,1.551385038E-3,1.425407976E-1,1.425495685E-1
5.563737542E0,1.352106920E-3,-1.848340034E-4,1.464334875E-1,1.464398464E-1
5.573693542E0,-2.240497386E-3,-1.401366666E-3,1.508982778E-1,1.509214163E-1
5.583649542E0,-2.091766568E-3,-3.045219928E-4,1.561041623E-1,1.561184733E-1
5.593605542E0,-1.042494550E-4,9.615449235E-4,1.569124311E-1,1.569154119E-1
5.603561542E0,-2.186963800E-3,-2.798298374E-4,1.560592651E-1,1.560748389E-1
5.613517542E0,-2.314557787E-5,-7.610628381E-4,1.553841531E-1,1.553860187E-1
5.623473542E0,-3.653842723E-4,2.691922244E-3,1.506989598E-1,1.507234436E-1
5.633428542E0,1.926798373E-3,8.026752621E-4,1.491316855E-1,1.491462921E-1
5.643384542E0,1.197893871E-3,-1.788820140E-3,1.482950896E-1,1.483107158E-1
5.653340542E0,-2.275134437E-3,2.164375968E-3,1.507795453E-1,1.508122410E-1
5.663296542E0,-1.032995875E-3,6.589917466E-4,1.566267312E-1,1.566315239E-1
5.673252542E0,-1.399979345E-3,1.216391101E-3,1.587910801E-1,1.588019102E-1
5.683208542E0,-1.650666818E-4,-1.099202782E-4,1.517702937E-1,1.517704233E-1
5.693164542E0,-6.343157729E-4,1.212414354E-4,1.501316428E-1,1.501330318E-1
5.703120542E0,-1.778063481E-3,7.128156722E-4,1.493597031E-1,1.493719871E-1
5.713075542E0,-2.639862243E-3,1.076070592E-3,1.496736854E-1,1.497008314E-1
5.723031542E0,2.146174666E-4,7.927091792E-4,1.530842930E-1,1.530864959E-1
5.732987542E0,7.000786718E-5,-3.043562174E-6,1.541157365E-1,1.541157524E-1
5.742943542E0,-1.765438356E-4,-6.876969710E-4,1.546947062E-1,1.546963355E-1
5.752899542E0,-1.800273196E-3,1.115795225E-3,1.517897248E-1,1.518045011E-1
5.762855542E0,1.402654918E-3,2.851275261E-3,1.514586508E-1,1.514919804E-1
5.772811542E0,-4.786020145E-4,7.628239691E-4,1.485030800E-1,1.485058104E-1
5.782767542E0,-2.897037426E-3,-2.000741661E-4,1.492162496E-1,1.492445041E-1
5.792722542E0,-1.765992958E-3,4.979399964E-4,1.515364051E-1,1.515475131E-1
5.802678542E0,7.719132700E-4,9.320955724E-4,1.522256434E-1,1.522304541E-1
5.812634542E0,-2.285661642E-3,-5.720574409E-4,1.544706821E-1,1.544886505E-1
5.822590542E0,-3.112656996E-3,-2.787719481E-3,1.516880095E-1,1.517455510E-1
5.832546542E0,8.477296215E-4,-1.093681902E-3,1.489140540E-1,1.489204831E-1
5.842502542E0,-5.472274497E-4,8.353972808E-4,1.465432942E-1,1.465466971E-1
5.852458542E0,-4.755882546E-4,4.344378132E-3,1.490788907E-1,1.491429363E-1
5.862413542E0,-3.474872792E-4,-9.556496516E-4,1.515108347E-1,1.515142470E-1
5.872369542E0,-1.655934611E-4,1.898193732E-3,1.551330090E-1,1.551447100E-1
5.882325542E0,-2.238096204E-3,-8.617788553E-4,1.511663347E-1,1.511853581E-1
5.892281542E0,-3.256802447E-4,2.271877602E-4,1.496549994E-1,1.496555262E-1
5.902237542E0,-4.153489135E-4,-7.379911840E-4,1.457547694E-1,1.457572295E-1
5.912193542E0,-7.205470465E-4,3.402957693E-3,1.477912813E-1,1.478322094E-1
5.922149542E0,-1.643775729E-3,-3.118617460E-4,1.493424475E-1,1.493518192E-1
5.932105542E0,8.247082587E-4,2.255158965E-3,1.535260081E-1,1.535447852E-1
5.942060542E0,-9.689049330E-4,-3.585247323E-4,1.580553502E-1,1.580587266E-1
5.952016542E0,-2.288235119E-3,4.074573517E-3,1.598902643E-1,1.599585408E-1
5.961972542E0,-9.207164403E-4,1.287892461E-3,1.582536101E-1,1.582615288E-1
5.971928542E0,-4.551960155E-4,1.331035979E-3,1.508582830E-1,1.508648416E-1
5.981884542E0,-1.478006947E-3,-6.733788177E-4,1.449717730E-1,1.449808709E-1
5.991840542E0,-2.074022312E-3,8.994843811E-4,1.406033933E-1,1.406215661E-1
6.001796542E0,1.387195196E-3,6.313836202E-4,1.432236135E-1,1.432317228E-1
6.011752542E0,2.929165494E-3,3.038151190E-4,1.483957469E-1,1.484249643E-1
6.021707542E0,3.890682710E-4,2.237816341E-3,1.513593197E-1,1.513763616E-1
6.031663667E0,-1.937202876E-3,-5.545075983E-4,1.535556316E-1,1.535688518E-1
6.041619667E0,-6.160940975E-4,-2.436632290E-3,1.562303901E-1,1.562506049E-1
6.051575667E0,-5.534419790E-3,-1.264308579E-3,1.528713405E-1,1.529767140E-1
6.061531667E0,-1.620055293E-3,-2.100011334E-4,1.544067562E-1,1.544153976E-1
6.071487667E0,-8.035300998E-4,4.091840237E-4,1.542224884E-1,1.542251245E-1
6.081443667E0,-1.038801158E-3,1.322832890E-3,1.527691334E-1,1.527783922E-1
6.091399667E0,-9.040453006E-4,1.527364366E-3,1.520290375E-1,1.520393974E-1
6.101354667E0,-1.730533550E-4,4.078987986E-4,1.507925391E-1,1.507931901E-1
6.111310667E0,-9.477668209E-4,3.706151620E-4,1.483829170E-1,1.483864067E-1
6.121266667E0,-2.332831733E-3,-4.482436925E-4,1.504767239E-1,1.504954732E-1
6.131222667E0,5.772040458E-4,3.149420023E-3,1.503869891E-1,1.504210707E-1
6.141178667E0,-1.917454647E-4,2.221663017E-3,1.530442387E-1,1.530604833E-1
6.151134667E0,-2.018654486E-4,-1.501436345E-3,1.586097181E-1,1.586169529E-1
6.161090667E0,-8.056056686E-5,1.709052362E-3,1.545737386E-1,1.545832074E-1
6.171046667E0,-1.299489290E-3,8.512483910E-4,1.482101083E-1,1.482182495E-1
6.181001667E0,-1.579587115E-4,2.844342962E-4,1.463295072E-1,1.463298689E-1
6.190957667E0,-3.915179987E-4,1.265089959E-4,1.483907998E-1,1.483913702E-1
6.200913667E0,3.832867835E-3,-6.939116865E-4,1.493638605E-1,1.494146419E-1
6.210869667E0,-8.700082544E-4,1.698939130E-3,1.553479880E-1,1.553597138E-1
6.220825667E0,-1.027891645E-3,-2.741105855E-4,1.590711325E-1,1.590746897E-1
6.230781667E0,-3.447906347E-3,-9.902343154E-4,1.574865580E-1,1.575274089E-1
6.240737667E0,-1.294797519E-3,1.854659989E-3,1.570671499E-1,1.570834359E-1
6.250693667E0,1.771832467E-3,-6.660223007E-4,1.545320898E-1,1.545436824E-1
6.260648667E0,-3.301666584E-4,2.226401586E-3,1.507426351E-1,1.507594373E-1
6.270604667E0,-6.883617025E-4,-5.635255948E-4,1.466131359E-1,1.466158349E-1
6.280560667E0,-1.124980627E-3,1.652016304E-3,1.503342688E-1,1.503475544E-1
6.290516667E0,-2.103958745E-3,1.671457663E-3,1.517023146E-1,1.517261107E-1
6.300472667E0,-2.229339676E-3,3.688167781E-4,1.585381329E-1,1.585542354E-1
6.310428667E0,-2.639269223E-4,2.106251195E-4,1.559615135E-1,1.559618791E-1
6.320384667E0,1.112155733E-3,2.153175883E-3,1.543386281E-1,1.543576534E-1
6.330340667E0,-1.163249137E-3,-1.961940899E-3,1.453981400E-1,1.454160289E-1
6.340295667E0,-2.091540722E-3,-8.163694292E-5,1.441258490E-1,1.441410474E-1
6.350251667E0,9.122386109E-4,8.744383231E-4,1.451314539E-1,1.451369551E-1
6.360207667E0,-2.522574738E-3,-3.573028371E-4,1.485593766E-1,1.485812216E-1
6.370163667E0,-6.098923041E-4,1.370823011E-3,1.538950205E-1,1.539023341E-1
6.380119667E0,1.050328603E-3,-6.154906005E-4,1.528979242E-1,1.529027705E-1
6.390075667E0,1.608260791E-3,-4.211254418E-5,1.509351730E-1,1.509437469E-1
6.400031667E0,-2.109761816E-3,-1.720783301E-3,1.515658647E-1,1.515903148E-1
6.409987667E0,7.555333432E-4,8.923104033E-4,1.475178599E-1,1.475224934E-1
6.419942667E0,2.585872076E-3,2.116700634E-4,1.456096917E-1,1.456328049E-1
6.429898667E0,-1.270900248E-4,3.013581969E-3,1.498936564E-1,1.499240009E-1
6.439854667E0,-7.794747362E-4,6.517143920E-4,1.490305364E-1,1.490339998E-1
6.449810667E0,-4.500417272E-4,2.232034691E-3,1.526063532E-1,1.526233388E-1
6.459766667E0,-1.758361352E-3,1.080781221E-3,1.578666866E-1,1.578801782E-1
6.469722667E0,-3.123231232E-3,7.609361783E-4,1.577130258E-1,1.577457832E-1
6.479678667E0,-4.359703744E-4,8.340263739E-4,1.590533257E-1,1.590561098E-1
6.489634667E0,-1.081351656E-4,-3.702547401E-4,1.589468122E-1,1.589472802E-1
6.499589667E0,-8.995652897E-4,-3.128340468E-4,1.566362530E-1,1.566391485E-1
6.509545667E0,-7.043554215E-4,1.617691480E-3,1.493940502E-1,1.494044688E-1
6.519501667E0,2.579782158E-3,9.561376646E-4,1.471199840E-1,1.471457073E-1
6.529457667E0,-2.059710911E-3,9.273756295E-4,1.492326558E-1,1.492497504E-1
6.539413667E0,-1.631710213E-3,1.873010769E-4,1.525062174E-1,1.525150612E-1
6.549369667E0,-2.241840586E-3,-8.659800515E-4,1.505975276E-1,1.506167026E-1
6.559325667E0,-2.112953458E-3,-2.827206627E-4,1.469917744E-1,1.470072320E-1
6.569281667E0,1.926529221E-3,-1.015888527E-3,1.439882666E-1,1.440047376E-1
6.579236667E0,-1.590054715E-3,1.824495383E-3,1.478633285E-1,1.478831328E-1
6.589192667E0,1.124771661E-3,-7.718196139E-4,1.516029388E-1,1.516090758E-1
6.599148667E0,-3.092573024E-4,-1.189578325E-4,1.576186419E-1,1.576189901E-1
6.609104667E0,-1.241675345E-4,-1.814592630E-3,1.566527188E-1,1.566632773E-1
6.619060667E0,-1.672144630E-3,1.081295311E-3,1.561875641E-1,1.562002575E-1
6.629016667E0,1.539627556E-3,6.157755852E-4,1.544296145E-1,1.544385168E-1
6.638972667E0,-1.994746737E-3,-1.495983452E-5,1.492617577E-1,1.492750869E-1
6.648928667E0,-2.553477883E-3,8.897157386E-4,1.485528201E-1,1.485774283E-1
6.658883667E0,-1.471651951E-3,-1.309219748E-3,1.517861485E-1,1.517989285E-1
6.668839667E0,-8.609890938E-4,4.229005426E-4,1.533504874E-1,1.533534875E-1
6.678795667E0,-1.278751064E-3,1.090439036E-3,1.538535655E-1,1.538627436E-1
6.688751667E0,-1.292333007E-3,9.623412043E-4,1.524998844E-1,1.525083963E-1
6.698707667E0,-3.998331726E-3,2.074318472E-3,1.477860957E-1,1.478547245E-1
6.708663667E0,-2.132254653E-3,-2.980260178E-4,1.455279887E-1,1.455439137E-1
6.718619667E0,3.870512592E-4,2.217876725E-3,1.461217254E-1,1.461390688E-1
6.728575667E0,7.415180444E-4,1.917472109E-3,1.476842016E-1,1.476985103E-1
6.738531667E0,-4.858205793E-4,1.963982824E-3,1.505506188E-1,1.505642124E-1
6.748486667E0,9.781189729E-4,3.564991057E-4,1.527479887E-1,1.527515364E-1
6.758442667E0,-1.218509162E-3,4.577552900E-4,1.493462771E-1,1.493519494E-1
6.768398667E0,1.271279994E-3,-7.334761322E-4,1.509156674E-1,1.509228041E-1
6.778354667E0,-1.182941603E-3,2.475017682E-4,1.494377404E-1,1.494426274E-1
6.788310667E0,-2.932904754E-3,7.678838447E-4,1.478094757E-1,1.478405650E-1
6.798266667E0,9.968089871E-4,4.745218903E-4,1.527149677E-1,1.527189581E-1
6.808222667E0,-1.851708163E-3,-1.271446235E-3,1.521383822E-1,1.521549629E-1
6.818178667E0,-3.195104655E-3,-1.388015226E-4,1.557298750E-1,1.557627103E-1
6.828133667E0,-2.077908721E-3,-2.785983495E-3,1.486234963E-1,1.486641284E-1
6.838089667E0,3.476871643E-4,2.832906321E-4,1.451945156E-1,1.451952082E-1
6.848045667E0,6.544833304E-4,-7.984852418E-4,1.408461034E-1,1.408498874E-1
6.858001667E0,2.577934880E-3,1.930970233E-3,1.461890489E-1,1.462245274E-1
6.867957667E0,-1.375527820E-3,-3.915727139E-4,1.506360024E-1,1.506427915E-1
6.877913667E0,-7.120396476E-4,3.765192814E-3,1.537794322E-1,1.538271674E-1
6.887869667E0,-1.971182181E-3,3.127898555E-3,1.596778035E-1,1.597206006E-1
6.897825667E0,-6.857300177E-4,-5.843685940E-4,1.604131013E-1,1.604156314E-1
6.907781667E0,-1.114765415E-3,3.613196313E-4,1.625188589E-1,1.625230838E-1
6.917736667E0,-7.869757246E-4,1.048355363E-3,1.608899087E-1,1.608952488E-1
6.927692667E0,-2.117757220E-3,1.104547642E-3,1.552818269E-1,1.553001953E-1
6.937648667E0,3.125901567E-4,9.257206693E-4,1.465632319E-1,1.465664888E-1
6.947604667E0,2.124032471E-5,2.969484776E-4,1.441549361E-1,1.441552435E-1
6.957560667E0,-8.024566341E-4,-5.413945764E-4,1.463814378E-1,1.463846384E-1
6.967516667E0,-1.412320649E-3,1.686605625E-3,1.491322219E-1,1.491484459E-1
6.977472667E0,-2.107918030E-3,1.160872169E-3,1.521249115E-1,1.521439439E-1
6.987428667E0,-5.779319908E-4,-1.984052360E-4,1.569119394E-1,1.569131291E-1
6.997383667E0,-1.072386513E-3,-1.101280563E-3,1.541813612E-1,1.541890235E-1
7.007339667E0,-4.627043381E-5,-2.358026803E-3,1.527000964E-1,1.527183089E-1
7.017295667E0,-6.714118645E-4,3.801742569E-4,1.456691027E-1,1.456711461E-1
7.027251667E0,-1.776357414E-3,9.612757713E-4,1.438575983E-1,1.438717765E-1
7.037207917E0,-1.708180178E-3,3.588739783E-4,1.447022557E-1,1.447127827E-1
7.047163917E0,-8.018221706E-6,-1.567390747E-3,1.459507495E-1,1.459591657E-1
7.057119917E0,-1.357710455E-3,-1.224217936E-3,1.508489400E-1,1.508600172E-1
7.067075917E0,-1.644266536E-3,1.164637506E-3,1.544695050E-1,1.544826461E-1
7.077031917E0,-1.507038600E-3,-7.328381762E-4,1.565064043E-1,1.565153756E-1
7.086986917E0,-9.183480870E-5,1.579318196E-3,1.577226669E-1,1.577306005E-1
7.096942917E0,-3.019691212E-3,5.890037864E-4,1.581982076E-1,1.582281212E-1
7.106898917E0,-2.795648761E-4,1.029757783E-3,1.526822597E-1,1.526859882E-1
7.116854917E0,-5.401726812E-4,3.299452364E-4,1.486397982E-1,1.486411459E-1
7.126810917E0,1.119509339E-3,9.147757664E-4,1.428263783E-1,1.428336951E-1
7.136766917E0,7.810378447E-4,2.444646787E-3,1.436501890E-1,1.436731121E-1
7.146722917E0,-1.177450875E-3,4.936149344E-4,1.476867497E-1,1.476922682E-1
7.156678917E0,-1.530426205E-3,4.137279466E-4,1.505432129E-1,1.505515603E-1
7.166634917E0,-1.165839494E-3,2.277940512E-3,1.513946205E-1,1.514162452E-1
7.176589917E0,-9.260285879E-4,3.242879175E-3,1.544453204E-1,1.544821374E-1
7.186545917E0,-8.751623100E-4,-1.925984398E-4,1.564815789E-1,1.564841447E-1
7.196501917E0,-1.785084023E-3,4.031471908E-4,1.530966461E-1,1.531075834E-1
7.206457917E0,2.151600551E-3,1.629533246E-3,1.523230076E-1,1.523469179E-1
7.216413917E0,-5.529958289E-4,-6.114784628E-5,1.465259343E-1,1.465269906E-1
7.226369917E0,-1.471786294E-3,1.055663452E-4,1.484636515E-1,1.484709841E-1
7.236325917E0,-5.358651979E-4,9.164772928E-5,1.490155160E-1,1.490165077E-1
7.246281917E0,6.827973993E-4,2.779309638E-3,1.512605548E-1,1.512876274E-1
7.256237917E0,-7.107388228E-4,3.506708890E-5,1.520478427E-1,1.520495079E-1
7.266192917E0,-2.829017118E-3,8.191019297E-4,1.526822001E-1,1.527106037E-1
7.276148917E0,-7.386765210E-4,1.990278717E-3,1.486680806E-1,1.486832372E-1
7.286104917E0,-1.978910528E-3,6.355289370E-4,1.451513767E-1,1.451662569E-1
7.296060917E0,1.161338063E-3,1.046151854E-3,1.410400867E-1,1.410487476E-1
7.306016917E0,-7.105979603E-4,6.573311985E-4,1.426680833E-1,1.426713672E-1
7.315972917E0,-2.151667140E-4,4.046985880E-3,1.471884102E-1,1.472441934E-1
7.325928917E0,-5.858787335E-4,2.083703410E-3,1.520292461E-1,1.520446538E-1
7.335884917E0,-1.520661986E-3,1.032993197E-3,1.517780125E-1,1.517891451E-1
7.345840917E0,-3.344661091E-3,7.602861151E-4,1.560864747E-1,1.561241569E-1
7.355795917E0,-1.164804795E-3,5.586910993E-5,1.565689296E-1,1.565732723E-1
7.365751917E0,1.541499514E-3,9.610773996E-4,1.561934203E-1,1.562039834E-1
7.375707917E0,3.424356692E-5,-1.839723438E-3,1.546618938E-1,1.546728391E-1
7.385663917E0,3.812534269E-4,9.400835261E-4,1.551617682E-1,1.551650844E-1
7.395619917E0,3.376633395E-4,-9.542992339E-4,1.564928591E-1,1.564961331E-1
7.405575917E0,-3.139359877E-3,1.696610823E-3,1.491113901E-1,1.491540839E-1
7.415531917E0,4.176774528E-4,2.050790004E-3,1.430933923E-1,1.431086968E-1
7.425487917E0,6.488398649E-4,1.294452697E-3,1.408174485E-1,1.408248927E-1
7.435442917E0,-4.803518532E-4,1.689473167E-3,1.450119317E-1,1.450225685E-1
7.445398917E0,-9.328230517E-4,1.540335827E-3,1.491315812E-1,1.491424530E-1
7.455354917E0,-1.839487813E-3,-1.440141350E-3,1.496560574E-1,1.496742905E-1
7.465310917E0,7.017005701E-4,8.397903293E-4,1.547629386E-1,1.547668078E-1
7.475266917E0,-1.647122437E-3,7.648831233E-4,1.595669538E-1,1.595772878E-1
7.485222917E0,-2.341408748E-3,7.904497907E-4,1.589301974E-1,1.589494091E-1
7.495178917E0,-2.908527851E-3,-2.838998102E-3,1.552933306E-1,1.553465093E-1
7.505134917E0,-1.485867309E-3,2.132514492E-4,1.521508098E-1,1.521582143E-1
7.515090917E0,-1.098485664E-4,1.115476713E-3,1.484891623E-1,1.484933927E-1
7.525045917E0,-1.471256488E-3,3.570085391E-4,1.499200910E-1,1.499277351E-1
7.535001917E0,-2.039533807E-3,1.707589254E-4,1.510240138E-1,1.510378813E-1
7.544957917E0,-1.705274917E-4,-1.751510426E-3,1.550520509E-1,1.550620372E-1
7.554913917E0,6.338648964E-4,-1.264270395E-3,1.566093564E-1,1.566157421E-1
7.564869917E0,-1.541645033E-4,-1.076590270E-4,1.550705880E-1,1.550707020E-1
7.574825917E0,-3.173663747E-3,1.216176897E-4,1.519867927E-1,1.520199726E-1
7.584781917E0,-3.547305241E-3,1.140543260E-3,1.493782252E-1,1.494246913E-1
7.594737917E0,-1.582661411E-3,1.818211749E-3,1.445734203E-1,1.445935149E-1
7.604693917E0,-2.989875851E-3,7.284460589E-4,1.471633464E-1,1.471955180E-1
7.614648917E0,3.463729518E-4,-6.470549852E-4,1.509081274E-1,1.509099121E-1
7.624604917E0,-6.435241085E-4,-5.490500480E-4,1.518969536E-1,1.518993090E-1
7.634560917E0,-2.101228572E-3,-3.639524803E-4,1.561021954E-1,1.561167609E-1
7.644516917E0,-2.734528389E-3,7.271450013E-4,1.584724039E-1,1.584976630E-1
7.654472917E0,-1.169038122E-3,-1.518489793E-3,1.572884172E-1,1.573000911E-1
7.664428917E0,-7.991249440E-4,-1.976021565E-3,1.582649946E-1,1.582793473E-1
7.674384917E0,-1.003309386E-3,1.153427176E-3,1.573813558E-1,1.573887803E-1
7.684340917E0,-2.986032749E-3,1.423737966E-3,1.541131288E-1,1.541486292E-1
7.694296917E0,-4.282647278E-4,8.917059749E-4,1.512350589E-1,1.512382941E-1
7.704252917E0,-1.399519620E-3,9.063528851E-4,1.509892493E-1,1.509984555E-1
7.714207917E0,-2.575041261E-3,-1.077922061E-4,1.455856860E-1,1.456084971E-1
7.724163917E0,-6.306677824E-4,-3.197798505E-4,1.465596110E-1,1.465613167E-1
7.734119917E0,-3.126790980E-3,1.747607719E-3,1.528535485E-1,1.528955142E-1
7.744075917E0,-5.328722764E-4,-5.934666842E-5,1.567625403E-1,1.567634572E-1
7.754031917E0,-8.992357180E-4,8.539520204E-4,1.570541114E-1,1.570590072E-1
7.763987917E0,-2.659361344E-4,-2.782046795E-5,1.573241502E-1,1.573243774E-1
7.773943917E0,1.568352920E-3,-7.849764079E-4,1.497372836E-1,1.497475543E-1
7.783899917E0,-1.867923769E-3,-7.431656122E-4,1.504049301E-1,1.504183647E-1
7.793855917E0,-4.015251761E-4,2.025112044E-3,1.452839524E-1,1.452986205E-1
7.803810917E0,2.349703573E-4,1.633893698E-3,1.458061934E-1,1.458155370E-1
7.813766917E0,-2.862634137E-4,1.203567721E-3,1.505359113E-1,1.505409948E-1
7.823722917E0,-1.513980562E-3,-1.062249765E-3,1.514887959E-1,1.515000851E-1
7.833678917E0,-3.244502004E-4,3.501456231E-4,1.557483524E-1,1.557490839E-1
7.843634917E0,3.189695999E-4,-9.249756113E-4,1.580067128E-1,1.580097421E-1
7.853590917E0,8.566112374E-4,1.727296039E-4,1.555760652E-1,1.555785193E-1
7.863546917E0,-7.364916382E-4,-5.892012268E-4,1.531427354E-1,1.531456397E-1
7.873502917E0,1.660225447E-3,9.223315865E-4,1.501839459E-1,1.501959542E-1
7.883458917E0,-1.275377115E-3,1.482128166E-3,1.507293582E-1,1.507420403E-1
7.893413917E0,-1.262609730E-3,2.975555137E-3,1.496362984E-1,1.496712060E-1
7.903369917E0,-5.893626949E-4,-8.351616561E-4,1.535543352E-1,1.535577374E-1
7.913325917E0,-1.129716868E-3,9.489599615E-4,1.551494747E-1,1.551564897E-1
7.923281917E0,-3.829895984E-3,-8.539995179E-4,1.536738127E-1,1.537239023E-1
7.933237917E0,-5.195245612E-4,-5.287155509E-4,1.507411897E-1,1.507430122E-1
7.943193917E0,-9.970292449E-4,2.869477961E-3,1.483326256E-1,1.483637280E-1
7.953149917E0,-2.632689662E-3,1.190984622E-4,1.507369876E-1,1.507600234E-1
7.963105917E0,1.817452256E-3,-1.184558496E-4,1.547772586E-1,1.547879742E-1
7.973061917E0,-2.549317665E-3,-1.564591192E-3,1.560786515E-1,1.561073106E-1
7.983017917E0,-4.022844601E-3,-4.694992676E-4,1.581750810E-1,1.582269255E-1
7.992972917E0,-1.065805089E-3,1.836089417E-3,1.540858597E-1,1.541004845E-1
8.002928917E0,-1.178989420E-3,-5.506351590E-4,1.485318393E-1,1.485375390E-1
8.012884917E0,1.852979884E-3,1.626159530E-3,1.469814926E-1,1.470021670E-1
8.022840917E0,-1.510487637E-4,-1.328085549E-3,1.500728875E-1,1.500788400E-1
8.032797042E0,1.180029241E-3,1.699203625E-3,1.531100720E-1,1.531240475E-1
8.042753042E0,6.601801142E-4,-1.050244085E-3,1.545289904E-1,1.545339695E-1
8.052709042E0,-1.769754221E-3,-6.169332191E-4,1.562378556E-1,1.562490965E-1
8.062665042E0,1.458574552E-4,-2.922165208E-3,1.554090828E-1,1.554366216E-1
8.072621042E0,-9.206704563E-4,1.528128050E-3,1.536201239E-1,1.536304829E-1
8.082577042E0,1.045008888E-3,4.927441478E-5,1.533713788E-1,1.533749468E-1
8.092532042E0,3.050244413E-5,6.756242365E-4,1.481683552E-1,1.481698987E-1
8.102488042E0,-4.888139665E-4,-7.726019248E-4,1.482391953E-1,1.482420146E-1
8.112444042E0,-6.765526487E-4,3.254676238E-3,1.470386535E-1,1.470762260E-1
8.122400042E0,-1.775372890E-3,1.820564270E-3,1.499681324E-1,1.499896901E-1
8.132356042E0,3.019993659E-3,1.021443866E-3,1.523251384E-1,1.523584967E-1
8.142312042E0,1.185608213E-3,1.741562970E-3,1.560192108E-1,1.560334350E-1
8.152268042E0,-4.042894579E-5,-2.862062305E-3,1.571390629E-1,1.571651301E-1
8.162224042E0,5.332159344E-4,-9.059710428E-4,1.549323797E-1,1.549359461E-1
8.172180042E0,4.510211293E-4,-4.750555381E-4,1.517778486E-1,1.517792622E-1
8.182135042E0,-9.287626017E-4,-2.161902376E-3,1.496012509E-1,1.496197537E-1
8.192091042E0,-1.130144694E-3,1.057368703E-3,1.485613883E-1,1.485694495E-1
8.202047042E0,-4.116237396E-4,-2.875281498E-4,1.515846103E-1,1.515854419E-1
8.212003042E0,-7.819803432E-5,4.127714783E-5,1.546989828E-1,1.546990081E-1
8.221959042E0,-3.226320492E-3,1.892440487E-3,1.538496912E-1,1.538951524E-1
8.231915042E0,-3.060802817E-3,-6.126891822E-5,1.518244594E-1,1.518553218E-1
8.241871042E0,-1.822166611E-3,-2.500871196E-4,1.547603309E-1,1.547712598E-1
8.251827042E0,7.747840136E-4,-6.995592266E-4,1.548860371E-1,1.548895547E-1
8.261783042E0,5.120306741E-5,-3.421623260E-4,1.534553766E-1,1.534557666E-1
8.271739042E0,5.262744380E-4,1.863509882E-3,1.544083655E-1,1.544205069E-1
8.281694042E0,-9.869337082E-4,-5.173562095E-4,1.488005519E-1,1.488047242E-1
8.291650042E0,3.312842222E-3,7.949993014E-4,1.469023526E-1,1.469418529E-1
8.301606042E0,7.423592033E-4,-8.939774707E-4,1.486278176E-1,1.486323601E-1
8.311562042E0,-3.140193410E-3,1.506269909E-3,1.521241218E-1,1.521639842E-1
8.321518042E0,-2.562563168E-4,4.916060716E-4,1.548775584E-1,1.548785506E-1
8.331474042E0,5.668841768E-4,2.825591248E-3,1.557246596E-1,1.557513240E-1
8.341430042E0,-1.827031258E-3,2.596350387E-4,1.577292234E-1,1.577400183E-1
8.351386042E0,-1.309805317E-3,-2.264429815E-3,1.527171582E-1,1.527395615E-1
8.361342042E0,-1.817936543E-3,-8.462965488E-4,1.472225189E-1,1.472361749E-1
8.371298042E0,-8.278784808E-4,1.658813097E-3,1.436535120E-1,1.436654745E-1
8.381253042E0,-2.706472063E-3,-1.353584230E-4,1.416952908E-1,1.417212008E-1
8.391209042E0,1.392646460E-3,1.961980015E-4,1.427075118E-1,1.427144417E-1
8.401165042E0,-6.444053724E-4,1.152805053E-3,1.461504549E-1,1.461564220E-1
8.411121042E0,1.027218881E-3,1.485228539E-3,1.481144130E-1,1.481254213E-1
8.421077042E0,-1.455646125E-3,-1.568618231E-3,1.497245580E-1,1.497398502E-1
8.431033042E0,-1.679199748E-3,1.161129214E-3,1.542021781E-1,1.542156920E-1
8.440989042E0,-2.510372316E-3,1.446353272E-3,1.564490944E-1,1.564759184E-1
8.450945042E0,-2.368308837E-3,1.471082680E-3,1.558914185E-1,1.559163472E-1
8.460901042E0,-9.349954780E-4,-1.183023676E-3,1.575156897E-1,1.575229071E-1
8.470857042E0,-1.805619337E-3,9.330455214E-5,1.570948660E-1,1.571052701E-1
8.480812042E0,1.404288691E-3,1.495725010E-3,1.592142135E-1,1.592274317E-1
8.490768042E0,-2.944399137E-3,-8.947700262E-4,1.562574506E-1,1.562877505E-1
8.500724042E0,-1.443441724E-3,-3.757197410E-4,1.508400589E-1,1.508474331E-1
8.510680042E0,1.180925174E-4,1.819092315E-3,1.411520094E-1,1.411637800E-1
8.520636042E0,-2.305916743E-3,1.076603308E-3,1.420545578E-1,1.420773512E-1
8.530592042E0,2.245771466E-4,-2.955457196E-3,1.435923129E-1,1.436229003E-1
8.540548042E0,-2.369486028E-4,-5.333116278E-4,1.464413553E-1,1.464425181E-1
8.550504042E0,-5.160786677E-4,-1.280810684E-4,1.510474086E-1,1.510483445E-1
8.560460042E0,-2.668069210E-4,-2.050616778E-3,1.520932317E-1,1.521072889E-1
8.570416042E0,-1.788196154E-3,-6.754249334E-4,1.508056521E-1,1.508177661E-1
8.580372042E0,-1.245710300E-3,-1.451894641E-4,1.557495445E-1,1.557545938E-1
8.590327042E0,-7.032169960E-4,-7.202476263E-4,1.535221785E-1,1.535254786E-1
8.600283042E0,-1.500567421E-3,-8.162204176E-5,1.531091183E-1,1.531164932E-1
8.610239042E0,-1.979763154E-3,-1.325465739E-3,1.548507810E-1,1.548691082E-1
8.620195042E0,-3.579257755E-3,-9.961239994E-5,1.553807408E-1,1.554219920E-1
8.630151042E0,-9.937899886E-4,9.708069265E-4,1.537000239E-1,1.537063025E-1
8.640107042E0,-4.116230411E-4,-2.337904647E-3,1.500821114E-1,1.501008840E-1
8.650063042E0,-1.983939437E-3,-9.110942483E-5,1.473418474E-1,1.473552317E-1
8.660019042E0,8.408754366E-4,1.015966758E-3,1.476803273E-1,1.476862158E-1
8.669975042E0,-2.503844909E-3,-1.146025024E-3,1.510859728E-1,1.511110644E-1
8.679931042E0,2.442711266E-4,1.610879786E-3,1.531965286E-1,1.532051924E-1
8.689886042E0,-2.931389026E-3,5.663456395E-4,1.535803676E-1,1.536093848E-1
8.699842042E0,4.971644375E-4,-4.781456664E-4,1.559417844E-1,1.559433099E-1
8.709798042E0,-1.801698469E-3,6.638746709E-4,1.542517096E-1,1.542636599E-1
8.719754042E0,-1.600629883E-3,-2.176652662E-3,1.495709270E-1,1.495953276E-1
8.729710042E0,1.631938620E-3,-8.552167565E-4,1.443422139E-1,1.443539723E-1
8.739666042E0,-7.161704125E-4,-1.061878167E-3,1.445595175E-1,1.445651915E-1
8.749622042E0,-2.186648780E-4,-9.243786335E-4,1.456087679E-1,1.456118662E-1
8.759578042E0,-1.564892824E-3,-2.657789737E-4,1.505555958E-1,1.505639630E-1
8.769534042E0,-2.424961189E-3,-4.617664963E-4,1.518475115E-1,1.518675753E-1
8.779490042E0,-3.192750504E-3,8.192136884E-4,1.514712125E-1,1.515070724E-1
8.789445042E0,1.525286236E-3,-1.024628058E-3,1.504779160E-1,1.504891344E-1
8.799401042E0,-1.349329948E-3,-5.186274648E-4,1.491234452E-1,1.491304515E-1
8.809357042E0,-1.114967279E-3,7.891086861E-4,1.499522775E-1,1.499584989E-1
8.819313042E0,-1.915247180E-3,-8.840300143E-5,1.504452229E-1,1.504574394E-1
8.829269042E0,-2.000947017E-3,2.079977188E-3,1.523406059E-1,1.523679438E-1
8.839225042E0,-3.074429696E-4,4.487913102E-4,1.533768475E-1,1.533778122E-1
8.849181042E0,-1.787029090E-3,5.971537903E-4,1.556073278E-1,1.556187345E-1
8.859137042E0,-5.515884841E-4,-1.142955385E-3,1.539876014E-1,1.539928309E-1
8.869093042E0,1.132953446E-3,-3.210678697E-4,1.551303118E-1,1.551347811E-1
8.879049042E0,-3.498946317E-4,7.015094161E-5,1.555654705E-1,1.555658798E-1
8.889005042E0,1.453399775E-3,1.224661246E-4,1.531659067E-1,1.531728512E-1
8.898960042E0,-1.149840187E-3,-4.386622459E-4,1.536250412E-1,1.536299706E-1
8.908916042E0,7.707369514E-5,-1.330524683E-4,1.479042470E-1,1.479043270E-1
8.918872042E0,1.220368780E-3,-4.262672737E-4,1.485862881E-1,1.485919110E-1
8.928828042E0,-2.171509434E-3,7.913280278E-4,1.526069641E-1,1.526244644E-1
8.938784042E0,-1.634349930E-3,5.167564377E-4,1.551231295E-1,1.551325995E-1
8.948740042E0,-3.034923226E-3,1.381003298E-3,1.515412778E-1,1.515779562E-1
8.958696042E0,-3.001233563E-4,1.770623494E-3,1.534808576E-1,1.534913640E-1
8.968652042E0,6.225677207E-4,-1.940215006E-4,1.519712210E-1,1.519726200E-1
8.978608042E0,-8.959667757E-4,1.868102700E-4,1.552130878E-1,1.552157862E-1
8.988564042E0,-2.033671597E-3,-1.428246498E-3,1.572824121E-1,1.573020434E-1
8.998519042E0,-5.198571831E-3,-1.792300493E-3,1.572669744E-1,1.573630794E-1
9.008475042E0,-1.933202147E-3,-1.749761403E-3,1.569958031E-1,1.570174549E-1
9.018431042E0,-1.381395152E-3,-6.325654685E-4,1.509269923E-1,1.509346395E-1
9.028387042E0,-4.637579434E-3,-5.556754768E-4,1.509490907E-1,1.510213359E-1
9.038343042E0,-1.942194067E-3,-1.303224824E-3,1.470126808E-1,1.470312852E-1
9.048299042E0,7.909673732E-4,-1.497381367E-3,1.494397223E-1,1.494493171E-1
9.058255042E0,-2.151026856E-3,-1.838798635E-3,1.506629139E-1,1.506894878E-1
9.068211042E0,-2.573837992E-5,-1.565162092E-3,1.520971656E-1,1.521052207E-1
9.078167042E0,-2.562665381E-3,-2.195797861E-3,1.537086517E-1,1.537456939E-1
9.088123042E0,-4.143364727E-3,-1.817394979E-3,1.542195529E-1,1.542859063E-1
9.098079042E0,-4.800366703E-3,-3.276225179E-4,1.550025344E-1,1.550771954E-1
9.108034042E0,-1.902750228E-3,1.778359059E-3,1.533673406E-1,1.533894526E-1
9.117990042E0,-1.176239923E-3,-2.251369879E-4,1.527590752E-1,1.527637695E-1
9.127946042E0,-6.510629319E-4,1.784129534E-3,1.524720937E-1,1.524839216E-1
9.137902042E0,-1.257198397E-3,1.357491128E-3,1.523799598E-1,1.523911923E-1
9.147858042E0,3.061269177E-3,2.752680797E-3,1.522852629E-1,1.523409004E-1
9.157814042E0,-5.462928675E-5,7.680933923E-4,1.481469721E-1,1.481489733E-1
9.167770042E0,-1.497380668E-3,-1.086693257E-3,1.512019932E-1,1.512133123E-1
9.177726042E0,-2.776528709E-4,5.090730265E-4,1.525524855E-1,1.525535875E-1
9.187682042E0,6.291838363E-4,-8.586142212E-4,1.553783864E-1,1.553820326E-1
9.197638042E0,-2.270224504E-4,-6.913673133E-4,1.568529755E-1,1.568546635E-1
9.207594042E0,5.416909698E-5,1.941425726E-4,1.553061306E-1,1.553062614E-1
9.217549042E0,-1.200445928E-3,-6.612651050E-4,1.530919820E-1,1.530981166E-1
9.227505042E0,4.260509741E-5,1.746723428E-4,1.497696936E-1,1.497698015E-1
9.237461042E0,-2.352908487E-3,-5.731433630E-4,1.478559524E-1,1.478757834E-1
9.247417042E0,-1.599285984E-3,-6.580064073E-4,1.504099369E-1,1.504198784E-1
9.257373042E0,-4.408110399E-4,1.783047337E-3,1.519340575E-1,1.519451592E-1
9.267329042E0,-2.724889200E-3,-1.870084554E-3,1.522795111E-1,1.523153693E-1
9.277285042E0,-1.458289917E-3,3.568502143E-4,1.542683691E-1,1.542756742E-1
9.287241042E0,-4.054147750E-3,7.951632142E-6,1.525092125E-1,1.525630888E-1
9.297197042E0,3.178487532E-6,8.154213428E-4,1.506037265E-1,1.506059340E-1
9.307153042E0,1.548603177E-4,2.256062347E-3,1.480703354E-1,1.480876025E-1
9.317109042E0,-4.275729880E-4,-9.790528566E-5,1.510384381E-1,1.510390750E-1
9.327064042E0,-1.534106908E-3,-3.258427605E-4,1.516017020E-1,1.516098140E-1
9.337020042E0,-1.555678435E-3,6.404425949E-5,1.551948339E-1,1.552026440E-1
9.346976042E0,-1.498589059E-3,-5.678618327E-4,1.548826993E-1,1.548909899E-1
9.356932042E0,-2.307657152E-3,-5.992865190E-4,1.516549438E-1,1.516736840E-1
9.366888042E0,-6.174187874E-4,-3.968551755E-5,1.518791765E-1,1.518804366E-1
9.376844042E0,-1.809183392E-3,-8.610039949E-4,1.514038146E-1,1.514170715E-1
9.386800042E0,1.974517945E-4,1.252768561E-4,1.517629176E-1,1.517630978E-1
9.396756042E0,2.231041668E-3,4.013225902E-3,1.529475003E-1,1.530164089E-1
9.406712042E0,1.211699797E-3,1.250424422E-3,1.548123509E-1,1.548221423E-1
9.416668042E0,-7.332067471E-4,4.091318697E-4,1.578169167E-1,1.578191502E-1
9.426624042E0,-6.867139600E-4,2.135317773E-4,1.532128453E-1,1.532145331E-1
9.436580042E0,-1.796719385E-3,-1.462614164E-4,1.546602845E-1,1.546707897E-1
9.446535042E0,-4.102706444E-4,3.986433148E-4,1.525257379E-1,1.525268106E-1
9.456491042E0,-1.588719431E-3,9.797327220E-5,1.488705575E-1,1.488790668E-1
9.466447042E0,-1.471463358E-3,-7.193107158E-4,1.470455974E-1,1.470547189E-1
9.476403042E0,-8.826386184E-4,-7.997388020E-4,1.482677162E-1,1.482725001E-1
9.486359042E0,6.090840325E-4,1.852794085E-3,1.472285688E-1,1.472414863E-1
9.496315042E0,-6.096740253E-5,1.706053503E-3,1.503899992E-1,1.503996881E-1
9.506271042E0,-3.591776127E-3,1.597981900E-4,1.515644044E-1,1.516070416E-1
9.516227042E0,-2.733971691E-3,1.015472226E-3,1.534595042E-1,1.534872152E-1
9.526183042E0,-9.238491766E-4,8.205240592E-4,1.528911889E-1,1.528961817E-1
9.536139042E0,-1.779256621E-3,-4.066610709E-4,1.533324718E-1,1.533433339E-1
9.546095042E0,1.105435193E-3,5.633784458E-4,1.547513604E-1,1.547563341E-1
9.556050042E0,-2.823381219E-4,-7.711164653E-5,1.511507630E-1,1.511510464E-1
9.566006042E0,1.640291885E-6,2.707580570E-3,1.515812278E-1,1.516054076E-1
9.575962042E0,1.248532441E-3,-1.377407461E-4,1.513679177E-1,1.513731294E-1
9.585918042E0,1.909206738E-3,5.743587390E-4,1.497887075E-1,1.498019755E-1
9.595874042E0,1.224919688E-4,-7.425742224E-4,1.520721018E-1,1.520739642E-1
9.605830042E0,-1.649403479E-3,1.620966941E-5,1.517932862E-1,1.518022481E-1
9.615786042E0,2.590176882E-4,3.730729222E-4,1.518952847E-1,1.518959637E-1
9.625742042E0,1.259963261E-3,7.453579456E-4,1.536427438E-1,1.536497179E-1
9.635698042E0,-1.156056533E-3,5.173915997E-4,1.564880610E-1,1.564931864E-1
9.645654042E0,-3.065439174E-3,-1.471525058E-3,1.554311067E-1,1.554682965E-1
9.655610042E0,4.720377037E-4,-7.396880537E-4,1.526017636E-1,1.526042864E-1
9.665566042E0,-1.450895565E-3,-6.667803973E-5,1.529080272E-1,1.529149251E-1
9.675521042E0,-3.651465522E-3,-5.340622738E-4,1.484602839E-1,1.485061423E-1
9.685477042E0,-3.173619043E-4,-1.773405820E-4,1.477216333E-1,1.477220807E-1
9.695433042E0,-3.655650653E-4,-2.605610527E-3,1.466113627E-1,1.466349703E-1
9.705389042E0,4.163505509E-4,1.469273120E-4,1.473559886E-1,1.473566501E-1
9.715345042E0,-4.105609842E-4,1.754229888E-4,1.495693475E-1,1.495700139E-1
9.725301042E0,-1.884885598E-3,-6.605498493E-4,1.517508328E-1,1.517639759E-1
9.735257042E0,-1.205415465E-4,2.944599837E-4,1.518134177E-1,1.518137511E-1
9.745213042E0,-1.772298710E-3,7.280912250E-4,1.528917104E-1,1.529037157E-1
9.755169042E0,-1.357910689E-3,1.307861879E-3,1.522903740E-1,1.523020435E-1
9.765125042E0,-5.545727909E-4,1.946811564E-3,1.545284688E-1,1.545417268E-1
9.775081042E0,6.371916970E-4,-5.227373913E-4,1.566193104E-1,1.566214789E-1
9.785037042E0,-1.801813487E-4,-1.160864718E-3,1.558727622E-1,1.558771891E-1
9.794992042E0,2.141296165E-3,-6.763637066E-5,1.544373184E-1,1.544521772E-1
9.804948042E0,-2.672448521E-3,-3.314865753E-4,1.534675658E-1,1.534911907E-1
9.814904042E0,-8.433896583E-4,-1.286762767E-3,1.503042579E-1,1.503121319E-1
9.824860042E0,-1.338534057E-3,-2.202056348E-4,1.483379900E-1,1.483441925E-1
9.834816042E0,-3.065590281E-4,-1.185335219E-3,1.472865790E-1,1.472916676E-1
9.844772042E0,-2.161087468E-5,5.655558780E-4,1.465776414E-1,1.465787340E-1
9.854728042E0,-5.713851657E-3,1.644668635E-3,1.523234099E-1,1.524394117E-1
9.864684042E0,-3.105029464E-4,-1.273136586E-3,1.548460573E-1,1.548516023E-1
9.874640042E0,-1.738756197E-3,-6.361082196E-4,1.524952948E-1,1.525065338E-1
9.884596042E0,-2.603566274E-3,8.857827634E-4,1.526007652E-1,1.526255441E-1
9.894552042E0,-1.282105921E-3,9.475676343E-4,1.524537504E-1,1.524620860E-1
9.904507042E0,-1.095527317E-3,5.836505443E-5,1.509651393E-1,1.509691255E-1
9.914463042E0,-1.301389653E-3,1.477563754E-3,1.515614241E-1,1.515742132E-1
9.924419042E0,-1.249996712E-3,4.836693406E-4,1.486417055E-1,1.486477482E-1
9.934375042E0,5.345874233E-4,-9.957160801E-4,1.496329308E-1,1.496371986E-1
9.944331042E0,-1.815225463E-3,-8.780490607E-4,1.498976946E-1,1.499112566E-1
9.954287042E0,-1.522544073E-3,-2.264756709E-3,1.508537680E-1,1.508784497E-1
9.964243042E0,-5.442500114E-4,-7.425062358E-5,1.500638425E-1,1.500648478E-1
9.974199042E0,-1.281146659E-3,3.851447254E-4,1.536090523E-1,1.536148776E-1
9.984155042E0,-5.276384763E-5,7.060859352E-4,1.529802531E-1,1.529818917E-1
9.994111042E0,-1.241332619E-3,-2.017859370E-4,1.564215869E-1,1.564266424E-1
1.000406704E1,6.848649355E-4,-4.620933905E-4,1.565662026E-1,1.565683824E-1
1.001402304E1,-2.816393040E-3,-2.964399755E-6,1.555318385E-1,1.555573363E-1
1.002397904E1,-1.302062301E-3,-9.477045387E-5,1.552201509E-1,1.552256409E-1
1.003393329E1,-2.558541484E-3,2.205483615E-4,1.515636295E-1,1.515853837E-1
1.004388929E1,2.300303197E-3,9.375317022E-4,1.498811543E-1,1.499017371E-1
1.005384529E1,-3.921526950E-4,-8.848700672E-4,1.479905844E-1,1.479937493E-1
1.006380129E1,-5.279462785E-4,8.826004341E-4,1.522862315E-1,1.522897043E-1
1.007375729E1,-2.335699741E-3,2.769976854E-4,1.519618630E-1,1.519800646E-1
1.008371329E1,-1.710057491E-3,5.720090121E-5,1.533429325E-1,1.533524780E-1
1.009366929E1,-1.739461441E-4,2.521444112E-4,1.520619392E-1,1.520622478E-1
1.010362529E1,-5.993219092E-4,1.324091107E-3,1.546191126E-1,1.546259435E-1
1.011358129E1,9.261367377E-4,8.098352700E-4,1.543117911E-1,1.543166952E-1
1.012353729E1,1.438800711E-3,-1.134152524E-3,1.518874019E-1,1.518984507E-1
1.013349329E1,3.687426215E-4,-2.010598779E-3,1.544922441E-1,1.545057668E-1
1.014344929E1,-1.426057657E-3,-4.552304745E-4,1.554684639E-1,1.554756706E-1
1.015340429E1,-2.469750587E-3,-9.588338435E-4,1.531648338E-1,1.531877454E-1
1.016336029E1,1.693147817E-3,-8.791601285E-4,1.534668207E-1,1.534786784E-1
1.017331629E1,2.271852689E-3,5.517564714E-4,1.530961096E-1,1.531139593E-1
1.018327229E1,1.159090549E-3,-1.786131412E-3,1.527105421E-1,1.527253856E-1
1.019322829E1,-7.093832828E-4,1.063983887E-3,1.497903913E-1,1.497958498E-1
1.020318429E1,-1.353177940E-3,-4.917336628E-4,1.530057341E-1,1.530125078E-1
1.021314029E1,-1.223215600E-3,-2.513073385E-3,1.525242329E-1,1.525498391E-1
1.022309629E1,-2.927578520E-3,2.495080698E-3,1.540175676E-1,1.540655941E-1
1.023305229E1,3.465567715E-5,7.429867983E-4,1.539435238E-1,1.539453206E-1
1.024300829E1,3.069812665E-4,1.514457166E-3,1.539555639E-1,1.539633186E-1
1.025296429E1,-1.032056287E-3,8.487235755E-5,1.515017301E-1,1.515052691E-1
1.026292029E1,-4.417388700E-4,9.779520333E-4,1.477686167E-1,1.477725130E-1
1.027287629E1,2.780686133E-3,1.939181238E-4,1.478562355E-1,1.478825081E-1
1.028283129E1,3.747874871E-6,1.632831991E-4,1.516774297E-1,1.516775176E-1
1.029278729E1,9.270658484E-4,5.036350340E-4,1.532737315E-1,1.532773625E-1
1.030274329E1,-1.261055702E-3,3.916751593E-4,1.543037891E-1,1.543094392E-1
1.031269929E1,6.692034658E-4,6.776982918E-4,1.554492414E-1,1.554521591E-1
1.032265529E1,-4.184148274E-4,-1.436188817E-3,1.576015949E-1,1.576086940E-1
1.033261129E1,-2.810466103E-3,-1.352839172E-5,1.542345583E-1,1.542601630E-1
1.034256729E1,1.288074534E-3,-1.759461127E-3,1.510306746E-1,1.510464151E-1
1.035252329E1,-1.594797242E-3,-5.317442119E-4,1.491459608E-1,1.491554349E-1
1.036247929E1,-2.132703084E-4,-9.387303144E-4,1.501349360E-1,1.501380222E-1
1.037243529E1,-1.473478274E-3,1.603523269E-3,1.512012780E-1,1.512169596E-1
1.038239129E1,4.754707916E-4,-1.819181256E-3,1.525085717E-1,1.525201624E-1
1.039234729E1,-8.949919138E-4,8.146855980E-4,1.518425196E-1,1.518473427E-1
1.040230329E1,6.858793786E-4,-1.706826501E-3,1.536917239E-1,1.537027316E-1
1.041225829E1,-2.464107471E-3,-1.402161084E-3,1.519034058E-1,1.519298607E-1
1.042221429E1,-2.205994446E-3,-6.550522521E-4,1.528879106E-1,1.529052279E-1
1.043217029E1,1.860565972E-4,-3.991220146E-4,1.498074234E-1,1.498080706E-1
1.044212629E1,-1.801259350E-3,1.183492132E-3,1.539654881E-1,1.539805725E-1
1.045208229E1,1.678820699E-4,-2.253050916E-3,1.509843469E-1,1.510012497E-1
1.046203829E1,-2.003083238E-3,2.800654620E-4,1.515775919E-1,1.515910853E-1
1.047199429E1,1.132256119E-3,6.944537163E-4,1.513858438E-1,1.513916707E-1
1.048195029E1,-1.464309869E-3,-1.375572756E-4,1.537024230E-1,1.537094595E-1
1.049190629E1,-1.959125046E-3,1.948056743E-4,1.557378769E-1,1.557503208E-1
1.050186229E1,-1.110101119E-3,1.459714957E-3,1.552121192E-1,1.552229527E-1