"Time (s)","Gyroscope x (rad/s)","Gyroscope y (rad/s)","Gyroscope z (rad/s)","Absolute (rad/s)"
1.587979167E-2,-6.164893275E-4,-4.481961951E-4,6.037671119E-5,7.645811059E-4
2.583579167E-2,1.646159217E-4,-8.281040937E-5,-2.562729642E-4,3.156450502E-4
3.579179167E-2,1.327664941E-3,-2.592075616E-4,9.164209478E-4,1.633924756E-3
4.574879167E-2,-1.317386632E-3,4.760911688E-4,1.675954554E-3,2.184260517E-3
5.570479167E-2,-1.279488206E-3,1.915600151E-4,2.993001137E-3,3.260650413E-3
6.566079167E-2,4.331906093E-4,2.515434287E-3,1.844912302E-3,3.149407112E-3
7.561679167E-2,-4.837248707E-4,1.152012497E-3,4.306712188E-3,4.484293970E-3
8.557379167E-2,4.422562779E-4,-1.564145088E-3,3.729605116E-3,4.068426575E-3
9.552979167E-2,-8.935019141E-4,7.225479931E-5,2.680104226E-3,2.826044070E-3
1.054857917E-1,2.210310195E-4,-1.301137730E-3,3.772532567E-3,3.996725669E-3
1.154417917E-1,4.802725744E-5,-6.125671789E-4,3.486011643E-3,3.539748909E-3
1.253987917E-1,-7.690305356E-4,9.589642286E-4,1.378119923E-3,1.846682127E-3
1.353547917E-1,-1.585502876E-3,1.933760941E-4,2.280808985E-4,1.613454239E-3
1.453107917E-1,4.768490326E-4,1.170489937E-3,1.731168944E-3,2.143449931E-3
1.552677917E-1,-2.515316941E-3,-6.298758090E-4,-7.156590000E-4,2.689931347E-3
1.652237917E-1,-6.015694235E-4,-1.246930100E-3,1.892374828E-3,2.344739418E-3
1.751797917E-1,9.890249930E-4,3.393143415E-4,3.837694880E-3,3.977588044E-3
1.851357917E-1,-1.694500679E-4,-1.046062447E-3,2.105575055E-3,2.357203063E-3
1.950927917E-1,4.564609844E-4,1.492817886E-3,3.072950058E-3,3.446720750E-3
2.050487917E-1,5.110558122E-4,1.349274069E-3,2.367212437E-3,2.772257794E-3
2.150047917E-1,-2.247012686E-3,1.139329746E-3,3.226522822E-3,4.093603279E-3
2.249617917E-1,1.618164824E-4,1.306310296E-3,2.985773142E-3,3.263046494E-3
2.349186667E-1,8.842430543E-5,-7.424019277E-4,1.284268685E-3,1.486043584E-3
2.448746667E-1,2.490329091E-3,-4.020500928E-4,1.731980592E-4,2.528513560E-3
2.548306667E-1,-1.136673498E-3,-1.680022106E-4,5.450346507E-4,1.271736669E-3
2.647876667E-1,2.539287787E-3,-8.188793436E-4,1.277137548E-3,2.957976700E-3
2.747436667E-1,-6.462070160E-4,1.871072687E-3,2.988772932E-3,3.584865430E-3
2.846996667E-1,-1.924790675E-3,4.058014601E-4,6.515826099E-4,2.072209899E-3
2.946566667E-1,-2.247093711E-3,3.272015601E-5,3.462590277E-3,4.127957386E-3
3.046126667E-1,-1.301671378E-3,2.849223092E-4,3.665789962E-3,3.900454479E-3
3.145686667E-1,-1.117230509E-3,-1.161899418E-3,1.733816229E-3,2.367347246E-3
3.245246667E-1,-1.329261577E-4,6.740838289E-4,1.431014854E-3,1.587407284E-3
3.344816667E-1,6.727821892E-4,4.473198205E-4,2.180900890E-3,2.325738504E-3
3.444376667E-1,-2.004683483E-4,-9.218109772E-4,3.584653139E-3,3.706704893E-3
3.543936667E-1,-8.906896692E-4,3.174925223E-4,2.708144486E-3,2.868479762E-3
3.643506667E-1,-1.288299682E-3,8.123079315E-4,3.600353375E-4,1.564987441E-3
3.743066667E-1,-1.144001726E-5,2.448681742E-3,-1.140395179E-3,2.701235701E-3
3.842626667E-1,1.760893734E-3,6.270799786E-4,1.038070302E-3,2.138122072E-3
3.942186667E-1,-3.398553235E-4,-1.941429451E-3,1.636934467E-4,1.977737470E-3
4.041756667E-1,3.525665961E-4,-2.559144050E-4,2.029770520E-3,2.075997050E-3
4.141316667E-1,3.309464082E-4,1.760743558E-3,2.519081812E-3,3.091199861E-3
4.240876667E-1,4.978428595E-3,-1.218449324E-4,8.546058089E-4,5.052716947E-3
4.340446667E-1,-5.138427950E-3,-1.355140470E-3,3.022163175E-3,6.113372044E-3
4.440006667E-1,5.612694076E-4,1.472338103E-3,3.438947722E-3,3.782745600E-3
4.539566667E-1,7.295287796E-4,4.431987181E-4,4.514550325E-3,4.594540453E-3
4.639126667E-1,1.118350308E-3,-5.666716024E-4,1.651385333E-3,2.073378315E-3
4.738696667E-1,-6.779816467E-4,-3.604899161E-3,2.484979108E-3,4.430584413E-3
4.838256667E-1,-1.383452909E-3,-3.398638219E-4,2.751827706E-3,3.098710230E-3
4.937816667E-1,-3.496217774E-3,1.137409359E-3,1.805246342E-3,4.095870253E-3
5.037386667E-1,1.811994822E-3,1.440504566E-4,-4.421952181E-4,1.870725094E-3
5.136946667E-1,-4.691804061E-4,-1.673694700E-3,7.886984386E-4,1.908776946E-3
5.236506667E-1,-1.829256769E-3,7.886644453E-4,-5.271690898E-4,2.060601656E-3
5.336066667E-1,-1.024288358E-3,1.143749803E-3,-6.613852456E-4,1.671753779E-3
5.435636667E-1,8.971185889E-5,-1.472272910E-3,9.383754805E-4,1.748194578E-3
5.535196667E-1,1.315486268E-3,-4.850141704E-5,2.683633938E-3,2.989104820E-3
5.634756667E-1,9.522311157E-4,5.781399086E-4,1.390935387E-3,1.782046886E-3
5.734326667E-1,-8.291169070E-4,-1.849424094E-3,2.829066943E-3,3.480147137E-3
5.833886667E-1,-7.268516347E-4,-2.327194437E-3,1.472186297E-3,2.848065965E-3
5.933446667E-1,1.432471909E-4,5.496209487E-4,1.462972723E-4,5.865201078E-4
6.033006667E-1,1.269764267E-3,9.525576606E-4,3.329040948E-3,3.688113478E-3
6.132576667E-1,1.190100797E-3,-7.045250386E-4,4.646033049E-4,1.458955677E-3
6.232136667E-1,-8.746478707E-4,2.253980376E-3,4.805824719E-4,2.465034674E-3
6.331696667E-1,-1.464856439E-3,-2.729189582E-3,7.420065813E-4,3.185098732E-3
6.431266667E-1,-1.733569545E-3,1.457033679E-3,6.855479442E-4,2.366048709E-3
6.530826667E-1,-3.047734033E-3,-1.157610677E-3,2.399982885E-3,4.048291376E-3
6.630386667E-1,1.249009976E-3,4.259049892E-4,8.630724624E-4,1.576805332E-3
6.729946667E-1,7.018223405E-4,8.061602712E-4,2.382874489E-3,2.611616321E-3
6.829516667E-1,-8.012658218E-4,8.024312556E-4,2.877656370E-4,1.169928160E-3
6.929076667E-1,5.482863635E-4,-1.129712909E-3,1.353593543E-4,1.263008848E-3
7.028636667E-1,1.316874637E-3,-1.703623682E-3,3.056047950E-3,3.738438382E-3
7.128206667E-1,-1.473551267E-3,-1.516751945E-4,2.874062397E-3,3.233356361E-3
7.227766667E-1,-1.042651595E-3,-2.105310559E-4,-8.418466896E-4,1.356521847E-3
7.327326667E-1,-1.289051375E-3,-1.970009878E-3,-1.334019937E-3,2.705956681E-3
7.426886667E-1,1.109657809E-3,3.935452551E-4,1.765633002E-3,2.122187131E-3
7.526456667E-1,2.653303090E-4,8.463952690E-5,3.513707779E-4,4.483586132E-4
7.626016667E-1,3.790473565E-4,-8.719684556E-4,1.380682457E-3,1.676391939E-3
7.725576667E-1,-1.143506845E-3,2.202860080E-3,1.168390270E-3,2.743234634E-3
7.825146667E-1,1.488761627E-3,3.596860915E-4,1.776656136E-3,2.345696547E-3
7.924706667E-1,-1.217907295E-3,-1.334217377E-3,3.443239257E-5,1.806825885E-3
8.024266667E-1,4.750642693E-4,1.974760555E-3,3.248601686E-3,3.831289368E-3
8.123826667E-1,9.613764705E-4,-2.607675269E-3,6.082593463E-4,2.845029782E-3
8.223396667E-1,2.345687710E-3,3.684079275E-4,2.757696901E-3,3.639075079E-3
8.322956667E-1,-5.928518949E-4,-1.695998944E-3,1.066336874E-3,2.089248697E-3
8.422516667E-1,-4.132725764E-3,2.944478765E-4,1.626932528E-3,4.451183128E-3
8.522086667E-1,-2.329739276E-3,9.201243520E-4,9.318022057E-5,2.506590607E-3
8.621646667E-1,1.355010318E-3,9.438265115E-4,6.841309369E-5,1.652737667E-3
8.721206667E-1,-2.315473976E-4,-1.905863173E-3,1.745395362E-3,2.594674084E-3
8.820766667E-1,-2.419334138E-3,9.943190962E-4,1.505711116E-3,3.018114329E-3
8.920336667E-1,1.299708965E-3,9.100316092E-4,2.658516634E-3,3.095983143E-3
9.019896667E-1,-4.427973181E-4,-4.218146205E-4,1.791658346E-3,1.893155215E-3
9.119456667E-1,-2.089771442E-4,-3.230860457E-4,1.033111010E-3,1.102440202E-3
9.219026667E-1,1.683198847E-3,1.157632098E-3,9.883698076E-4,2.269393159E-3
9.318586667E-1,-5.392278545E-4,-4.744576290E-4,5.828183144E-3,5.872273451E-3
9.418146667E-1,-2.159200376E-4,1.654997468E-4,-1.173242927E-4,2.962711908E-4
9.517706667E-1,-3.376797773E-3,1.135414466E-3,7.463060319E-4,3.639904106E-3
9.617276667E-1,-3.967205994E-4,4.528462887E-4,2.371096052E-4,6.470532900E-4
9.716836667E-1,-2.002828289E-3,3.244699910E-4,2.491292544E-4,2.044178885E-3
9.816396667E-1,1.056078472E-3,1.284273341E-3,2.828666940E-3,3.281160833E-3
9.915966667E-1,4.658254329E-5,7.205745205E-4,2.553306520E-3,2.653445262E-3
1.001552667E0,1.128358650E-3,-2.703717910E-3,-9.996169247E-4,3.095564209E-3
1.011508667E0,3.844042774E-3,-2.312110737E-4,3.782040905E-3,5.397588056E-3
1.021464667E0,3.521059407E-4,-7.009925321E-4,1.982276328E-3,2.131850971E-3
1.031421667E0,-9.722439572E-4,9.080171585E-4,3.556522541E-3,3.797183964E-3
1.041377667E0,2.715967596E-3,-1.520520076E-3,4.145246930E-4,3.140110190E-3
1.051333667E0,-1.442944980E-3,-9.902101010E-5,4.840381444E-3,5.051849948E-3
1.061290667E0,-7.364082849E-4,-7.839854807E-4,2.045927104E-3,2.311438537E-3
1.071246667E0,1.454481739E-3,-2.408390865E-3,9.273053147E-4,2.962390729E-3
1.081202667E0,2.904572990E-3,-3.105606884E-3,-2.982816659E-4,4.262664697E-3
1.091159667E0,-1.355399727E-3,-1.537607983E-3,1.833738293E-3,2.750262325E-3
1.101115667E0,4.960299702E-4,-8.225496858E-4,3.013550304E-4,1.006701828E-3
1.111071667E0,2.330353716E-3,-8.375644684E-4,3.449902870E-4,2.500216187E-3
1.121027667E0,1.800118363E-3,1.398425549E-3,2.337034792E-3,3.264621227E-3
1.130984667E0,-1.020581112E-3,1.513022929E-3,-3.506615758E-4,1.858436906E-3
1.140940667E0,-1.288495143E-3,-8.939420804E-4,-3.887447529E-4,1.615696339E-3
1.150896667E0,-2.195186913E-3,8.569201455E-4,1.167563256E-3,2.629897655E-3
1.160853667E0,-3.949677106E-3,-8.541615680E-4,1.713777427E-3,4.389370603E-3
1.170809667E0,3.474872792E-4,-2.891255543E-3,2.668709494E-3,3.949951441E-3
1.180765667E0,-4.330852535E-4,5.508800969E-4,1.076672226E-3,1.284622435E-3
1.190721667E0,-9.075452108E-4,-7.713930681E-4,1.774231903E-3,2.136956813E-3
1.200678667E0,1.090624486E-3,4.552593455E-4,1.526557840E-3,1.930570300E-3
1.210634667E0,2.715624403E-3,1.987453550E-3,-5.105161108E-4,3.403705953E-3
1.220590667E0,1.343297656E-3,-1.417845488E-5,1.426134724E-3,1.959211543E-3
1.230547292E0,-2.321811393E-3,3.460105509E-4,2.872299403E-3,3.709533031E-3
1.240503292E0,-3.393201157E-3,5.713142455E-4,1.432062127E-3,3.727065333E-3
1.250459292E0,5.444139824E-4,-2.007753588E-3,1.948060468E-3,2.849982569E-3
1.260415292E0,3.252848750E-3,-2.551274374E-4,1.241257414E-3,3.490964762E-3
1.270372292E0,-1.805250999E-3,1.935279928E-3,3.516260069E-3,4.400945857E-3
1.280328292E0,9.151679697E-4,-4.256125540E-4,3.060860094E-3,3.222971140E-3
1.290284292E0,-3.913808614E-4,3.808066249E-4,3.285119310E-3,3.330195421E-3
1.300241292E0,4.877285683E-4,-7.987068966E-4,2.446490340E-3,2.619375278E-3
1.310197292E0,9.455161635E-4,-5.855346099E-4,1.233241986E-3,1.660643668E-3
1.320153292E0,2.500269562E-3,-1.147728413E-3,-2.083192579E-3,3.450843334E-3
1.330109292E0,7.442137576E-4,-5.921386182E-4,1.683225855E-4,9.658233549E-4
1.340066292E0,4.789629020E-4,-6.901426241E-4,-5.778954364E-4,1.019639857E-3
1.350022292E0,-1.183986664E-3,5.904240534E-4,9.017195553E-4,1.601100602E-3
1.359978292E0,-9.757275693E-4,1.515345648E-4,-1.226146240E-3,1.574306709E-3
1.369935292E0,-7.910884451E-4,-1.932621002E-3,2.057525329E-3,2.931596041E-3
1.379891292E0,1.441173139E-3,1.041863114E-3,3.179781139E-3,3.643276939E-3
1.389847292E0,-2.227030927E-4,-7.390975952E-4,1.246875618E-3,1.466479024E-3
1.399803292E0,-3.133538179E-3,-8.877012879E-4,1.986967865E-3,3.815116826E-3
1.409760292E0,-1.733489567E-3,8.199363947E-6,3.588229418E-3,3.985027436E-3
1.419716292E0,3.709403099E-4,-7.861945778E-5,2.300591208E-3,2.331629825E-3
1.429672292E0,-1.571133267E-3,6.919726729E-6,1.844298095E-5,1.571256748E-3
1.439629292E0,1.607349492E-3,4.668477923E-4,-9.408276528E-4,1.920071853E-3
1.449585292E0,-1.481842017E-3,9.488509968E-4,2.240580041E-3,2.848924867E-3
1.459541292E0,-3.856850090E-4,6.132936105E-4,2.375868615E-3,2.483874726E-3
1.469497292E0,-8.860692615E-4,3.683902323E-4,1.139910892E-3,1.490042597E-3
1.479454292E0,2.297951141E-4,5.673281848E-4,2.907450777E-3,2.971184458E-3
1.489410292E0,7.929654093E-4,9.318944067E-4,-4.627080634E-4,1.308174330E-3
1.499366292E0,-1.976722153E-3,7.076561451E-4,4.190648906E-4,2.140986472E-3
1.509323292E0,2.219013404E-4,-5.617905408E-4,2.430787776E-3,2.504711166E-3
1.519279292E0,1.757746330E-3,-7.037371397E-4,8.374182507E-4,2.070310954E-3
1.529235292E0,-7.175485371E-4,-9.045656770E-4,1.459621359E-3,1.861077505E-3
1.539191292E0,-2.137545962E-3,8.174348623E-4,2.162695862E-3,3.148738777E-3
1.549148292E0,-1.190357725E-3,-1.078463160E-3,2.625422087E-3,3.077803670E-3
1.559104292E0,1.896923641E-4,-1.879009418E-3,8.115428500E-4,2.055544060E-3
1.569060292E0,4.215340596E-5,-2.168109640E-4,9.026844054E-6,2.210551689E-4
1.579017292E0,-8.460108656E-4,-1.509242691E-3,-1.744132489E-3,2.456734830E-3
1.588973292E0,-2.728783293E-4,8.571958169E-4,-1.970326295E-3,2.165971597E-3
1.598929292E0,7.700155256E-4,-2.432075329E-3,6.893728860E-4,2.642564908E-3
1.608885292E0,-2.721340861E-3,1.252721995E-5,4.315348342E-4,2.755372085E-3
1.618842292E0,-4.683067091E-4,-1.928023994E-4,1.489734277E-4,5.278986845E-4
1.628798292E0,5.796459154E-4,1.303385943E-5,-1.809182577E-4,6.073637170E-4
1.638754292E0,1.861158991E-3,-5.358438939E-4,-7.377853617E-4,2.072527131E-3
1.648711292E0,-2.568269847E-4,-2.961875871E-4,1.849198714E-3,1.890297085E-3
1.658667292E0,1.836151350E-3,-1.198733225E-3,4.222770222E-4,2.233098970E-3
1.668623292E0,7.909977576E-4,6.999699399E-4,1.273004804E-3,1.654139232E-3
1.678579292E0,-1.335802721E-3,-7.844762877E-4,1.112948637E-3,1.907466022E-3
1.688536292E0,-6.075637648E-4,6.772959605E-4,-1.284387428E-3,1.574012266E-3
1.698492292E0,-1.287274063E-4,4.322854802E-4,3.053635359E-3,3.086766980E-3
1.708448292E0,-3.505167319E-3,-1.272699796E-3,-6.099250168E-4,3.778620281E-3
1.718405292E0,1.272810041E-3,-1.748341136E-3,-3.476285376E-3,4.094056929E-3
1.728361292E0,-3.064350225E-3,1.238062978E-4,9.669628926E-4,3.215678394E-3
1.738317292E0,-7.553898031E-4,4.218146205E-4,1.509715337E-3,1.740052220E-3
1.748273292E0,-3.764382098E-3,1.592613757E-3,9.906012565E-4,4.205743930E-3
1.758230292E0,3.065257333E-4,-3.035571426E-4,2.142898738E-4,4.816898526E-4
1.768186292E0,-4.107403802E-4,1.815751195E-3,2.934024669E-3,3.474789320E-3
1.778142292E0,6.499966257E-4,-6.370199844E-4,8.245343342E-4,1.228066343E-3
1.788099292E0,4.481713986E-4,-9.380569682E-4,-1.737242565E-4,1.054034437E-3
1.798055292E0,1.183736487E-3,-9.417859837E-4,2.281465568E-4,1.529785528E-3
1.808011292E0,-1.704774331E-5,7.633669302E-4,9.464109316E-4,1.216023580E-3
1.817968292E0,-5.025418941E-4,-1.204975881E-3,3.844839521E-4,1.361008133E-3
1.827924292E0,-2.016196959E-4,-1.416414976E-3,-2.790360013E-3,3.135760018E-3
1.837880292E0,-8.090867195E-4,-1.143440604E-3,-4.696813412E-4,1.477389014E-3
1.847836292E0,-3.753911005E-4,-1.216207631E-3,-8.853930049E-4,1.550483877E-3
1.857793292E0,-1.546649379E-3,-4.809089005E-4,3.512551077E-3,3.867998544E-3
1.867749292E0,1.778383390E-3,-3.071269020E-4,1.575453207E-3,2.395626687E-3
1.877705292E0,-6.632027216E-4,-1.733781770E-3,1.386635005E-3,2.317022597E-3
1.887661292E0,-3.233260941E-4,1.046116464E-3,7.982384413E-4,1.355021781E-3
1.897618292E0,-2.390738111E-3,1.877289265E-3,-6.398684345E-4,3.106328269E-3
1.907574292E0,1.751901582E-3,-1.870394684E-3,1.928543206E-3,3.207306397E-3
1.917530292E0,1.214209246E-3,-2.097561955E-3,3.293151967E-4,2.445918794E-3
1.927487292E0,-9.030945366E-4,2.782818861E-3,-1.054136548E-3,3.109801347E-3
1.937443292E0,2.879393287E-3,-6.199022755E-4,-1.569176093E-4,2.949543637E-3
1.947399292E0,-2.164935227E-3,3.397769295E-3,4.835166037E-4,4.057778829E-3
1.957355292E0,5.150037468E-4,-1.096138731E-4,1.068346668E-3,1.191053594E-3
1.967312292E0,-2.097627614E-3,1.197131351E-3,1.779631246E-3,3.000042074E-3
1.977268292E0,-3.173043951E-4,-6.154160947E-4,9.737587534E-4,1.194832691E-3
1.987224292E0,-1.574436552E-3,-1.452575438E-3,1.401982270E-3,2.560152367E-3
1.997181292E0,1.747856848E-3,1.014577225E-3,2.821713220E-3,3.470797603E-3
2.007137292E0,4.361208994E-5,-1.447280869E-3,1.237354241E-3,1.904617927E-3
2.017093292E0,4.465483362E-4,9.250631556E-4,7.771598175E-4,1.288070122E-3
2.027050292E0,2.013895428E-4,-1.788106747E-3,-1.816015225E-3,2.556520053E-3
2.037006292E0,7.739692228E-4,9.818477556E-4,1.491364092E-3,1.946078166E-3
2.046962292E0,-1.588921528E-3,1.437239349E-3,-7.532984018E-4,2.271076188E-3
2.056918292E0,-9.249954019E-4,2.958085388E-4,9.649731219E-4,1.369047958E-3
2.066875292E0,-1.172228367E-3,3.539156169E-4,2.412120812E-4,1.248021986E-3
2.076831292E0,-1.160776592E-3,7.549878210E-4,1.346157864E-3,1.931204262E-3
2.086787292E0,-2.163656754E-4,1.121917740E-3,-5.940068513E-4,1.287772363E-3
2.096743292E0,1.282727695E-3,1.035248861E-4,1.227861736E-3,1.778693955E-3
2.106700292E0,-5.666010547E-4,1.824309118E-3,6.349636242E-4,2.013037336E-3
2.116656292E0,-1.229195390E-3,5.463883281E-5,-8.263126947E-4,1.482126640E-3
2.126612292E0,2.578466898E-3,2.105734311E-3,4.176748917E-5,3.329317206E-3
2.136569292E0,1.687905868E-3,1.652730629E-3,2.023958601E-3,3.110780154E-3
2.146525292E0,-4.614915233E-4,-3.534583375E-4,2.238745335E-3,2.312982469E-3
2.156481292E0,5.931202322E-4,-1.222966239E-4,-2.534412779E-4,6.564910932E-4
2.166438292E0,-2.642164007E-3,-8.806772530E-4,-2.187656937E-3,3.541534404E-3
2.176394292E0,5.730704288E-4,-1.154717058E-3,-1.355418935E-3,1.870545827E-3
2.186350292E0,3.918107599E-3,-4.938831553E-4,-7.169377059E-4,4.013662592E-3
2.196306292E0,1.755673438E-4,-1.466203481E-3,-3.994889557E-4,1.529760754E-3
2.206263292E0,1.377164503E-3,1.989726909E-3,3.007627092E-4,2.438453084E-3
2.216219292E0,-8.705434157E-4,-1.874519512E-3,1.694661099E-3,2.672741192E-3
2.226175292E0,1.122299582E-4,9.486498311E-4,1.774454024E-3,2.015246672E-3
2.236130792E0,2.945833374E-3,3.043492325E-3,1.657807734E-3,4.548527924E-3
2.246087792E0,3.793064039E-3,-1.044945791E-3,7.909210399E-4,4.013078943E-3
2.256043792E0,5.911453627E-4,3.926288337E-4,-9.033819661E-4,1.148785975E-3
2.265999792E0,4.403332714E-4,-7.659932598E-4,-1.608624589E-3,1.835296197E-3
2.275956792E0,-4.805878270E-4,4.484085366E-4,-1.764153130E-3,1.882623473E-3
2.285912792E0,4.601210821E-4,1.506639645E-3,-1.646797638E-3,2.278950831E-3
2.295868792E0,1.409005374E-3,-1.263580285E-3,1.175620593E-3,2.228006970E-3
2.305824792E0,2.198480070E-5,-2.500798553E-3,4.600058310E-4,2.542849209E-3
2.315781792E0,-1.026768005E-3,-1.151640899E-3,1.482659951E-3,2.139815372E-3
2.325737792E0,1.824922976E-3,7.815621793E-4,9.943647310E-4,2.220347839E-3
2.335693792E0,-1.031051041E-3,3.440054134E-4,2.923514694E-5,1.087318107E-3
2.345650792E0,-2.084605629E-3,-4.107868299E-4,2.597042825E-3,3.355437063E-3
2.355606792E0,-1.014014706E-3,1.846961677E-4,9.448174387E-4,1.398219758E-3
2.365562792E0,1.363555202E-4,-9.494470432E-4,3.843847662E-4,1.033341262E-3
2.375518792E0,5.858970690E-4,3.528390080E-4,1.438464038E-3,1.592780440E-3
2.385475792E0,-8.949802723E-4,-1.028925180E-5,-2.512359992E-3,2.667029862E-3
2.395431792E0,1.850206172E-3,9.367316961E-4,1.893040724E-3,2.807905328E-3
2.405387792E0,-2.071458846E-3,1.563113183E-4,-1.858230680E-4,2.085642633E-3
2.415344792E0,-2.152951667E-3,9.113168344E-4,1.574260183E-3,2.818509247E-3
2.425300792E0,1.440424123E-3,1.142583787E-3,-8.471505716E-4,2.024347662E-3
2.435256792E0,-6.067479262E-4,-1.477433369E-3,1.681786962E-3,2.319344690E-3
2.445212792E0,2.647044603E-4,6.935838610E-5,3.259697463E-3,3.271162880E-3
2.455169792E0,-1.044239034E-3,-1.555702649E-3,1.254235394E-4,1.877865000E-3
2.465125792E0,5.701354239E-4,-6.107985973E-5,9.853546508E-4,1.140047779E-3
2.475081792E0,-2.101813909E-3,2.287828363E-3,4.122824874E-3,5.162312008E-3
2.485038792E0,-1.291102031E-3,-1.697284169E-3,1.797324978E-3,2.788923642E-3
2.494994792E0,4.982757964E-4,1.187718473E-3,6.066253409E-4,1.423709326E-3
2.504950792E0,5.107175093E-5,-2.359482460E-3,-9.133950807E-4,2.530623713E-3
2.514906792E0,-3.465381451E-4,-1.227373257E-3,-1.241229940E-3,1.779658833E-3
2.524863792E0,1.034838264E-3,1.313934103E-3,-3.910223022E-4,1.717617972E-3
2.534819792E0,1.755755977E-3,-5.649263039E-4,-2.517392859E-4,1.861503007E-3
2.544775792E0,-2.382633742E-3,-5.729272962E-4,1.488944516E-3,2.867428291E-3
2.554732792E0,-2.385228872E-4,-1.116477884E-3,1.613047905E-3,1.976193204E-3
2.564688792E0,5.784657551E-4,8.550807834E-4,-1.949360128E-3,2.205853732E-3
2.574644792E0,-1.135810977E-3,-9.883595631E-4,2.727683168E-3,3.115634232E-3
2.584600792E0,-7.344533224E-4,1.103401184E-3,7.932907902E-4,1.544741446E-3
2.594557792E0,4.239089321E-5,2.018197440E-3,-1.231244300E-3,2.364504265E-3
2.604513792E0,1.671619248E-5,-1.428913325E-3,5.581039004E-4,1.534129292E-3
2.614469792E0,-5.079265684E-4,-5.125198513E-4,5.759466439E-4,9.232445687E-4
2.624426792E0,-1.796020311E-3,4.305848852E-4,-4.739877768E-4,1.906766036E-3
2.634382792E0,-2.364732791E-4,-1.038947143E-3,-1.852173824E-3,2.136791672E-3
2.644338792E0,4.274602979E-4,1.655369066E-3,-2.968735760E-3,3.425837279E-3
2.654294792E0,1.646389137E-3,-2.580122091E-3,-2.393492963E-3,3.885413203E-3
2.664251792E0,8.547187317E-4,3.494331613E-3,1.048489939E-3,3.747029315E-3
2.674207792E0,-8.462422993E-4,7.552709430E-4,3.052518237E-3,3.256444045E-3
2.684163792E0,-4.504077369E-4,-2.112658694E-4,2.099625766E-3,2.157760125E-3
2.694120792E0,4.193806672E-4,-1.107418910E-3,9.326282889E-4,1.507332847E-3
2.704076792E0,-3.128452227E-4,8.194632828E-4,2.333057113E-3,2.492498284E-3
2.714032792E0,-1.797557576E-3,-4.119817168E-4,2.235851251E-3,2.898270689E-3
2.723988792E0,-2.284340095E-3,1.598168164E-3,-1.947963610E-3,3.401016521E-3
2.733945792E0,-3.875233233E-6,1.336378977E-3,9.482242167E-4,1.638613118E-3
2.743901792E0,1.093473984E-4,-5.160933360E-4,-1.843866426E-3,1.917851033E-3
2.753857792E0,-1.281621517E-3,2.194205299E-3,-2.498205286E-3,3.563442192E-3
2.763814792E0,3.853569273E-3,1.206741668E-3,-3.450429067E-4,4.052810901E-3
2.773770792E0,-2.293805126E-3,2.303165384E-3,-2.728709951E-4,3.261988860E-3
2.783726792E0,2.557612024E-4,4.925103858E-4,-6.506093778E-4,8.551449206E-4
2.793682792E0,-8.097696118E-4,-2.647622488E-3,1.610680483E-3,3.203111501E-3
2.803639792E0,1.648904290E-4,9.148688987E-4,9.901137091E-4,1.358123379E-3
2.813595792E0,-1.653515967E-3,4.296414554E-4,2.478554379E-3,3.010305407E-3
2.823551792E0,-2.430464374E-4,1.430800185E-3,2.554067411E-3,2.937604649E-3
2.833508792E0,-1.005243277E-3,-3.183642402E-4,1.814574935E-4,1.069951708E-3
2.843464792E0,-1.942555071E-3,1.814777963E-3,-6.525409408E-4,2.737288611E-3
2.853420792E0,-3.461888526E-3,1.145791262E-3,7.396936417E-5,3.647325218E-3
2.863377792E0,3.234468168E-4,1.258560456E-3,-2.137208357E-3,2.501250053E-3
2.873333792E0,1.768477960E-3,-1.147871837E-3,-1.784605440E-3,2.762234715E-3
2.883289792E0,1.924084267E-3,4.951665178E-4,9.367242455E-6,1.986800919E-3
2.893245792E0,-1.170775155E-3,1.256297342E-3,2.257607877E-3,2.836510321E-3
2.903202792E0,-2.792231971E-4,6.163865328E-5,1.665217336E-3,1.689589801E-3
2.913158792E0,1.318939845E-3,1.489891671E-3,1.274265349E-3,2.362865143E-3
2.923114792E0,-7.383442717E-4,1.700809225E-4,3.032494802E-3,3.125716639E-3
2.933070792E0,1.429202384E-3,-3.697415814E-4,2.830360550E-3,3.192220095E-3
2.943027792E0,-9.143983480E-4,1.539841294E-3,1.885990612E-3,2.600806825E-3
2.952983792E0,1.065661898E-3,-6.170524284E-4,8.950289339E-4,1.522322493E-3
2.962939792E0,1.529095811E-3,-8.173640817E-4,3.205146641E-4,1.763220829E-3
2.972896792E0,1.781030791E-3,-4.612989724E-4,3.775064833E-4,1.878131669E-3
2.982852792E0,3.177000908E-4,1.343687065E-3,-1.620991156E-3,2.129328674E-3
2.992808792E0,-9.837867692E-4,2.033712342E-3,-7.402841002E-4,2.377360479E-3
3.002764792E0,9.937784635E-4,1.474283636E-5,-1.874159090E-3,2.121387584E-3
3.012721792E0,1.322412514E-3,-2.312860452E-3,-1.864572056E-3,3.251880575E-3
3.022677792E0,-8.170027286E-4,1.018852927E-3,4.028291907E-3,4.234700749E-3
3.032633792E0,3.072277643E-3,8.478779346E-4,9.840326384E-4,3.335581979E-3
3.042590792E0,-8.828218561E-4,9.732190520E-4,2.139089629E-4,1.331272623E-3
3.052546792E0,1.690324396E-3,2.147508785E-4,8.578612469E-4,1.907679329E-3
3.062502792E0,-1.437572646E-3,2.943514846E-3,9.815050289E-4,3.419685203E-3
3.072458792E0,2.599263098E-4,-3.043748438E-5,-2.600606531E-4,3.689439934E-4
3.082415792E0,-1.959398855E-3,-1.602247357E-5,5.699358881E-4,2.040668397E-3
3.092371792E0,-1.292744419E-4,-3.865920007E-5,-2.059935592E-3,2.064350033E-3
3.102327792E0,-1.163644483E-4,2.199407667E-3,5.274731666E-4,2.264765487E-3
3.112284792E0,-2.043161541E-3,2.384763211E-3,-2.307286486E-4,3.148783950E-3
3.122240792E0,-1.419282984E-3,-1.554931514E-3,-7.401527837E-4,2.231591886E-3
3.132196792E0,-2.232612344E-3,-1.718715765E-3,1.888386905E-3,3.391835323E-3
3.142152792E0,-3.643288277E-3,3.184601665E-4,1.754140947E-3,4.056103649E-3
3.152109792E0,-8.538934635E-4,-6.527947262E-4,2.993575763E-3,3.180687166E-3
3.162065792E0,1.155421487E-3,3.019346856E-3,2.657540608E-3,4.184970290E-3
3.172021792E0,-1.135163475E-3,1.781242900E-3,3.632523585E-3,4.201981673E-3
3.181978792E0,-4.207529128E-4,-3.647860140E-4,-6.578816101E-5,5.607405208E-4
3.191934792E0,9.648897685E-4,-1.105677336E-3,9.936173446E-4,1.772233073E-3
3.201890792E0,-2.474717796E-3,9.581223130E-4,1.245287713E-3,2.931376472E-3
3.211846792E0,-2.186031081E-3,-8.528279141E-4,1.867135987E-3,2.998707076E-3
3.221803792E0,-1.915895846E-3,-5.688155070E-4,-1.866054256E-3,2.734294508E-3
3.231760417E0,-9.278631769E-4,-1.736611128E-3,-1.152921468E-4,1.972318576E-3
3.241716417E0,-4.851527046E-5,-9.445762262E-4,1.916866750E-4,9.650501333E-4
3.251673417E0,9.096901049E-4,-1.924619079E-3,3.401190042E-6,2.128780461E-3
3.261629417E0,8.210221422E-4,8.399430662E-4,8.350959979E-4,1.441168636E-3
3.271585417E0,1.442603883E-3,-5.555534735E-4,-1.930863131E-3,2.473454680E-3
3.281541417E0,-1.340455376E-3,1.881122589E-4,2.356451005E-4,1.373948853E-3
3.291498417E0,-2.360425424E-4,-5.610007793E-5,1.157897990E-3,1.183043134E-3
3.301454417E0,-1.061041257E-3,-3.630425781E-4,-7.019084878E-4,1.322982989E-3
3.311410417E0,-1.916448702E-3,1.621278003E-3,1.842475496E-3,3.113845524E-3
3.321367417E0,6.635778700E-4,-2.761239186E-3,8.519482799E-4,2.964893472E-3
3.331323417E0,-5.747920368E-4,1.156270504E-3,1.922272611E-3,2.315702778E-3
3.341279417E0,1.140788896E-3,-1.211217605E-3,-4.278924316E-4,1.718004460E-3
3.351236417E0,-1.342076343E-3,-1.353430562E-3,-1.729378942E-3,2.573653963E-3
3.361192417E0,-2.265740652E-3,1.841887832E-3,5.188621581E-4,2.965695437E-3
3.371148417E0,2.434897469E-4,-2.280685119E-3,-6.523961201E-4,2.384624198E-3
3.381104417E0,1.773905242E-4,-1.652494073E-3,1.775295939E-3,2.431846979E-3
3.391061417E0,2.739085117E-3,7.350295782E-4,1.700195018E-3,3.306587192E-3
3.401017417E0,-3.583568847E-3,-2.280855551E-4,8.421959355E-4,3.688262829E-3
3.410973417E0,4.210264888E-4,-1.130364835E-3,-2.183687873E-3,2.494690500E-3
3.420930417E0,1.320607378E-3,-3.258085810E-3,1.017410774E-3,3.659815798E-3
3.430886417E0,-2.226944780E-4,8.804667741E-4,6.416388787E-4,1.111986970E-3
3.440842417E0,-2.592540113E-4,-1.421030611E-3,7.583322003E-4,1.631443645E-3
3.450798417E0,-8.648568764E-4,1.991277561E-3,3.045299090E-4,2.192236804E-3
3.460755417E0,-2.322401153E-3,1.806365326E-4,6.077904254E-4,2.407402308E-3
3.470711417E0,2.255040221E-3,1.306620426E-3,-3.158984473E-3,4.095320041E-3
3.480667417E0,1.207818626E-3,-1.171380281E-4,2.240322530E-3,2.547860316E-3
3.490623417E0,-1.356272842E-3,-6.521670148E-4,1.741779037E-3,2.301867079E-3
3.500580417E0,-8.229040541E-4,-1.437645406E-4,-1.119488850E-3,1.396815883E-3
3.510536417E0,1.301765908E-3,1.101796515E-3,1.139670610E-3,2.051194564E-3
3.520492417E0,1.373795094E-3,-9.297979996E-4,2.205067314E-3,2.759376585E-3
3.530449417E0,1.708820695E-3,3.437260166E-4,-1.175549347E-3,2.102410999E-3
3.540405417E0,-8.786034305E-4,1.865810715E-3,-1.598452218E-4,2.068512535E-3
3.550361417E0,-1.416562125E-3,-2.913493663E-4,8.143717423E-5,1.448504305E-3
3.560318417E0,5.759826163E-4,3.691250458E-4,1.918136608E-3,2.036481603E-3
3.570274417E0,-1.066921395E-3,-1.298014075E-3,-2.738400130E-3,3.212786496E-3
3.580230417E0,-9.509371594E-4,-1.217669807E-3,-2.764705569E-3,3.167111953E-3
3.590186417E0,-2.529227640E-4,2.382124774E-3,-1.838724595E-3,3.019833853E-3
3.600143417E0,3.749703756E-4,-2.760241739E-3,-3.104548901E-3,4.171062350E-3
3.610099417E0,1.395759988E-3,-1.069666818E-3,-2.435147762E-4,1.775283777E-3
3.620055417E0,6.319520180E-4,8.005546406E-4,7.652151398E-4,1.275070702E-3
3.630012417E0,-5.619431613E-4,-1.592828892E-3,-6.100414321E-4,1.795838118E-3
3.639968417E0,1.941586379E-3,-5.781650543E-5,-1.051507890E-3,2.208793621E-3
3.649924417E0,-1.351145911E-3,1.608257182E-3,-2.326117828E-5,2.100625507E-3
3.659880417E0,-2.617939841E-3,1.098640263E-3,-6.567360833E-5,2.839882473E-3
3.669837417E0,4.249881022E-4,1.102101989E-3,1.944480464E-3,2.275136909E-3
3.679793417E0,-1.155002275E-3,3.761854023E-4,7.757004350E-4,1.441269190E-3
3.689749417E0,8.389063296E-4,8.520921692E-4,-3.308430314E-4,1.240678043E-3
3.699706417E0,-1.209370093E-4,-1.630852930E-3,-1.819004305E-3,2.446034280E-3
3.709662417E0,-9.209506679E-4,9.846370667E-4,-9.148609824E-4,1.629303809E-3
3.719618417E0,1.213406213E-3,-3.660076298E-3,-1.668294892E-3,4.201395124E-3
3.729574417E0,-4.880874185E-4,-1.060878858E-4,1.654530875E-3,1.728281339E-3
3.739531417E0,4.786162172E-4,4.486469552E-4,1.029940322E-4,6.640522151E-4
3.749487417E0,4.771365784E-3,-3.764005378E-4,1.199417282E-3,4.934187940E-3
3.759443417E0,-5.089929327E-4,3.350432962E-4,1.811741851E-3,1.911474915E-3
3.769400417E0,2.455105539E-3,-5.067819729E-4,5.778991617E-4,2.572613189E-3
3.779356417E0,-2.655088902E-4,1.034451649E-3,1.602572389E-3,1.925830586E-3
3.789312417E0,-1.150477212E-3,3.484217450E-4,1.228132285E-3,1.718518093E-3
3.799268417E0,9.081007447E-4,-1.299316064E-3,-2.500540577E-4,1.604804109E-3
3.809225417E0,1.642067917E-3,-1.417826861E-3,-1.523159444E-4,2.174814980E-3
3.819181417E0,-1.612533815E-4,-1.248159446E-3,-1.369431615E-3,1.859905267E-3
3.829137417E0,1.497096964E-3,2.073600888E-3,-3.052325919E-4,2.575710950E-3
3.839094417E0,-1.340490067E-3,2.964353189E-4,7.291589864E-4,1.554496815E-3
3.849050417E0,-1.960207708E-3,2.416311763E-3,-1.474872697E-3,3.443287131E-3
3.859006417E0,-1.690435573E-3,-3.403332084E-4,-1.220801845E-3,2.112760342E-3
3.868962417E0,8.579432615E-4,1.421613619E-3,3.864159808E-4,1.704807682E-3
3.878919417E0,3.736997023E-4,-8.444963023E-4,4.035387188E-3,4.139707143E-3
3.888875417E0,-3.398135072E-3,-2.656511031E-3,1.055575907E-3,4.440564527E-3
3.898831417E0,-8.268980309E-7,2.114105970E-3,1.695610117E-3,2.710080885E-3
3.908788417E0,-1.273817848E-3,-1.701937057E-3,1.290276647E-3,2.486768080E-3
3.918744417E0,1.451156219E-3,-1.426687464E-3,1.757621299E-3,2.688963392E-3
3.928700417E0,-2.039715415E-3,-1.381945796E-3,-5.545350723E-4,2.525415274E-3
3.938656417E0,-2.489944454E-4,-2.282382920E-4,-2.790199593E-3,2.810570177E-3
3.948613417E0,-8.520996198E-5,2.633817494E-4,-4.825703800E-4,5.563316054E-4
3.958569417E0,-1.774044242E-3,2.675065771E-4,-1.470764168E-3,2.319900855E-3
3.968525417E0,-4.587088479E-4,1.248349436E-3,-1.200719737E-3,1.791791842E-3
3.978482417E0,-1.726145856E-3,-4.849620163E-4,-1.510158181E-3,2.344215307E-3
3.988438417E0,-1.697649946E-3,2.281529829E-3,7.463381626E-4,2.940138492E-3
3.998394417E0,-2.179299016E-3,-9.879600257E-4,-2.919277176E-5,2.392960808E-3
4.008350417E0,-1.089267083E-3,-5.187112838E-4,-2.026297152E-3,2.358271469E-3
4.018307417E0,-1.760523766E-3,3.905836493E-4,2.123722807E-4,1.815792253E-3
4.028263417E0,-2.953087213E-3,-2.642869949E-4,2.192966640E-4,2.972988854E-3
4.038219417E0,-1.401316142E-3,1.430604607E-4,-8.434304036E-4,1.641806344E-3
4.048176417E0,-2.412784845E-3,-5.988962948E-4,-5.036108196E-4,2.536499820E-3
4.058132417E0,-2.084131585E-3,9.304294363E-4,1.715873368E-4,2.288830622E-3
4.068088417E0,-3.671917366E-4,-2.109835856E-3,1.499173231E-3,2.614145651E-3
4.078045417E0,-2.457478549E-3,-1.022999175E-3,-2.384525258E-3,3.573749969E-3
4.088001417E0,-1.942689531E-3,-1.778804697E-3,-3.778333776E-4,2.661004852E-3
4.097957417E0,-1.695072278E-3,4.091225564E-4,2.642196137E-3,3.165730836E-3
4.107913417E0,3.012333764E-4,4.253676161E-4,1.363080461E-3,1.459338034E-3
4.117870417E0,-8.967472240E-6,1.112623140E-3,2.602645196E-3,2.830507496E-3
4.127826417E0,1.138855005E-3,-1.508726738E-3,-2.926609712E-3,3.484005094E-3
4.137782417E0,2.612221288E-4,1.163161360E-3,7.350738160E-4,1.400540918E-3
4.147739417E0,7.107236888E-5,-1.396136358E-3,6.040465087E-4,1.522865784E-3
4.157695417E0,-6.919078296E-4,1.380189322E-3,1.760431100E-3,2.341532973E-3
4.167651417E0,-1.321479096E-3,1.637983136E-3,3.377702087E-4,2.131521632E-3
4.177607417E0,-4.613198107E-4,-1.679733396E-4,4.955101758E-4,6.975394934E-4
4.187564417E0,2.481463598E-4,-1.522609964E-4,-6.304746494E-4,6.944482057E-4
4.197520417E0,-7.413488347E-4,-1.054498367E-3,7.031341083E-4,1.468319609E-3
4.207476417E0,-1.102739712E-3,-6.345175207E-4,3.252313472E-4,1.313172794E-3
4.217433417E0,-3.632073058E-3,1.785343513E-3,2.758365590E-3,4.897753249E-3
4.227389417E0,5.341760698E-4,5.658827722E-4,-3.301021643E-4,8.453016173E-4
4.237344792E0,1.389175188E-3,-6.966022775E-4,1.082518138E-3,1.893913397E-3
4.247300792E0,2.507170197E-3,6.240596995E-4,1.615416724E-3,3.047117342E-3
4.257257792E0,3.423539456E-4,1.555692405E-3,1.053744927E-5,1.592952014E-3
4.267213792E0,-2.883799374E-3,-6.675142795E-4,-8.235643618E-4,3.072479846E-3
4.277169792E0,5.276189768E-4,-2.189920284E-3,-6.166039966E-4,2.335451375E-3
4.287126792E0,1.051995438E-3,-4.386249930E-4,2.921232954E-5,1.140148958E-3
4.297082792E0,-4.415321164E-4,-1.055796631E-3,-5.230647512E-4,1.258274163E-3
4.307038792E0,-1.005589729E-3,1.254228875E-3,-1.476742793E-3,2.182904041E-3
4.316994792E0,-1.805077773E-3,1.802477054E-3,-1.551201567E-4,2.555639168E-3
4.326951792E0,1.461289241E-3,7.523931563E-4,1.369006932E-3,2.139074961E-3
4.336907792E0,-8.388110436E-4,-1.100161113E-3,1.580564305E-3,2.100509930E-3
4.346863792E0,4.695635289E-5,-2.135951072E-4,8.575157262E-4,8.849638352E-4
4.356820792E0,-9.983608034E-4,-1.090480015E-3,-9.109047242E-4,1.736553590E-3
4.366776792E0,-1.351762330E-3,-1.275037415E-3,2.657731529E-3,3.242918237E-3
4.376732792E0,-1.374856103E-3,-2.832293510E-3,1.140539534E-3,3.348573766E-3
4.386689792E0,-2.016677754E-3,-4.777926952E-4,1.472369302E-3,2.542271894E-3
4.396645792E0,-1.330221538E-3,-7.917638868E-5,-8.189477958E-4,1.564107967E-3
4.406601792E0,5.542102735E-5,-1.848047599E-3,8.303481154E-4,2.026778087E-3
4.416557792E0,3.505253699E-5,-1.655845903E-3,-4.475638270E-4,1.715624584E-3
4.426514792E0,-1.886950689E-3,9.031854570E-4,-1.181264874E-3,2.402439089E-3
4.436470792E0,-3.139158944E-4,2.105385065E-4,-1.038641669E-3,1.105281036E-3
4.446426792E0,1.151088974E-3,-2.799099311E-3,2.822093666E-5,3.026674611E-3
4.456383792E0,1.511596609E-3,-1.991451718E-3,1.625809819E-3,2.982291371E-3
4.466339792E0,1.734503196E-3,-3.156851046E-3,-6.695687771E-4,3.663677416E-3
4.476295792E0,5.430075689E-4,-1.838190481E-3,1.300474629E-3,2.316254676E-3
4.486251792E0,-1.545727719E-5,-1.375066116E-3,-6.753243506E-4,1.532027653E-3
4.496208792E0,-9.474365506E-4,1.161023974E-3,7.002102211E-5,1.500171867E-3
4.506164792E0,-1.108557684E-3,-1.010251231E-3,3.927610349E-3,4.204239615E-3
4.516120792E0,1.286707120E-4,-1.675425097E-3,1.362878829E-4,1.685876566E-3
4.526077792E0,-1.235400327E-3,7.371325046E-4,4.026042297E-4,1.493876990E-3
4.536033792E0,3.595834598E-3,1.069237478E-3,-1.110500190E-3,3.912352989E-3
4.545989792E0,2.131628571E-3,-1.315888949E-3,-2.028758172E-3,3.223548326E-3
4.555945792E0,-1.268249005E-3,-5.452893674E-6,-4.797698930E-4,1.355973607E-3
4.565902792E0,1.036983216E-3,-1.719197258E-3,3.490056843E-4,2.037836689E-3
4.575858792E0,5.096391542E-4,-5.165049806E-4,1.327181701E-3,1.512587429E-3
4.585814792E0,2.572523663E-3,-5.998620763E-4,-6.052078679E-4,2.709979533E-3
4.595771792E0,-1.721811248E-3,-3.401050344E-4,1.210900955E-3,2.132272621E-3
4.605727792E0,-1.534590963E-3,7.881037891E-5,1.309891231E-4,1.542186322E-3
4.615683792E0,-1.544380561E-3,-6.983354688E-4,2.902847249E-3,3.361444019E-3
4.625639792E0,4.290218931E-4,-9.697116911E-4,-1.195739023E-4,1.067098152E-3
4.635596792E0,-9.083369514E-4,-1.495458186E-3,1.149252523E-3,2.093383043E-3
4.645552792E0,-7.051377324E-4,1.993775368E-4,-3.644879907E-4,8.184266120E-4
4.655508792E0,7.535296609E-4,1.585205086E-3,-8.888421580E-4,1.967415181E-3
4.665465792E0,-8.670038078E-4,1.227542758E-3,-7.452978753E-4,1.677505812E-3
4.675421792E0,5.562516744E-4,1.512164250E-3,-1.339442097E-3,2.095271289E-3
4.685377792E0,1.430301112E-3,1.234662719E-3,-9.263856336E-4,2.104363002E-3
4.695333792E0,3.679525107E-4,-9.502144530E-4,2.867632546E-3,3.043289827E-3
4.705290792E0,1.847338513E-3,-7.360968739E-4,-2.490649931E-4,2.004128629E-3
4.715246792E0,6.437723059E-4,2.907682210E-4,3.761937842E-5,7.073925062E-4
4.725202792E0,-2.435930073E-4,-8.309558034E-4,1.522864681E-3,1.751839586E-3
4.735159792E0,-1.629984938E-3,7.615052164E-4,3.638617694E-3,4.059098400E-3
4.745115792E0,2.437073272E-5,2.523092553E-4,1.828466542E-3,1.845953355E-3
4.755071792E0,3.947085235E-3,-2.459509298E-3,-3.047036007E-4,4.660634305E-3
4.765028792E0,-1.416787389E-3,-5.361745134E-4,-1.278088894E-3,1.981989110E-3
4.774984792E0,-3.722783877E-4,1.227130182E-3,-4.053972661E-3,4.251956493E-3
4.784940792E0,1.403251081E-3,-1.863468438E-3,-5.207564682E-4,2.390149685E-3
4.794896792E0,-1.153141493E-3,-2.749541774E-3,-1.364167780E-3,3.278821283E-3
4.804853792E0,1.474333229E-3,-1.628350466E-3,-2.709863009E-3,3.488343624E-3
4.814809792E0,1.688753255E-3,-1.958636567E-4,1.241243444E-3,2.104978721E-3
4.824765792E0,-1.036459347E-3,6.156014279E-4,2.048447262E-3,2.376835982E-3
4.834722792E0,2.862905152E-3,2.220403403E-3,1.015313435E-3,3.762615919E-3
4.844678792E0,-3.297519172E-3,2.000160515E-3,4.872369580E-3,6.214037343E-3
4.854634792E0,-3.090431914E-3,-1.162352040E-3,2.346309368E-3,4.050555434E-3
4.864590792E0,2.165050246E-3,1.155929640E-3,1.576922368E-3,2.917241857E-3
4.874547792E0,-1.072319690E-3,-3.642337397E-4,-5.051796325E-4,1.240057336E-3
4.884503792E0,2.848273143E-4,-2.556814812E-3,-1.398403663E-3,2.928132748E-3
4.894459792E0,3.644403769E-4,1.730034128E-3,1.154298894E-3,2.111454667E-3
4.904416792E0,1.415057457E-3,2.160267904E-4,-2.948034322E-3,3.277188054E-3
4.914372792E0,-4.551038146E-4,-3.421250731E-4,-8.524884470E-4,1.025136869E-3
4.924328792E0,-4.628269235E-4,6.389832124E-4,-1.584059093E-3,1.769675540E-3
4.934285792E0,4.920773790E-4,3.537619486E-4,-8.976403624E-4,1.083072428E-3
4.944241792E0,1.208327012E-4,-8.278824389E-4,1.688906923E-5,8.368244230E-4
4.954197792E0,4.863750655E-5,-2.373779193E-3,2.314276062E-4,2.385529710E-3
4.964153792E0,-7.284728345E-4,-3.901900724E-3,1.352618448E-3,4.193456640E-3
4.974110792E0,1.258890377E-3,-2.774332650E-3,6.127427332E-4,3.107600407E-3
4.984066792E0,-2.902831417E-3,-1.774840057E-4,3.672447987E-3,4.684528260E-3
4.994022792E0,6.419086130E-4,-2.561493777E-3,1.179673709E-3,2.892218369E-3
5.003979792E0,-3.543799976E-4,-1.706885174E-3,-5.543106236E-4,1.829290148E-3
5.013935792E0,-1.612071646E-3,-1.361536793E-3,-9.638145566E-4,2.319805150E-3
5.023891792E0,6.998097524E-5,2.680514008E-4,3.296826035E-4,4.306268796E-4
5.033847792E0,7.962028030E-5,-8.003367111E-4,-1.530461479E-3,1.728927581E-3
5.043804792E0,-7.893691072E-4,-2.861357294E-3,5.207052454E-4,3.013569827E-3
5.053760792E0,2.531608334E-4,8.104313165E-4,-1.229128335E-3,1.493869402E-3
5.063716792E0,-9.624590166E-5,7.209489122E-4,-1.915604807E-4,7.521476088E-4
5.073673792E0,-4.975766642E-4,-6.654309109E-4,5.472437479E-4,9.949153499E-4
5.083629792E0,-4.871903220E-4,-1.298701391E-4,3.495629411E-3,3.531804870E-3
5.093585792E0,3.303145058E-4,-2.673361450E-5,-3.762003034E-4,5.013472122E-4
5.103541792E0,-3.583788639E-4,1.626556739E-3,-2.118833363E-4,1.678992789E-3
5.113498792E0,-4.532468505E-3,8.991751820E-4,-7.608989254E-4,4.683028287E-3
5.123454792E0,1.597861992E-3,-4.382636398E-4,3.458745778E-5,1.657236934E-3
5.133410792E0,-8.837599307E-4,-7.097050548E-4,-1.059412025E-3,1.551472436E-3
5.143367792E0,-2.398299752E-3,-1.336634159E-4,1.682312228E-3,2.932555548E-3
5.153323792E0,-8.975870442E-4,-8.758902550E-5,2.405983396E-4,9.333926828E-4
5.163279792E0,1.169558614E-3,1.975296065E-3,-1.648381818E-3,2.826097046E-3
5.173236792E0,-9.829900227E-4,2.895893529E-3,6.132014096E-4,3.119051889E-3
5.183192792E0,-2.090753987E-4,1.740081236E-3,8.414341137E-4,1.944121035E-3
5.193148792E0,-2.380172489E-3,3.260821104E-4,9.855967946E-4,2.596719404E-3
5.203104792E0,-9.764202405E-4,-3.564860672E-4,-1.094951294E-4,1.045211933E-3
5.213061792E0,-2.594939433E-4,-7.991269231E-4,1.878975891E-4,8.609567061E-4
5.223017792E0,1.681684167E-3,-9.091151878E-4,2.116558608E-3,2.852082117E-3
5.232976792E0,-1.872637542E-3,-2.495798282E-3,-5.393261090E-4,3.166489078E-3
5.242933792E0,1.681617112E-3,1.116779633E-3,-6.162915379E-4,2.110651113E-3
5.252889792E0,9.618118056E-4,5.500866100E-4,8.378783241E-4,1.389142654E-3
5.262845792E0,1.799642225E-3,1.764753833E-3,5.670348182E-4,2.583524088E-3
5.272801792E0,-5.881112302E-4,-5.761943758E-4,2.576258499E-3,2.704622457E-3
5.282758792E0,1.222838298E-3,6.805518642E-4,1.099269371E-3,1.779572279E-3
5.292714792E0,-2.506271703E-4,-1.621461473E-3,1.382778399E-3,2.145699743E-3
5.302670792E0,6.130359252E-4,-1.174849458E-3,1.130044460E-3,1.741575372E-3
5.312627792E0,-4.474796588E-4,-1.337392256E-3,1.153513789E-3,1.821935826E-3
5.322583792E0,-6.357652601E-4,9.942054749E-4,2.421710640E-3,2.693942170E-3
5.332539792E0,9.913614485E-5,2.038367093E-4,1.305015292E-3,1.324553620E-3
5.342495792E0,5.960820126E-4,-4.889722914E-5,2.023003530E-3,2.109561089E-3
5.352452792E0,-2.133722883E-3,-1.691360958E-3,1.693552360E-3,3.206492605E-3
5.362408792E0,-1.312403940E-3,-6.098505110E-4,7.228301838E-4,1.617654234E-3
5.372364792E0,-1.682736678E-3,-4.699798301E-4,-9.094518609E-4,1.969666585E-3
5.382321792E0,-8.691409603E-4,-3.056628630E-4,3.725937568E-4,9.938118042E-4
5.392277792E0,-1.030507730E-3,-2.679437399E-3,-1.688157208E-4,2.875731160E-3
5.402233792E0,-2.903509187E-3,1.467084512E-4,2.715121023E-3,3.977910398E-3
5.412190792E0,9.454874089E-4,5.862107500E-4,6.171935238E-4,1.272209625E-3
5.422146792E0,-7.464187220E-4,-8.705388755E-4,-3.290274180E-4,1.192995341E-3
5.432102792E0,-9.169282857E-4,8.471766487E-4,-6.071683019E-4,1.388207154E-3
5.442058792E0,-3.371830331E-3,-2.687331289E-5,2.772677690E-4,3.383317805E-3
5.452015792E0,-2.146259416E-3,-3.110915422E-4,1.752411015E-3,2.788216598E-3
5.461971792E0,6.314177299E-4,-1.809385605E-3,-5.720695481E-5,1.917247311E-3
5.471927792E0,-7.563226391E-4,-1.542022452E-3,1.456750557E-3,2.252105539E-3
5.481884792E0,2.188600833E-3,-1.091681421E-3,-1.864744350E-3,3.075550913E-3
5.491840792E0,-3.047970822E-4,-1.056453213E-3,-3.456629114E-3,3.627296443E-3
5.501796792E0,-1.061933930E-3,-1.035414636E-3,-2.188432030E-3,2.643675830E-3
5.511753792E0,-1.590954489E-3,2.848235890E-4,-3.413562663E-4,1.651903376E-3
5.521709792E0,-1.563524012E-3,1.048351638E-3,-1.200758386E-3,2.232816427E-3
5.531665792E0,2.497201785E-5,-6.769755855E-4,2.950184979E-3,3.026963983E-3
5.541621792E0,1.717122504E-4,-2.127598971E-3,9.829080664E-4,2.349951222E-3
5.551578792E0,3.342233831E-4,-2.505589277E-3,-3.117555752E-5,2.527974448E-3
5.561534792E0,4.165150458E-4,8.276225999E-4,1.459661406E-3,1.728888478E-3
5.571490792E0,-1.412107609E-3,-6.898306310E-5,-2.369064838E-3,2.758853887E-3
5.581447792E0,-2.436359413E-3,1.315594651E-3,-3.035175614E-4,2.785454969E-3
5.591403792E0,-1.030761516E-3,-1.232977957E-3,-1.287335064E-3,2.059110369E-3
5.601359792E0,-1.255265903E-3,3.011302091E-3,-2.792617306E-5,3.262577607E-3
5.611315792E0,-8.886769647E-4,9.811576456E-5,-1.367811579E-3,1.634099742E-3
5.621272792E0,2.058823593E-4,2.840040252E-4,6.816489622E-5,3.573405732E-4
5.631228792E0,-3.208883572E-4,-6.599603221E-4,2.328706905E-4,7.698998136E-4
5.641184792E0,-3.379529109E-3,-8.309343830E-4,2.528447658E-4,3.489355159E-3
5.651141792E0,-3.457539715E-3,-2.758950926E-3,-7.371343672E-4,4.484390501E-3
5.661097792E0,2.267933451E-5,-1.809000969E-3,2.040542662E-3,2.727052111E-3
5.671053792E0,1.802919782E-3,-7.480317727E-4,1.069652848E-3,2.225809625E-3
5.681009792E0,-1.183548942E-3,1.822184771E-3,1.073647756E-3,2.423605773E-3
5.690966792E0,-8.117198013E-4,1.296093687E-4,1.765552908E-3,1.947527842E-3
5.700922792E0,-1.879913732E-3,-9.865211323E-4,6.033107638E-5,2.123897226E-3
5.710878792E0,-1.496282872E-3,-1.523469575E-3,-4.416112788E-4,2.180560134E-3
5.720835792E0,-2.378055593E-3,-1.795911230E-3,4.721190780E-4,3.017174502E-3
5.730791792E0,-4.500539508E-4,-7.446045056E-4,4.014978185E-4,9.582196651E-4
5.740747792E0,-1.534226700E-3,1.929741353E-3,1.102974638E-3,2.700797347E-3
5.750704792E0,-1.129342709E-3,-7.033916190E-4,3.295321949E-4,1.370680922E-3
5.760660792E0,-1.868500840E-4,6.341375411E-6,2.097072080E-3,2.105389388E-3
5.770616792E0,5.662673502E-4,4.612766206E-4,5.545704626E-4,9.170513784E-4
5.780572792E0,9.994790889E-5,-1.383494586E-3,6.760107353E-4,1.543061038E-3
5.790529792E0,-2.287358977E-3,8.237641305E-4,5.313823931E-4,2.488566993E-3
5.800485792E0,3.797968384E-4,2.290100791E-3,1.192378812E-3,2.609707742E-3
5.810441792E0,-8.010744350E-4,9.357621893E-4,2.022534609E-3,2.368125286E-3
5.820398792E0,-2.008551732E-3,1.620993018E-3,1.006005798E-3,2.770188818E-3
5.830354792E0,2.428085310E-3,-2.518337220E-3,-1.688186079E-3,3.884275076E-3
5.840310792E0,-4.191001644E-4,2.876855433E-6,-1.968883444E-3,2.012996582E-3
5.850266792E0,-1.486091292E-3,1.524379477E-4,-3.354877234E-3,3.672452302E-3
5.860223792E0,-2.272150014E-4,-1.605248079E-3,-1.801988110E-3,2.423965594E-3
5.870179792E0,-2.855439670E-4,-1.805884764E-3,-2.310900949E-3,2.946696172E-3
5.880135792E0,6.686666748E-4,2.930014394E-3,-2.549402416E-4,3.016138922E-3
5.890092792E0,-3.313787980E-3,1.342475414E-3,1.355466899E-3,3.823705209E-3
5.900048792E0,-7.656754460E-4,-4.610167816E-4,-5.486933514E-4,1.048741987E-3
5.910004792E0,7.553838659E-4,-1.559125260E-3,-1.172333490E-3,2.091851374E-3
5.919961792E0,1.975111663E-3,2.431621775E-3,1.477953047E-4,3.136191000E-3
5.929917792E0,-1.191062620E-3,-3.111734986E-5,2.177093178E-3,2.481800387E-3
5.939873792E0,-6.158198230E-4,1.451838762E-4,1.073212363E-3,1.245831926E-3
5.949829792E0,-2.843095921E-3,1.351293176E-4,-1.314510591E-4,2.849339174E-3
5.959786792E0,-1.966383308E-3,-5.903150886E-4,9.811343625E-5,2.055422454E-3
5.969742792E0,-3.986220108E-4,1.196665689E-4,3.580409102E-4,5.490108274E-4
5.979698792E0,6.317550433E-4,2.472569235E-3,-2.780228155E-3,3.773908007E-3
5.989655792E0,-2.885040827E-3,1.191780902E-3,2.093701623E-4,3.128520123E-3
5.999611792E0,-1.605924335E-3,6.088158116E-4,3.992533311E-4,1.763250659E-3
6.009567792E0,6.121987244E-4,-2.551526763E-3,4.388326779E-4,2.660385351E-3
6.019524792E0,-2.203028882E-3,1.645646989E-6,7.240572013E-4,2.318964811E-3
6.029480792E0,-5.421913229E-4,-5.748812109E-4,1.906123944E-4,8.128917038E-4
6.039436792E0,6.176154129E-4,1.018221490E-3,1.629784703E-3,2.018519750E-3
6.049392792E0,-4.594343482E-4,1.325951889E-3,3.325695172E-3,3.609636645E-3
6.059349792E0,4.460404161E-4,-6.956532598E-4,3.829016350E-4,9.107684518E-4
6.069305792E0,9.551910916E-4,1.539953053E-3,6.611850113E-4,1.928992236E-3
6.079261792E0,3.091081744E-4,2.911966294E-4,-2.320490312E-3,2.359029171E-3
6.089218792E0,-1.639676979E-3,-9.105931967E-4,-3.857952543E-4,1.914825982E-3
6.099174792E0,-2.152335364E-3,1.757094637E-3,-6.308062002E-4,2.849183312E-3
6.109130792E0,-5.307085812E-4,8.041420951E-4,-3.719083034E-4,1.032769042E-3
6.119086792E0,-1.309680520E-4,2.215350978E-3,2.121077385E-3,3.069837432E-3
6.129043792E0,-1.660720445E-4,9.320639074E-4,3.385865130E-4,1.005466995E-3
6.138999792E0,-2.957863733E-3,1.847924665E-3,-7.940558717E-4,3.576913216E-3
6.148955792E0,-1.931518782E-4,-1.072458923E-3,1.272885129E-5,1.089787967E-3
6.158912792E0,-2.466815058E-4,7.504746318E-4,1.240712591E-3,1.470860860E-3
6.168868792E0,-7.545098197E-4,6.437115371E-5,2.577504143E-3,2.686439339E-3
6.178824792E0,7.395234425E-4,1.488363370E-3,1.650724560E-3,2.342437196E-3
6.188781792E0,-1.361607574E-4,1.134804450E-3,1.502559055E-3,1.887857146E-3
6.198737792E0,1.576518058E-3,9.438563138E-4,-2.808565972E-3,3.356235503E-3
6.208693792E0,9.336523945E-4,3.484096378E-4,-1.676034182E-3,1.949919652E-3
6.218649792E0,-2.002482768E-3,8.070059121E-4,-1.373499166E-3,2.558846564E-3
6.228606792E0,-2.395327901E-3,2.303958870E-3,2.577071078E-3,4.205605494E-3
6.238560083E0,-1.795778517E-4,1.530044712E-3,-3.614611924E-4,1.582384030E-3
6.248516083E0,8.022824768E-4,3.671953455E-4,8.827606216E-4,1.248100921E-3
6.258473083E0,-9.263752727E-4,-5.923416466E-4,5.240328610E-4,1.218051810E-3
6.268429083E0,-2.061568899E-3,5.614720285E-4,2.701437566E-3,3.444282522E-3
6.278385083E0,-1.164882677E-3,-1.535234973E-3,1.433506142E-3,2.401840530E-3
6.288342083E0,-6.233520107E-4,1.442332752E-3,1.669608988E-3,2.292702700E-3
6.298298083E0,1.078940579E-3,-1.103116199E-3,-1.254275907E-3,1.988513558E-3
6.308254083E0,-6.083116168E-4,3.563714214E-3,-1.234699506E-3,3.820285970E-3
6.318210083E0,4.510937724E-4,1.337577589E-3,-2.318872605E-3,2.714731949E-3
6.328167083E0,1.881352277E-3,4.219440743E-4,-2.547927434E-3,3.195224154E-3
6.338123083E0,2.460589865E-3,6.022397429E-4,-2.453918103E-3,3.526883787E-3
6.348079083E0,8.064520080E-5,7.769130170E-4,-6.294474006E-4,1.003145809E-3
6.358036083E0,2.785180695E-4,1.441904344E-3,1.250258647E-4,1.473869709E-3
6.367992083E0,-5.963575095E-4,1.232996583E-4,9.365612641E-4,1.117135662E-3
6.377948083E0,1.673188293E-3,-1.040235162E-3,7.123230025E-4,2.095006519E-3
6.387904083E0,1.965217059E-3,6.693312898E-4,-5.049472675E-4,2.136598748E-3
6.397861083E0,-5.192459794E-4,9.377775714E-4,-1.382991206E-3,1.749773653E-3
6.407817083E0,-2.056505764E-4,2.297182567E-3,3.825421445E-4,2.337879039E-3
6.417773083E0,3.483286127E-5,8.771847934E-4,1.005134545E-4,8.836115914E-4
6.427730083E0,1.902205287E-3,-1.155016944E-3,2.744541503E-3,3.533405887E-3
6.437686083E0,7.344091428E-4,-1.117466018E-3,-7.330137305E-4,1.524924988E-3
6.447642083E0,1.413454884E-3,5.360040814E-4,-2.301241737E-3,2.753337723E-3
6.457599083E0,2.415069845E-3,1.216175966E-3,-2.775057219E-4,2.718208189E-3
6.467555083E0,1.130290562E-3,-1.380184665E-3,-7.532387972E-4,1.936449109E-3
6.477511083E0,1.544678351E-3,1.182042994E-3,1.096326858E-3,2.232753776E-3
6.487468083E0,1.806601649E-3,-1.143652946E-3,-5.438290536E-4,2.206241514E-3
6.497424083E0,-9.612215217E-4,7.152343169E-4,2.304954920E-3,2.597753669E-3
6.507380083E0,-1.074896893E-3,2.502898686E-3,2.404510044E-3,3.633396993E-3
6.517336083E0,6.463041063E-4,-5.389647558E-4,1.554694958E-3,1.767842872E-3
6.527293083E0,-2.041620202E-3,-2.801496536E-3,-1.271266490E-3,3.692250584E-3
6.537249083E0,3.799922997E-4,1.979942434E-3,-5.233753473E-5,2.016756159E-3
6.547205083E0,-1.191235846E-3,-2.316344529E-3,-1.987156924E-3,3.276169632E-3
6.557162083E0,1.650769264E-5,-1.525918022E-3,-9.352080524E-4,1.789779991E-3
6.567118083E0,2.926892135E-3,-5.950573832E-4,6.640641950E-4,3.059701312E-3
6.577074083E0,3.576441668E-5,-2.415861003E-3,-3.455402330E-4,2.440709227E-3
6.587030083E0,-4.162889672E-4,1.875528134E-3,-4.651192576E-4,1.976673522E-3
6.596987083E0,-1.908458187E-3,5.005383864E-4,-5.346280523E-4,2.044157157E-3
6.606943083E0,-1.449130010E-3,9.619016200E-4,1.313973218E-3,2.179852777E-3
6.616899083E0,2.433088375E-4,3.343299963E-3,4.407223314E-4,3.380989501E-3
6.626856083E0,-2.611649688E-4,-6.944201887E-4,-1.258660574E-3,1.461045167E-3
6.636812083E0,-7.463928778E-4,-1.206013374E-3,4.609422758E-4,1.491321014E-3
6.646768083E0,-3.046457423E-4,2.227811143E-3,2.418898046E-3,3.302577671E-3
6.656725083E0,-2.188918879E-4,-1.745359041E-3,-8.991342038E-4,1.975508582E-3
6.666681083E0,-1.505624270E-3,-1.872430556E-3,-1.125170849E-3,2.653094433E-3
6.676637083E0,-2.491448540E-4,1.904545352E-4,-1.378171612E-3,1.413401245E-3
6.686593083E0,1.899296301E-3,1.050151885E-3,1.321699005E-3,2.541069397E-3
6.696550083E0,1.401285175E-3,-2.103297040E-3,-7.909866981E-4,2.648229321E-3
6.706506083E0,-6.671019364E-4,9.142365307E-4,-1.363587566E-3,1.772067853E-3
6.716462083E0,3.304320853E-5,5.531124771E-4,1.640991308E-3,1.732015513E-3
6.726419083E0,-2.316164086E-3,2.278080210E-3,-5.170903169E-4,3.289627321E-3
6.736375083E0,5.051887129E-4,3.782939166E-5,9.657577612E-4,1.090566253E-3
6.746331083E0,-3.101475770E-3,2.256290987E-3,-3.327229060E-4,3.849766941E-3
6.756288083E0,-3.913739696E-3,-1.186643727E-3,-2.464368008E-4,4.097098100E-3
6.766244083E0,4.243853036E-4,-1.772025600E-3,2.345574088E-3,2.970167574E-3
6.776200083E0,-3.798893886E-4,-7.560290396E-4,-1.388710458E-3,1.626164995E-3
6.786156083E0,-2.429530723E-4,-3.381436691E-4,-4.896814935E-4,6.427715779E-4
6.796113083E0,-1.169200521E-3,2.344192006E-3,-1.844833605E-4,2.626080754E-3
6.806069083E0,4.908756819E-4,4.776464775E-4,-2.944170265E-3,3.022787396E-3
6.816025083E0,1.225109212E-3,1.135713421E-3,-2.582779387E-3,3.075953010E-3
6.825982083E0,-4.545766860E-4,2.830885351E-4,-3.250697628E-4,6.264578460E-4
6.835938083E0,-5.808104761E-4,1.759278588E-3,-1.620697789E-3,2.461516460E-3
6.845894083E0,-4.992424510E-4,6.936844438E-4,4.204111174E-4,9.524634587E-4
6.855851083E0,-2.189284656E-3,4.565920215E-3,4.230742343E-4,5.081297720E-3
6.865807083E0,1.308816718E-4,-4.485119134E-4,-8.959881961E-5,4.757319592E-4
6.875763083E0,2.262742259E-3,-3.503424115E-3,8.483836427E-5,4.171472235E-3
6.885719083E0,8.390201838E-4,-1.573067158E-3,4.019048065E-4,1.827572879E-3
6.895676083E0,1.422785106E-3,2.956734970E-4,-2.762729535E-3,3.121604517E-3
6.905632083E0,-1.579809003E-3,1.250585541E-3,9.373766370E-4,2.222259130E-3
6.915588083E0,8.282212657E-4,1.475090161E-3,-2.803299343E-3,3.274191298E-3
6.925545083E0,1.838475582E-3,7.613413036E-4,-9.155892767E-4,2.190419314E-3
6.935501083E0,3.098211018E-4,-1.302855089E-4,-3.300450044E-3,3.317519242E-3
6.945457083E0,1.588530140E-3,-3.222594038E-3,4.305024631E-4,3.618545662E-3
6.955414083E0,1.566717401E-5,2.419845201E-3,1.372462604E-3,2.782004647E-3
6.965370083E0,1.099556102E-3,9.394716471E-5,1.974990591E-4,1.121095701E-3
6.975326083E0,1.334446948E-3,9.038150311E-4,4.299930297E-4,1.668090007E-3
6.985282083E0,-1.752692857E-3,9.263977408E-4,1.231224742E-3,2.333679367E-3
6.995239083E0,-6.184525555E-4,-4.374068230E-4,1.921515446E-3,2.065436976E-3
7.005195083E0,1.310886350E-3,8.002882823E-4,7.029445842E-4,1.689087163E-3
7.015151083E0,1.580664655E-3,5.065407604E-4,-3.474061377E-4,1.695811109E-3
7.025108083E0,4.563152324E-4,-3.529191017E-4,-1.218683086E-3,1.348318934E-3
7.035064083E0,1.996421255E-3,-1.265318133E-3,-4.993447568E-3,5.524603734E-3
7.045020083E0,1.095680986E-3,-1.486217603E-3,-2.510256134E-3,3.116206900E-3
7.054977083E0,-6.500212476E-4,-1.439079642E-3,-2.468444407E-3,2.930306405E-3
7.064933083E0,7.806281792E-4,6.085261703E-4,8.746981621E-5,9.936475345E-4
7.074889083E0,6.232353626E-4,1.367260702E-3,7.282244042E-5,1.504369387E-3
7.084845083E0,1.305759302E-3,-7.034344599E-4,1.606437843E-3,2.186428581E-3
7.094802083E0,-9.097245056E-4,1.153854653E-3,1.914999448E-4,1.481773082E-3
7.104758083E0,-1.175221987E-4,-2.110183239E-3,1.379112713E-3,2.523615788E-3
7.114714083E0,-1.776405144E-3,-1.343458891E-3,9.623281658E-4,2.426225984E-3
7.124671083E0,-2.204021439E-5,-6.338646635E-4,1.102607232E-3,1.272011356E-3
7.134627083E0,-1.995442435E-3,-6.479797885E-4,4.738350399E-4,2.150857495E-3
7.144583083E0,-1.992450561E-4,8.179917932E-4,-1.022866927E-4,8.480988937E-4
7.154540083E0,4.409787944E-4,1.109341159E-3,-2.126555424E-3,2.438716482E-3
7.164496083E0,-2.598890336E-3,-1.270190813E-3,-1.855836250E-3,3.436821768E-3
7.174452083E0,1.890932792E-3,3.309017047E-4,-8.454327472E-4,2.097588923E-3
7.184408083E0,-2.592406236E-3,-5.129398778E-4,1.928578131E-4,2.649692727E-3
7.194365083E0,1.861464349E-3,1.222239807E-4,9.127100930E-4,2.076783074E-3
7.204321083E0,-3.642634954E-3,-1.852726564E-4,1.048690639E-3,3.795110990E-3
7.214277083E0,2.475444926E-3,-3.165667877E-4,-1.776124351E-3,3.063112767E-3
7.224234083E0,2.210226841E-3,2.470547333E-4,1.803602558E-3,2.863410714E-3
7.234189833E0,5.465501454E-4,-2.802507952E-4,8.011888713E-4,1.009535129E-3
7.244145833E0,-1.001041848E-3,-1.480639912E-3,1.829128712E-3,2.557360197E-3
7.254102833E0,-3.323584562E-3,-4.923408851E-4,-3.748107702E-5,3.360062309E-3
7.264058833E0,-6.828412879E-4,-1.023658551E-3,-1.382297371E-3,1.850647204E-3
7.274014833E0,-1.042101765E-3,1.911943778E-3,-1.361524686E-3,2.568122772E-3
7.283971833E0,-1.027377322E-3,-5.843732506E-4,1.776511781E-4,1.195222239E-3
7.293927833E0,1.859588083E-4,-1.507691108E-3,-3.768191673E-4,1.565153615E-3
7.303883833E0,-1.008172636E-3,-1.448037103E-3,2.894029487E-3,3.389488189E-3
7.313839833E0,-2.044941299E-3,1.150142401E-3,2.268719021E-3,3.263693989E-3
7.323796833E0,1.220756327E-3,8.940417320E-4,-8.216095157E-4,1.721801041E-3
7.333752833E0,4.087585257E-4,-3.533829004E-4,-1.021080185E-3,1.155234933E-3
7.343708833E0,-2.183155622E-3,-1.152899116E-3,8.941111155E-4,2.625791220E-3
7.353665833E0,1.231016591E-3,2.129979432E-3,9.915744886E-5,2.462122342E-3
7.363621833E0,6.988376263E-4,8.546914905E-4,1.823326573E-3,2.131523249E-3
7.373577833E0,8.903188864E-4,-9.136479348E-4,-1.306347549E-4,1.282375026E-3
7.383534833E0,6.215120084E-4,8.784858510E-4,-1.423431095E-3,1.784424459E-3
7.393490833E0,2.292379271E-3,1.140807755E-3,-1.299327705E-3,2.871358136E-3
7.403446833E0,4.164488055E-4,-1.588261686E-3,-4.293705337E-3,4.596945759E-3
7.413402833E0,-5.287069362E-4,1.198891550E-4,-1.483537722E-3,1.579489983E-3
7.423359833E0,-2.649215749E-4,2.398900688E-4,-1.283279154E-3,1.332117140E-3
7.433315833E0,-1.128551085E-4,-1.977724023E-3,-3.615594469E-4,2.013666760E-3
7.443271833E0,2.340628533E-3,-1.584648155E-3,-1.804912463E-4,2.832353931E-3
7.453228833E0,-5.534286611E-4,1.619933173E-3,-2.137804404E-4,1.725157629E-3
7.463184833E0,9.828929324E-4,1.744425856E-3,-1.018488314E-3,2.246423497E-3
7.473140833E0,3.868775675E-4,5.140453577E-4,3.831335343E-4,7.488045053E-4
7.483097833E0,-2.321674023E-3,1.012693159E-3,1.108227298E-5,2.532950951E-3
7.493053833E0,9.780772962E-5,-1.260740682E-4,2.014311496E-3,2.020621644E-3
7.503009833E0,2.075509401E-4,2.588981763E-3,-9.265784174E-4,2.757617001E-3
7.512965833E0,1.585488208E-4,9.348923340E-4,-1.928193029E-3,2.148741437E-3
7.522922833E0,-1.593904803E-3,9.159967303E-4,-2.430791967E-3,3.047676511E-3
7.532878833E0,-8.631334640E-4,-6.976127625E-4,-2.980734920E-3,3.180635724E-3
7.542834833E0,1.713773818E-3,-3.185749054E-3,1.946891192E-3,4.108089951E-3
7.552791833E0,-3.242102684E-3,1.031366177E-3,9.093433619E-5,3.403412267E-3
7.562747833E0,-1.112275058E-3,-1.038675196E-3,1.143896952E-4,1.526134651E-3
7.572703833E0,2.278195228E-3,-1.279957592E-3,-1.255806535E-3,2.899226620E-3
7.582660833E0,-1.931631705E-4,1.663096249E-3,2.288882621E-3,2.835874609E-3
7.592616833E0,-7.731996011E-4,-1.372005790E-4,-5.416665226E-5,7.871439819E-4
7.602572833E0,-2.233930863E-4,2.113958821E-3,1.517068129E-3,2.611555490E-3
7.612529833E0,1.630699611E-3,-1.588633284E-3,-2.121075988E-3,3.111575209E-3
7.622485833E0,9.744024719E-4,-6.303675473E-4,-2.439160831E-3,2.701171780E-3
7.632441833E0,5.743956426E-4,-8.165230975E-4,-2.280170098E-3,2.489139610E-3
7.642397833E0,6.272341125E-5,4.726042971E-4,-3.102319548E-3,3.138737903E-3
7.652354833E0,-6.534005515E-4,1.367796212E-4,5.741743371E-4,8.805209338E-4
7.662310833E0,-9.216045728E-4,-1.740332693E-3,-2.840803936E-4,1.989676994E-3
7.672266833E0,4.943981767E-4,2.125778235E-3,1.221138518E-3,2.500908224E-3
7.682223833E0,-3.357324284E-3,1.216564327E-3,1.677278895E-3,3.945240119E-3
7.692179833E0,1.465965761E-4,1.193128526E-3,1.213090029E-3,1.707815462E-3
7.702135833E0,-1.475195400E-3,7.863435894E-5,2.469068859E-3,2.877270558E-3
7.712092833E0,-2.325276379E-3,-1.159469597E-3,1.024836674E-3,2.793129104E-3
7.722048833E0,1.083580777E-3,1.560460776E-3,1.277332194E-3,2.289271209E-3
7.732004833E0,-1.904486096E-3,-3.066817299E-4,1.063746866E-3,2.202879563E-3
7.741960833E0,-3.658360802E-3,-1.637134701E-4,-2.105808817E-4,3.668071723E-3
7.751917833E0,-2.066855785E-3,-6.004720926E-4,-1.080492511E-4,2.155025338E-3
7.761873833E0,4.105470143E-4,-4.235617816E-4,1.533557661E-4,6.094845567E-4
7.771829833E0,7.399800234E-4,4.616733640E-4,-2.719513141E-4,9.136028936E-4
7.781786833E0,-3.150288016E-3,1.863269135E-4,-1.680338755E-5,3.155838186E-3
7.791742833E0,-8.823233657E-6,-7.758727297E-4,4.995837808E-4,9.228435925E-4
7.801698833E0,-3.788047470E-4,9.988322854E-4,6.100344472E-4,1.230162996E-3
7.811655833E0,1.920834882E-3,6.379736587E-4,-1.319426112E-3,2.416092361E-3
7.821611833E0,7.177298539E-4,4.830947146E-4,-1.810491085E-4,8.839091730E-4
7.831567833E0,-1.722524525E-3,-1.665011048E-3,1.610192936E-3,2.886533184E-3
7.841524833E0,-9.710978484E-4,-2.327960916E-3,-1.922016963E-4,2.529698510E-3
7.851480833E0,-9.624951053E-5,6.145657972E-4,2.676289063E-3,2.747631386E-3
7.861436833E0,1.369613456E-3,-1.333917491E-3,-8.860668167E-4,2.107199871E-3
7.871392833E0,9.179413319E-4,1.007281244E-4,-1.098054461E-3,1.434742501E-3
7.881349833E0,1.789474627E-4,5.361465737E-4,-1.599119976E-3,1.696071945E-3
7.891305833E0,1.731570461E-3,6.362814456E-4,-1.216423698E-3,2.209723275E-3
7.901261833E0,6.791423075E-4,-2.678985707E-3,-9.660241194E-4,2.927695560E-3
7.911218833E0,1.509782276E-3,9.120209143E-4,-9.761438705E-4,2.015956727E-3
7.921174833E0,1.037153532E-3,-3.651008010E-4,-2.138544805E-4,1.120142751E-3
7.931130833E0,1.314921305E-3,-1.291348599E-3,1.865275670E-3,2.622184693E-3
7.941087833E0,-5.925867008E-4,2.399595454E-3,-8.058687672E-5,2.472996479E-3
7.951043833E0,5.115597742E-4,3.582825884E-4,2.641696483E-3,2.714520238E-3
7.960999833E0,1.113063656E-3,8.256193250E-4,7.731989026E-4,1.586945026E-3
7.970956833E0,-1.119464287E-3,-1.023413613E-3,4.397709854E-4,1.579232166E-3
7.980912833E0,-1.393811079E-3,-7.128585130E-4,1.431959681E-4,1.572062870E-3
7.990868833E0,5.324532976E-4,2.344184555E-3,-1.382262446E-3,2.772969025E-3
8.000824833E0,-2.238039160E-3,-1.692595892E-3,4.364904016E-4,2.839757737E-3
8.010781833E0,2.655785531E-3,-1.656643115E-3,-2.513227053E-3,4.014221396E-3
8.020737833E0,2.867603675E-3,-1.863501966E-3,1.362124924E-3,3.681192024E-3
8.030693833E0,-1.523149898E-3,-1.045645215E-3,1.517919824E-3,2.391116919E-3
8.040650833E0,4.677776014E-4,-2.010708675E-3,9.605800733E-4,2.276945176E-3
8.050606833E0,1.600153744E-3,-1.280736178E-3,-6.639482453E-4,2.154438311E-3
8.060562833E0,-2.998235868E-4,1.470140181E-3,2.605470363E-3,3.006606417E-3
8.070519833E0,2.455917420E-4,8.331611753E-6,4.618922248E-4,5.231913100E-4
8.080475833E0,-1.750443364E-3,1.233418472E-3,-3.103204072E-4,2.163717138E-3
8.090431833E0,8.826240664E-4,1.317041926E-3,1.441240776E-3,2.142615143E-3
8.100388833E0,-1.527490909E-3,-9.772777557E-4,1.081865747E-3,2.111571401E-3
8.110344833E0,-2.134159207E-3,1.747668721E-3,9.087603539E-4,2.904277339E-3
8.120300833E0,-1.936375629E-3,1.142771915E-3,-4.277569242E-4,2.288766963E-3
8.130256833E0,-1.215457916E-3,2.017620020E-3,-2.374261618E-3,3.344435187E-3
8.140213833E0,1.124325441E-3,1.073480584E-3,4.708063789E-4,1.624231174E-3
8.150169833E0,1.259064302E-4,8.726781234E-4,1.415429637E-3,1.667591255E-3
8.160125833E0,6.600563065E-4,-5.825161934E-4,-1.013037283E-3,1.342104310E-3
8.170082833E0,1.405208837E-3,9.376164526E-4,1.245323569E-3,2.098706096E-3
8.180038833E0,1.983610215E-3,-5.574617535E-5,-1.374357846E-3,2.413850991E-3
8.189994833E0,-1.890223939E-3,-1.750560477E-4,4.184818827E-4,1.943892550E-3
8.199951833E0,-9.397235699E-4,-5.836077034E-4,1.728802919E-3,2.052422440E-3
8.209907833E0,-1.329876715E-3,-4.507154226E-4,1.806567423E-3,2.288100156E-3
8.219863833E0,-2.382276347E-3,1.452915370E-3,3.413483500E-5,2.790585755E-3
8.229819833E0,-1.702105161E-3,-1.489752904E-4,-1.503840555E-3,2.276157294E-3
8.239776792E0,-1.325235236E-3,-3.417255357E-4,-7.873075083E-4,1.578885014E-3
8.249732792E0,1.004231744E-3,-7.316125557E-4,4.450324923E-6,1.242480637E-3
8.259688792E0,-1.658778870E-3,-2.310225740E-3,-3.958651796E-4,2.871480376E-3
8.269645792E0,4.883995280E-5,2.196989954E-6,-4.195673391E-4,4.224061077E-4
8.279601792E0,-8.227664512E-4,1.032050699E-3,4.811771214E-5,1.320753040E-3
8.289557792E0,-9.641803335E-4,6.128698587E-4,1.702206675E-3,2.050063595E-3
8.299514792E0,-1.463370514E-3,-1.750700176E-4,1.481814310E-3,2.089946512E-3
8.309470792E0,2.507027239E-5,-1.244062558E-3,1.514571719E-3,1.960165212E-3
8.319426792E0,8.178360877E-4,3.374377266E-4,1.611428801E-3,1.838320665E-3
8.329383792E0,-4.104138352E-4,-9.079836309E-5,-3.313468769E-4,5.352332311E-4
8.339339792E0,-7.587794680E-4,-5.225557834E-5,1.147675794E-3,1.376821213E-3
8.349295792E0,7.505621761E-5,2.453246154E-3,-2.424945123E-4,2.466344201E-3
8.359251792E0,-2.273811493E-3,1.307187602E-3,-2.601640299E-4,2.635648583E-3
8.369208792E0,1.582978410E-3,-1.322505996E-4,-8.633700199E-4,1.807959805E-3
8.379164792E0,-8.028780576E-5,1.189473085E-3,-8.209818043E-4,1.447516312E-3
8.389120792E0,-2.509964397E-4,-1.460904256E-3,1.740979031E-3,2.286536342E-3
8.399077792E0,-1.936281798E-3,-3.837076947E-4,7.887976244E-5,1.975510267E-3
8.409033792E0,3.247420536E-4,-1.695847139E-3,4.053832963E-4,1.773609466E-3
8.418989792E0,-6.079711020E-4,-1.371633261E-4,7.937648334E-4,1.009210211E-3
8.428946792E0,-5.139615387E-4,1.645023935E-3,1.018801704E-3,2.002053226E-3
8.438902792E0,1.437051105E-3,-1.770154573E-3,4.880167544E-4,2.331678246E-3
8.448858792E0,5.163963651E-4,6.210058928E-5,2.936064266E-4,5.972657891E-4
8.458815792E0,-7.112254389E-4,7.335599512E-4,-1.314921305E-3,1.665223668E-3
8.468771792E0,-1.454780111E-3,-1.336781308E-3,1.588190440E-3,2.534900059E-3
8.478727792E0,2.601497108E-4,-8.399430662E-4,3.108866513E-4,9.326482384E-4
8.488684792E0,4.540277878E-4,-7.877452299E-4,-1.730692573E-3,1.954988635E-3
8.498640792E0,-2.328920178E-3,-1.228984445E-3,-2.234317362E-3,3.453468697E-3
8.508596792E0,4.426315427E-4,-1.275056973E-3,-9.424178861E-4,1.646160514E-3
8.518552792E0,-1.011189073E-3,1.465700567E-3,8.023004048E-4,1.953066162E-3
8.528509792E0,2.556114923E-3,-9.065028280E-5,1.209497917E-3,2.829280153E-3
8.538465792E0,-1.012340188E-3,2.094080672E-3,1.900298987E-3,3.003521725E-3
8.548421792E0,1.941638067E-3,-5.906512961E-4,-1.460610889E-3,2.500442262E-3
8.558378792E0,-5.609653890E-4,2.446193248E-4,5.288161337E-4,8.088060862E-4
8.568334792E0,7.429182879E-4,-2.227649093E-4,-1.191305928E-4,7.846934977E-4
8.578290792E0,-2.299299464E-3,1.894749701E-3,2.496875823E-6,2.979406096E-3
8.588247792E0,5.060744006E-4,-1.825420186E-3,-1.589008141E-3,2.472492068E-3
8.598203792E0,-2.729528118E-3,7.995208725E-4,-2.009702381E-3,3.482594009E-3
8.608159792E0,-1.917530084E-3,8.128369227E-4,9.535970166E-4,2.290627153E-3
8.618116792E0,-1.082122326E-3,1.235036179E-4,-9.134509601E-4,1.421490249E-3
8.628072792E0,2.688991372E-4,1.236438751E-3,2.519483678E-4,1.290180418E-3
8.638028792E0,5.347077968E-4,-1.989214681E-3,-5.570836365E-4,2.133829809E-3
8.647984792E0,1.203161199E-3,1.280347817E-3,6.847484037E-4,1.885674356E-3
8.657941792E0,-2.417032840E-3,-1.834721304E-3,2.013843041E-3,3.641951923E-3
8.667897792E0,-9.741948452E-5,1.894502901E-3,-5.337367766E-4,1.970661499E-3
8.677853792E0,5.186186172E-4,-3.076158464E-6,1.239314210E-3,1.343456156E-3
8.687810792E0,1.474854071E-5,-1.440916210E-3,9.698024951E-4,1.736943846E-3
8.697766792E0,-1.564407256E-3,5.157785490E-4,1.248336397E-3,2.066819134E-3
8.707722792E0,8.795755566E-4,-1.818749122E-3,1.076829154E-3,2.289336707E-3
8.717679792E0,4.807409132E-4,1.187950373E-3,8.893758059E-5,1.284619713E-3
8.727635792E0,-6.335256621E-4,8.281571791E-4,-2.458375879E-3,2.670357848E-3
8.737591792E0,1.020586700E-3,4.059160128E-4,4.172693007E-4,1.174937739E-3
8.747548792E0,6.983441999E-4,3.220077604E-3,-2.554285806E-3,4.169047898E-3
8.757504792E0,3.023074241E-4,-8.344193920E-4,-1.042898279E-3,1.369409479E-3
8.767460792E0,1.506056287E-3,-7.750308141E-4,-6.460873410E-4,1.812817463E-3
8.777417792E0,-9.781692643E-5,5.477005616E-4,-2.845791169E-4,6.249234593E-4
8.787373792E0,2.901967615E-3,-1.494145021E-3,-2.594338730E-3,4.169469850E-3
8.797329792E0,-3.402500413E-3,-7.591610774E-4,-4.389532842E-4,3.513689598E-3
8.807285792E0,2.879363950E-3,1.091469079E-3,2.401527017E-4,3.088642878E-3
8.817242792E0,-1.926729688E-3,-6.738509983E-4,-2.896599472E-4,2.061617167E-3
8.827198792E0,8.474851493E-4,5.477406085E-4,4.669441842E-4,1.111884762E-3
8.837154792E0,-7.725233445E-4,9.785210714E-4,-1.326478086E-4,1.253750871E-3
8.847111792E0,-2.158964984E-3,-3.927405924E-4,-1.735870726E-3,2.797967504E-3
8.857067792E0,-3.871025285E-3,-2.401135862E-4,-2.062395215E-3,4.392717304E-3
8.867023792E0,-2.292303368E-3,-1.454249024E-3,1.032197848E-3,2.904294640E-3
8.876980792E0,6.625580136E-5,9.658159688E-4,2.144583967E-3,2.352962113E-3
8.886936792E0,8.156693657E-4,1.071010716E-3,2.122479025E-3,2.513423498E-3
8.896892792E0,-1.186747337E-3,-5.394918844E-4,1.342147589E-4,1.310509190E-3
8.906849792E0,-6.538487505E-4,1.465335488E-3,2.190707717E-3,2.715497484E-3
8.916805792E0,1.619993709E-3,7.662540302E-4,2.747473307E-3,3.280264384E-3
8.926761792E0,2.273533493E-3,-4.225810990E-4,7.077585906E-4,2.418357201E-3
8.936718792E0,1.106773969E-3,-2.674665302E-4,-1.002611127E-3,1.517140743E-3
8.946674792E0,1.216496108E-3,-2.489875071E-3,-3.350187559E-3,4.347769236E-3
8.956630792E0,-9.891624795E-4,9.947847575E-4,-1.925248187E-3,2.382146030E-3
8.966586792E0,1.874268288E-3,-9.003207088E-4,-3.588392399E-3,4.147290562E-3
8.976543792E0,7.506061229E-4,-5.659935996E-4,-6.745457649E-4,1.157052417E-3
8.986499792E0,6.723892875E-5,1.612471417E-3,5.892012268E-6,1.613883471E-3
8.996455792E0,-1.692658057E-3,1.099369489E-3,1.146507449E-3,2.321246196E-3
9.006412792E0,-2.276530722E-4,1.457298175E-3,7.458496839E-5,1.476857071E-3
9.016368792E0,1.680770190E-3,4.895012826E-4,1.009292435E-3,2.020710558E-3
9.026324792E0,-8.926423034E-4,-1.618390903E-3,1.114487182E-3,2.158258807E-3
9.036281792E0,-6.035494152E-4,1.118314452E-3,2.094831318E-3,2.450146396E-3
9.046237792E0,1.727620838E-4,8.706403896E-4,6.322236732E-4,1.089756027E-3
9.056193792E0,1.702012494E-3,-8.197706193E-4,8.228742518E-4,2.060580606E-3
9.066150792E0,4.780013114E-6,8.460367098E-4,-2.946830355E-3,3.065878357E-3
9.076106792E0,-6.057299906E-4,6.198510528E-5,-9.567164816E-4,1.134044709E-3
9.086062792E0,3.057980677E-3,-1.934124157E-4,-3.098430578E-3,4.357628510E-3
9.096019792E0,-1.204707194E-3,2.513516694E-3,2.301065717E-3,3.614414064E-3
9.105975792E0,6.557770539E-4,7.821954787E-4,1.468827482E-3,1.788666398E-3
9.115931792E0,1.883395482E-3,2.361936495E-4,-6.644767709E-4,2.011093076E-3
9.125887792E0,6.024149479E-4,-1.919635572E-3,-1.522813458E-3,2.523264815E-3
9.135844792E0,7.358308067E-4,4.998315126E-5,2.928627655E-3,3.020067091E-3
9.145800792E0,4.854936851E-4,-2.040825784E-4,-1.391019206E-3,1.487376297E-3
9.155756792E0,-4.603572888E-4,8.807582781E-4,1.844814513E-3,2.095472397E-3
9.165713792E0,6.669588038E-4,-1.296447590E-4,-9.499071166E-4,1.167889267E-3
9.175669792E0,-3.885903629E-3,3.199926578E-3,1.085508149E-3,5.149573288E-3
9.185625792E0,1.866258099E-3,-2.475362271E-4,-3.624525853E-4,1.917176401E-3
9.195582792E0,-1.921342453E-3,-5.108583719E-4,-3.571569454E-3,4.087620513E-3
9.205538792E0,8.243767079E-4,1.072390936E-3,-6.868331693E-4,1.517023098E-3
9.215494792E0,-1.959171146E-3,-3.990474157E-3,-4.074992612E-4,4.464111471E-3
9.225451792E0,1.331430743E-3,-3.400789574E-4,-7.001804188E-4,1.542275637E-3
9.235407792E0,-5.599628203E-4,-1.658254303E-3,3.615365364E-3,4.016744006E-3
9.245363792E0,-1.003911719E-3,5.503045395E-4,-8.598105051E-4,1.431763923E-3
9.255320792E0,-4.412161652E-4,-3.626374528E-4,6.371075287E-4,8.556188578E-4
9.265276792E0,-3.254047129E-3,2.176953480E-3,2.565768547E-3,4.680931255E-3
9.275232792E0,7.574942429E-4,4.938263446E-4,3.314246424E-4,9.630702364E-4
9.285189792E0,-1.951184822E-4,-2.891051583E-3,2.080322243E-3,3.567070382E-3
9.295145792E0,5.550815258E-4,1.672848128E-3,2.100882120E-4,1.775013638E-3
9.305101792E0,2.474954352E-3,-6.116107106E-4,-2.581703477E-3,3.628313595E-3
9.315057792E0,-2.972008428E-3,2.156943083E-4,-1.288711559E-3,3.246557502E-3
9.325014792E0,2.208904829E-3,8.125090972E-4,-6.705918349E-4,2.447268883E-3
9.334970792E0,2.183006611E-3,-2.990410663E-3,-6.031999364E-4,3.751256318E-3
9.344926792E0,1.075131469E-3,-5.898373201E-4,1.093233936E-3,1.642856104E-3
9.354883792E0,-1.963771880E-3,-2.003235742E-3,-1.065536402E-3,3.000786773E-3
9.364839792E0,-1.278540585E-3,-1.069265418E-3,2.711042762E-4,1.688636163E-3
9.374795792E0,-3.269880544E-4,-1.487433910E-4,1.251431182E-3,1.301969964E-3
9.384752792E0,2.720733406E-3,2.352846786E-4,4.559447989E-4,2.768688283E-3
9.394708792E0,-8.379250066E-4,-4.782332107E-4,3.330875188E-6,9.647986398E-4
9.404664792E0,-5.716091255E-4,5.193874240E-4,-6.709815934E-4,1.023091681E-3
9.414621792E0,-3.433861071E-3,-1.962395385E-3,8.415179327E-4,4.043581325E-3
9.424577792E0,1.305766869E-3,4.328517243E-4,-4.447889514E-4,1.445761026E-3
9.434533792E0,-2.750957385E-3,-3.327873535E-3,-4.972517490E-4,4.346236085E-3
9.444490792E0,2.227281220E-4,2.317074686E-4,-1.035476569E-3,1.084208417E-3
9.454446792E0,-3.064846154E-3,7.575713098E-4,1.477827318E-4,3.160543620E-3
9.464402792E0,1.112322090E-3,5.932543427E-4,2.327375114E-4,1.281943016E-3
9.474358792E0,-6.506217178E-4,-1.175527461E-3,7.193088531E-4,1.524000872E-3
9.484315792E0,-1.838733442E-5,-2.291658893E-3,8.399500512E-4,2.440810248E-3
9.494271792E0,-2.040469553E-3,-1.579931937E-3,2.308768686E-3,3.462674367E-3
9.504227792E0,1.888225670E-3,-7.497984916E-5,1.771876123E-3,2.590475469E-3
9.514184792E0,-5.016552750E-4,1.395596191E-4,5.180798471E-4,7.345349755E-4
9.524140792E0,1.750580035E-3,-6.896536797E-5,-1.056324691E-4,1.755119626E-3
9.534096792E0,1.813001116E-3,-9.362446144E-4,6.829472259E-4,2.151730452E-3
9.544053792E0,6.811576895E-4,-5.346396938E-4,-2.694474068E-3,2.830195382E-3
9.554009792E0,-1.457545906E-3,-2.580998465E-3,-1.215987373E-3,3.203844322E-3
9.563965792E0,-2.929253969E-5,-2.138913609E-3,9.375531226E-5,2.141167798E-3
9.573922792E0,-1.158663770E-3,-2.360789105E-3,-2.333903220E-3,3.516096013E-3
9.583878792E0,-1.894761343E-3,-4.925811663E-4,-1.235349104E-3,2.314917743E-3
9.593834792E0,4.528055433E-5,6.262101233E-4,3.223350737E-3,3.283927439E-3
9.603791792E0,4.556736676E-4,5.789101124E-5,6.779017858E-4,8.188654906E-4
9.613747792E0,-5.983696319E-4,-1.512620598E-3,9.189755656E-4,1.868310301E-3
9.623703792E0,1.022962970E-3,5.358830094E-4,-1.314884052E-3,1.750012545E-3
9.633660792E0,1.877586008E-3,1.841578633E-4,-8.424874395E-4,2.066162729E-3
9.643616792E0,-9.445657488E-4,1.547164284E-3,-8.712494746E-4,2.011217895E-3
9.653572792E0,5.575229879E-4,-9.288173169E-5,-1.732894685E-3,1.822740488E-3
9.663528792E0,-1.116273808E-3,-1.998106949E-3,-2.853552811E-3,3.658040765E-3
9.673485792E0,-2.601217013E-3,1.864754595E-3,1.389672980E-3,3.489244995E-3
9.683441792E0,-1.364178606E-3,3.153271973E-4,8.871345781E-4,1.657534998E-3
9.693397792E0,-1.177140861E-3,-1.243429258E-3,-1.590137836E-3,2.336731748E-3
9.703354792E0,9.398581460E-5,1.113209873E-4,3.188159317E-4,3.505271657E-4
9.713310792E0,1.133294776E-3,-9.839432314E-4,-4.092724994E-4,1.555636626E-3
9.723266792E0,-5.040166434E-4,-1.704062335E-3,6.176424213E-4,1.881314269E-3
9.733223792E0,-3.796087112E-4,4.295762628E-4,2.972928341E-3,3.027695735E-3
9.743179792E0,-5.748183466E-4,3.587361425E-4,2.141599543E-4,7.106139864E-4
9.753135792E0,-2.035662066E-3,-1.511620358E-4,-4.760487936E-4,2.096042095E-3
9.763092792E0,2.165740822E-3,-4.889722914E-5,-4.462213255E-4,2.211772528E-3
9.773048792E0,-1.526761334E-4,-2.448744141E-3,-1.026908867E-4,2.455647223E-3
9.783004792E0,3.562539350E-4,-1.882555895E-3,4.464527592E-4,1.967296020E-3
9.792961792E0,4.207127495E-4,-1.450507902E-3,-2.419976518E-4,1.529553939E-3
9.802917792E0,7.994142361E-4,1.096806489E-3,-1.794887241E-3,2.250259497E-3
9.812873792E0,1.693623839E-3,6.682677194E-4,-1.446632668E-4,1.826436671E-3
9.822830792E0,-2.585543552E-3,1.991858706E-3,2.118224278E-3,3.890939560E-3
9.832786792E0,1.074821223E-3,8.620480075E-4,6.955531426E-4,1.543425282E-3
9.842742792E0,-8.256104775E-4,1.077763736E-3,2.965365537E-3,3.261380091E-3
9.852699792E0,8.289620746E-5,6.373608485E-4,-3.349417821E-4,7.247666036E-4
9.862655792E0,1.830196125E-3,-1.481716521E-3,-1.528304536E-3,2.807279191E-3
9.872611792E0,2.852985170E-3,1.534437761E-4,-1.413654536E-5,2.857143541E-3
9.882567792E0,8.537502144E-4,2.242427319E-3,1.959870569E-4,2.407442759E-3
9.892524792E0,4.265923053E-4,-1.537729986E-3,-2.267127391E-3,2.772446773E-3
9.902480792E0,-1.655763481E-5,3.898655996E-4,-1.580831129E-3,1.628280197E-3
9.912436792E0,-1.327645732E-3,-6.190780550E-4,-9.146118537E-4,1.726967189E-3
9.922393792E0,2.241783077E-4,3.167567775E-4,-1.901579555E-3,1.940771902E-3
9.932349792E0,-5.522405263E-5,-1.495929435E-3,-1.145384274E-3,1.884876576E-3
9.942305792E0,-8.794723544E-4,1.226620749E-3,4.663607106E-4,1.579734913E-3
9.952262792E0,-3.126688767E-3,2.659596503E-4,1.750313211E-3,3.593120304E-3
9.962218792E0,3.426111070E-4,-1.397717744E-3,1.062419266E-3,1.788779461E-3
9.972174792E0,-2.127294661E-3,-1.660750248E-3,1.166029368E-3,2.939914701E-3
9.982131792E0,-2.028757706E-3,-1.529723406E-3,1.923699398E-3,3.186931267E-3
9.992087792E0,-1.038901741E-3,-1.305251382E-3,6.172419526E-4,1.778759575E-3
1.000204379E1,1.446071547E-4,-2.278903499E-3,-1.371340360E-3,2.663622866E-3
1.001200079E1,2.766925376E-3,1.751142554E-3,-7.896218449E-4,3.368364431E-3
1.002195679E1,-8.411253802E-4,7.005259395E-4,3.313026391E-4,1.143673877E-3
1.003191279E1,-1.987338532E-3,8.410029113E-5,1.243982464E-3,2.346077507E-3
1.004186979E1,-7.250001654E-4,2.807448618E-3,-2.710898407E-4,2.912195509E-3
1.005182579E1,2.273224294E-3,-1.820123754E-3,-5.254046991E-4,2.959129817E-3
1.006178179E1,1.738195191E-3,1.809755340E-4,-1.080407295E-3,2.054593534E-3
1.007173879E1,-9.427547920E-4,1.081397757E-3,1.619245391E-3,2.163368518E-3
1.008169479E1,7.454229635E-4,1.604176126E-3,1.164910384E-3,2.118030368E-3
1.009165079E1,-1.778725069E-3,1.168115065E-3,-9.105969220E-4,2.314636565E-3
1.010160679E1,5.241104518E-4,-2.707913518E-4,4.966175184E-4,7.711346714E-4
1.011156379E1,-1.607515733E-3,-2.382939681E-3,1.122316346E-3,3.085790391E-3
1.012151979E1,-5.331964931E-4,1.093817875E-3,-1.890244894E-4,1.231448863E-3
1.013147579E1,-6.741720717E-4,-1.566240564E-3,-1.623513643E-3,2.354445590E-3
1.014143279E1,-8.854293264E-5,9.581698105E-4,-2.920473227E-3,3.074913512E-3
1.015138879E1,-6.394004449E-4,-2.831490710E-3,-1.567356754E-3,3.298905844E-3
1.016134479E1,1.315093483E-3,2.129978500E-3,-1.201970968E-3,2.776871169E-3
1.017130179E1,-7.694687229E-4,4.487819970E-4,1.185168512E-4,8.986287555E-4
1.018125779E1,3.330800682E-4,7.419958711E-4,-1.267924439E-3,1.506364029E-3
1.019121379E1,-6.680598017E-4,1.161164604E-3,4.099584185E-4,1.400954332E-3
1.020117079E1,-1.279707067E-4,1.959048212E-3,9.292750619E-4,2.172049387E-3
1.021112679E1,-1.517867786E-3,8.816020563E-4,2.288156655E-3,2.883887251E-3
1.022108279E1,-2.377802506E-3,-8.041784167E-4,1.445780508E-4,2.514269376E-3
1.023103979E1,-1.532896189E-3,-1.952613704E-3,-5.071838386E-4,2.533713964E-3
1.024099604E1,1.678077155E-3,8.074864745E-4,5.010892637E-4,1.928488474E-3
1.025095204E1,-3.081902396E-4,-2.647724934E-3,3.314954229E-4,2.686134353E-3
1.026090904E1,1.327789505E-3,-1.006950624E-3,-2.151103225E-3,2.721069571E-3
1.027086504E1,-1.362784533E-4,2.223304473E-3,-3.935847431E-3,4.522449513E-3
1.028082104E1,-1.526714768E-3,-2.699466422E-4,-3.039959818E-3,3.412489541E-3
1.029077804E1,1.350848121E-3,-7.634013891E-4,-5.320589989E-4,1.640322866E-3
1.030073404E1,-4.171216395E-3,1.589767635E-3,1.310848631E-3,4.652389867E-3
1.031069004E1,1.294494141E-4,-1.313771121E-3,9.157201275E-4,1.606640925E-3
1.032064704E1,3.623880912E-5,-1.692738384E-3,1.726984046E-4,1.701911051E-3
1.033060304E1,-2.961164806E-3,1.264167018E-3,2.372716554E-3,3.999549862E-3
1.034055904E1,1.026386395E-3,9.919917211E-4,2.195882611E-3,2.619048882E-3
1.035051504E1,-2.673473209E-3,-1.717277803E-3,1.307049301E-3,3.435823035E-3
1.036047204E1,-5.288294051E-4,7.528048009E-4,2.327573020E-3,2.502792794E-3
1.037042804E1,-5.466511939E-4,7.520988584E-5,-3.017266281E-4,6.289062035E-4
1.038038404E1,1.740002772E-4,-5.258657038E-4,-2.022927627E-3,2.097390526E-3
1.039034104E1,-7.534329779E-4,-8.549438789E-4,-3.382077906E-3,3.568899165E-3
1.040029704E1,-4.919106141E-4,1.200390980E-4,-7.657883689E-4,9.180507955E-4
1.041025304E1,1.417989843E-4,-9.271986783E-4,-7.829670794E-4,1.221819049E-3
1.042021004E1,-6.915042177E-4,5.575139076E-4,-1.603201963E-4,9.026086669E-4