"Time (s)","Gyroscope x (rad/s)","Gyroscope y (rad/s)","Gyroscope z (rad/s)","Absolute (rad/s)"
9.959583331E-4,-1.394557767E-4,-1.284070313E-3,-1.368673146E-2,1.374754169E-2
1.095195833E-2,6.421976723E-4,-6.260676309E-4,-1.070808619E-2,1.074557995E-2
2.090795833E-2,-5.117499968E-4,-2.913083881E-4,-1.362824440E-2,1.364096016E-2
3.086395833E-2,-1.730414806E-3,-6.014024839E-4,-1.112985238E-2,1.127961145E-2
4.081995834E-2,1.429425902E-3,-1.816069707E-3,-1.403349638E-2,1.422253101E-2
5.077595833E-2,2.292350400E-3,-8.032368496E-4,-1.108350419E-2,1.134654682E-2
6.073195834E-2,3.629596904E-6,-2.477565780E-3,-1.030612923E-2,1.059974741E-2
7.068795833E-2,-9.850629140E-4,-1.024532132E-3,-1.199062914E-2,1.207456840E-2
8.064495834E-2,-8.194141556E-4,-3.049067222E-3,-9.773015976E-3,1.027035013E-2
9.060095833E-2,9.588276152E-4,2.758195624E-4,-1.187597029E-2,1.191780589E-2
1.005569583E-1,7.979726652E-4,2.039140090E-4,-1.084559225E-2,1.087681996E-2
1.105129583E-1,2.601158340E-4,-3.011822701E-4,-1.263609529E-2,1.264236034E-2
1.204689583E-1,-1.573736779E-3,-2.375803888E-6,-1.165658608E-2,1.176234042E-2
1.304249583E-1,-2.341176383E-3,1.661544666E-4,-1.217785478E-2,1.240197005E-2
1.403809583E-1,5.904314457E-4,5.033109337E-4,-8.323196322E-3,8.359277971E-3
1.503369583E-1,3.983993083E-3,1.291857101E-3,-9.130982682E-3,1.004569263E-2
1.602929583E-1,1.981296111E-3,1.241256483E-3,-1.342879049E-2,1.363079844E-2
1.702499583E-1,-6.261022063E-4,-1.141121611E-3,-1.422721893E-2,1.428663434E-2
1.802059583E-1,-2.169936663E-3,1.057583839E-3,-1.489140838E-2,1.508579306E-2
1.901619583E-1,1.690023579E-3,1.110534184E-3,-1.423026621E-2,1.437323702E-2
2.001179583E-1,2.306279028E-3,-3.001429141E-4,-1.221611723E-2,1.243553493E-2
2.100739583E-1,-1.536327996E-3,9.598499164E-4,-7.791686803E-3,7.999499910E-3
2.200299583E-1,1.435759827E-3,-8.550947532E-4,-1.172357798E-2,1.184208064E-2
2.299859583E-1,-1.736841514E-3,-6.437106058E-4,-8.863078430E-3,9.054564653E-3
2.399419583E-1,8.855730994E-4,-4.258640110E-4,-1.100479253E-2,1.104857721E-2
2.498989583E-1,-1.256794785E-3,2.175823785E-3,-1.473817602E-2,1.495083859E-2
2.598549583E-1,-1.356038265E-4,-1.083352603E-3,-1.273627579E-2,1.278298722E-2
2.698109583E-1,-9.624641389E-4,-4.621995613E-4,-1.152743958E-2,1.157677973E-2
2.797669583E-1,-1.774728298E-3,8.470099419E-4,-9.850447997E-3,1.004482016E-2
2.897229583E-1,1.419100445E-4,1.935465261E-4,-1.048039086E-2,1.048313843E-2
2.996789583E-1,2.027960727E-3,1.594582573E-4,-9.954152629E-3,1.015988219E-2
3.096349583E-1,-1.529953443E-4,8.272621781E-4,-9.962767363E-3,9.998225033E-3
3.195909583E-1,-2.075531287E-3,6.128773093E-4,-9.775016457E-3,1.001171291E-2
3.295479583E-1,-7.101520896E-5,-2.120950259E-3,-7.963739336E-3,8.241639240E-3
3.395039583E-1,-1.887269318E-4,8.727088571E-4,-1.321842149E-2,1.324854351E-2
3.494599583E-1,-2.988899359E-4,-1.227585599E-4,-1.392859221E-2,1.393233956E-2
3.594159583E-1,-2.141531091E-3,7.286546752E-4,-1.002706215E-2,1.027905970E-2
3.693719583E-1,1.416447340E-3,-5.706455559E-4,-9.274091572E-3,9.398975151E-3
3.793279583E-1,3.740860266E-4,-1.016458496E-3,-9.768642485E-3,9.828504679E-3
3.892839583E-1,1.422767644E-3,4.077544436E-4,-1.304441318E-2,1.312810903E-2
3.992399583E-1,2.286164556E-3,-1.478563063E-3,-1.496934518E-2,1.521492663E-2
4.091959583E-1,1.375571475E-3,2.180018462E-3,-1.325425133E-2,1.350258700E-2
4.191529583E-1,-5.999613786E-4,-1.381427050E-3,-1.035913080E-2,1.046804114E-2
4.291089583E-1,-2.320385538E-3,1.208951697E-3,-1.009239629E-2,1.042603549E-2
4.390649583E-1,-5.504485453E-4,4.760501906E-4,-1.064393669E-2,1.066878652E-2
4.490209583E-1,6.284913979E-6,-2.197602764E-3,-1.006618887E-2,1.030328374E-2
4.589769583E-1,-1.791082555E-3,-7.349951193E-4,-1.005100831E-2,1.023576879E-2
4.689329583E-1,-1.160217915E-3,2.189371735E-4,-1.500118524E-2,1.504757780E-2
4.788889583E-1,1.781509956E-3,1.413897611E-3,-1.359743252E-2,1.378633582E-2
4.888449583E-1,-9.501210880E-4,-5.172761157E-4,-1.374245435E-2,1.378496849E-2
4.988019583E-1,2.846481279E-3,9.474623948E-4,-1.034532487E-2,1.077153134E-2
5.087579583E-1,1.009980682E-3,-2.275122330E-3,-9.784903377E-3,1.009656262E-2
5.187139583E-1,1.156720915E-3,-1.749536023E-4,-1.257483289E-2,1.262913434E-2
5.286699583E-1,-1.099256799E-3,1.660306007E-4,-1.241408288E-2,1.246376290E-2
5.386259583E-1,-1.407384640E-3,6.083492190E-5,-1.305750012E-2,1.313326852E-2
5.485819583E-1,1.111004734E-3,-2.405932173E-4,-8.174723014E-3,8.253381911E-3
5.585379583E-1,7.530758739E-4,3.437045962E-4,-7.908942178E-3,7.952145779E-3
5.684939583E-1,-2.109283581E-3,-3.247169778E-3,-9.162086993E-3,9.946709349E-3
5.784509583E-1,7.381680189E-4,-8.109100163E-4,-1.073921099E-2,1.079505071E-2
5.884069583E-1,1.283881720E-4,2.405374311E-3,-1.373242214E-2,1.394208474E-2
5.983629583E-1,-1.200847328E-4,-1.369923353E-3,-1.206874475E-2,1.214683951E-2
6.083189583E-1,-1.860565390E-3,-5.364743993E-4,-1.340111159E-2,1.354028434E-2
6.182749583E-1,-1.351635321E-3,2.965619788E-4,-8.119264618E-3,8.236341723E-3
6.282307917E-1,1.129787648E-3,-1.057528891E-3,-6.837263703E-3,7.010204165E-3
6.381867917E-1,1.423534239E-3,-1.429039985E-3,-6.769886240E-3,7.063990707E-3
6.481427917E-1,2.812211169E-4,-1.324943267E-3,-1.078728586E-2,1.087198677E-2
6.580987917E-1,2.950695925E-4,1.456995495E-3,-1.222885773E-2,1.231888238E-2
6.680557917E-1,2.540845890E-3,1.404197887E-3,-1.137790270E-2,1.174241625E-2
6.780117917E-1,-1.598659437E-4,7.418692112E-4,-1.191825978E-2,1.194239688E-2
6.879677917E-1,4.509463906E-5,-2.483847551E-3,-1.166510582E-2,1.192670223E-2
6.979237917E-1,-5.056470400E-4,-6.981985644E-4,-9.397160262E-3,9.436619159E-3
7.078797917E-1,6.207427941E-4,-6.211511791E-4,-9.204799309E-3,9.246592925E-3
7.178357917E-1,-7.851398550E-4,1.296058297E-3,-8.835950866E-3,8.964945031E-3
7.277917917E-1,1.610084437E-3,2.505471930E-3,-1.227552071E-2,1.263163371E-2
7.377477917E-1,-4.586915020E-5,1.173359342E-3,-1.296687871E-2,1.301993931E-2
7.477047917E-1,-2.352387179E-3,-1.498429105E-3,-7.554532960E-3,8.052948743E-3
7.576607917E-1,1.190261682E-4,-1.362075098E-3,-1.072183065E-2,1.080865710E-2
7.676167917E-1,1.981588779E-3,8.290261030E-5,-7.381577045E-3,7.643379266E-3
7.775727917E-1,-3.896898124E-4,-2.196497284E-3,-1.092145219E-2,1.114695369E-2
7.875287917E-1,1.053146436E-3,1.227322035E-3,-9.787034243E-3,9.919751815E-3
7.974847917E-1,1.672863960E-3,-3.142924979E-3,-1.185870916E-2,1.238165716E-2
8.074407917E-1,1.207207562E-3,8.449032903E-4,-1.247173548E-2,1.255847911E-2
8.173967917E-1,4.082592204E-4,-3.394316882E-3,-1.233698055E-2,1.280191985E-2
8.273527917E-1,-2.160082338E-3,-4.256991670E-4,-1.005478203E-2,1.029299846E-2
8.373097917E-1,1.334783970E-3,-6.344905123E-4,-7.770854980E-3,7.910146242E-3
8.472657917E-1,1.473683515E-4,-2.289330587E-4,-7.196538150E-3,7.201686547E-3
8.572217917E-1,-1.162640518E-3,-1.941877417E-3,-9.114012122E-3,9.390837973E-3
8.671777917E-1,2.826133277E-3,-1.678267494E-3,-9.434733540E-3,9.990886249E-3
8.771337917E-1,-1.601372031E-3,-1.463083550E-3,-1.200281829E-2,1.219723955E-2
8.870897917E-1,1.167098293E-3,-1.222685911E-3,-1.176402904E-2,1.188484154E-2
8.970457917E-1,-2.323240507E-3,4.524420947E-4,-1.147454418E-2,1.171611346E-2
9.070017917E-1,-1.225811662E-3,1.560263336E-4,-9.611025453E-3,9.690137703E-3
9.169587917E-1,-2.754732501E-3,-7.691560313E-4,-8.555348963E-3,9.020762053E-3
9.269147917E-1,-4.951198353E-4,6.648274139E-4,-7.896445692E-3,7.939835874E-3
9.368707917E-1,7.845291402E-4,3.060996532E-4,-7.613617927E-3,7.660049667E-3
9.468267917E-1,-3.567675594E-5,-2.615311183E-3,-7.463229820E-3,7.908282036E-3
9.567827917E-1,4.982870305E-4,1.225765795E-3,-1.183720864E-2,1.191093196E-2
9.667387917E-1,-1.284792321E-3,6.148936227E-4,-1.048879698E-2,1.058506720E-2
9.766947917E-1,-1.397443935E-3,6.085019559E-4,-1.066829637E-2,1.077662617E-2
9.866507917E-1,-5.698030582E-4,4.336750135E-4,-8.957084268E-3,8.985661252E-3
9.966077917E-1,1.823846134E-3,1.031022519E-3,-8.148279041E-3,8.413315249E-3
1.006563792E0,2.034742502E-4,-1.247525215E-4,-8.209917694E-3,8.213386239E-3
1.016519792E0,-4.250317579E-4,1.280331053E-3,-1.199879497E-2,1.207439358E-2
1.026475792E0,-9.444773896E-4,2.082072198E-3,-9.495789185E-3,9.767142593E-3
1.036431792E0,1.678469824E-3,1.061814837E-3,-8.179923519E-3,8.417592321E-3
1.046387792E0,1.826173975E-4,1.235732809E-3,-8.193671703E-3,8.288343663E-3
1.056343792E0,2.990121720E-3,-1.288708299E-4,-7.357172668E-3,7.942633396E-3
1.066299792E0,2.407133812E-3,9.925104678E-5,-9.268969297E-3,9.576948146E-3
1.076255792E0,1.092597493E-3,1.639658585E-4,-9.169101715E-3,9.235425293E-3
1.086212792E0,-3.704176052E-4,1.351750456E-3,-1.166142151E-2,1.174534759E-2
1.096168792E0,-7.712233346E-4,1.326716505E-3,-1.099323481E-2,1.109982765E-2
1.106124792E0,-2.377946163E-3,-9.178752080E-4,-8.685607463E-3,9.051900345E-3
1.116080792E0,6.127837114E-4,2.041162923E-3,-9.788420051E-3,1.001773513E-2
1.126036792E0,3.673223546E-4,-1.226131804E-3,-7.641125470E-3,7.747588229E-3
1.135992792E0,-1.110731973E-3,-3.552781418E-4,-8.699201047E-3,8.777018112E-3
1.145948792E0,-3.381049260E-3,4.482430872E-3,-8.663317189E-3,1.032360137E-2
1.155904792E0,2.780173672E-3,4.501389340E-4,-9.329108521E-3,9.744960570E-3
1.165860792E0,4.421987687E-4,1.265347004E-3,-9.043253958E-3,9.142050369E-3
1.175817792E0,-2.061172621E-3,-1.210859977E-3,-8.336182684E-3,8.672171366E-3
1.185773792E0,1.759095117E-3,-1.462623477E-3,-7.437033579E-3,7.780947983E-3
1.195729792E0,-2.413279377E-3,1.329434104E-3,-8.666878566E-3,9.094289223E-3
1.205685792E0,1.661865041E-3,7.765777409E-4,-8.667146787E-3,8.859136630E-3
1.215641792E0,1.369982609E-3,6.708502769E-4,-1.067250781E-2,1.078097006E-2
1.225597792E0,1.128917793E-4,6.724195555E-4,-1.060732827E-2,1.062921942E-2
1.235553792E0,-2.225896344E-3,-1.612839289E-3,-1.005472243E-2,1.042368976E-2
1.245509792E0,4.894198501E-4,1.418521628E-3,-9.826138616E-3,9.940057117E-3
1.255466792E0,6.492094835E-4,-3.623338416E-4,-1.149407402E-2,1.151809430E-2
1.265422792E0,-1.969600562E-4,-7.250169292E-4,-9.165292606E-3,9.196033458E-3
1.275378792E0,1.665921183E-3,1.431078650E-3,-8.424932137E-3,8.706478106E-3
1.285334792E0,9.096894646E-4,-3.972835839E-5,-8.636072278E-3,8.683942518E-3
1.295290792E0,-1.535358839E-3,-2.547893673E-3,-1.023716480E-2,1.066061124E-2
1.305246792E0,-1.192982774E-3,1.425939612E-3,-1.089233533E-2,1.104986337E-2
1.315202792E0,4.488559789E-4,-3.128377721E-4,-1.173389331E-2,1.174664170E-2
1.325158792E0,2.480586059E-3,-4.185503349E-4,-1.082875207E-2,1.111712027E-2
1.335114792E0,1.071770675E-4,9.295409545E-4,-1.015497372E-2,1.019799120E-2
1.345071792E0,6.982153864E-4,1.846564934E-3,-6.828181446E-3,7.107838535E-3
1.355027792E0,1.042029471E-3,1.564269885E-3,-9.869247675E-3,1.004663204E-2
1.364983792E0,1.120239031E-3,1.159520820E-3,-8.266936988E-3,8.422687883E-3
1.374939792E0,4.848088720E-4,-1.205898821E-3,-8.483186364E-3,8.582172365E-3
1.384895792E0,1.066245837E-3,-3.647698089E-3,-1.082144678E-2,1.146936319E-2
1.394851792E0,2.456415910E-3,-2.414121293E-3,-7.809143513E-3,8.534909675E-3
1.404807792E0,4.720353521E-3,-2.045072615E-4,-9.966332465E-3,1.102956678E-2
1.414763792E0,-1.426222501E-3,-2.334769815E-3,-1.061427966E-2,1.096121313E-2
1.424720792E0,-9.255878394E-4,-2.496224828E-3,-1.049303263E-2,1.082550623E-2
1.434676792E0,5.157148698E-4,4.529599100E-4,-9.557198733E-3,9.581815179E-3
1.444632792E0,-1.211595605E-3,6.638066843E-4,-8.931878954E-3,9.038089670E-3
1.454588792E0,8.286520606E-4,-1.056329347E-3,-9.300194681E-3,9.396601355E-3
1.464544792E0,-1.148662413E-3,-1.414716244E-4,-8.907044306E-3,8.981919496E-3
1.474500792E0,1.514764968E-3,4.212548956E-4,-9.527297691E-3,9.656157097E-3
1.484456792E0,1.545999898E-3,1.723923720E-3,-1.122803800E-2,1.146433016E-2
1.494412792E0,-1.957074273E-4,4.895487800E-4,-8.651962504E-3,8.668010993E-3
1.504368792E0,3.648716374E-4,-7.401658222E-4,-1.152629964E-2,1.155580201E-2
1.514325792E0,-1.983869588E-4,1.213671640E-4,-8.145684376E-3,8.149003702E-3
1.524281792E0,-5.236493889E-4,-1.002177596E-4,-8.958585560E-3,8.974436335E-3
1.534237792E0,-5.105999298E-4,-5.377754569E-4,-9.871516377E-3,9.899330801E-3
1.544193792E0,7.178164087E-4,-8.374303579E-4,-1.077344827E-2,1.082976166E-2
1.554149792E0,-1.324295416E-3,3.615907393E-3,-1.262780838E-2,1.320189718E-2
1.564105792E0,1.087493263E-3,1.690276898E-3,-9.357452393E-3,9.570872106E-3
1.574061792E0,2.844380680E-3,-1.409642398E-3,-7.846906781E-3,8.464723219E-3
1.584017792E0,2.497787122E-3,1.121587120E-3,-7.858183235E-3,8.321534830E-3
1.593973792E0,1.523410319E-4,1.230777241E-3,-6.730601192E-3,6.843903331E-3
1.603930792E0,-1.945078839E-5,-7.768943906E-4,-6.943298504E-3,6.986654231E-3
1.613886792E0,6.029299693E-4,3.506876528E-4,-1.312902384E-2,1.314753868E-2
1.623842792E0,-1.566116698E-4,2.358774655E-3,-1.064970531E-2,1.090892150E-2
1.633799042E0,5.690997932E-4,-1.239156350E-3,-1.226784103E-2,1.234339121E-2
1.643755042E0,-3.993399907E-3,2.515395172E-3,-8.717760444E-3,9.913314423E-3
1.653711042E0,5.568771157E-4,6.360020489E-4,-9.412847459E-3,9.450730555E-3
1.663667042E0,5.826757406E-4,8.472818881E-4,-7.607428357E-3,7.676611481E-3
1.673623042E0,7.557811914E-4,-1.436112449E-3,-1.144131459E-2,1.155583419E-2
1.683580042E0,9.498611907E-4,-3.195302561E-4,-9.119546041E-3,9.174445807E-3
1.693536042E0,-2.159379423E-3,-2.934308723E-4,-1.033767499E-2,1.056487318E-2
1.703492042E0,6.438760320E-4,1.390162855E-3,-9.023696184E-3,9.152825899E-3
1.713448042E0,-3.406945616E-4,-3.560716286E-4,-9.245004505E-3,9.258129837E-3
1.723404042E0,6.310583558E-4,8.915178478E-4,-8.088484406E-3,8.161900435E-3
1.733360042E0,-1.637155889E-3,-2.309335396E-3,-8.789960295E-3,9.234539044E-3
1.743316042E0,-1.105689327E-3,2.455675974E-3,-8.164290339E-3,8.597007044E-3
1.753272042E0,1.574516064E-3,2.439208329E-4,-9.161908180E-3,9.299417170E-3
1.763228042E0,2.492462751E-3,1.358096488E-3,-8.655427024E-3,9.108963366E-3
1.773185042E0,4.025111906E-3,3.596767783E-4,-9.608307853E-3,1.042355376E-2
1.783141042E0,1.631040941E-3,2.637337893E-4,-7.142046466E-3,7.330666940E-3
1.793097042E0,-1.193241449E-3,-1.533634029E-3,-7.784666494E-3,8.023521104E-3
1.803053042E0,-2.143800259E-3,-6.709517911E-4,-1.062276214E-2,1.085767615E-2
1.813009042E0,6.352083292E-4,2.680369653E-3,-9.960699826E-3,1.033457363E-2
1.822965042E0,2.308565890E-4,5.355123430E-4,-1.051722653E-2,1.053338133E-2
1.832921042E0,2.556062536E-3,-9.689079598E-4,-1.276014186E-2,1.304965359E-2
1.842877042E0,2.265466843E-3,-1.550670713E-4,-9.240251034E-3,9.515178663E-3
1.852833042E0,1.362696639E-4,-1.864926890E-4,-8.125454187E-3,8.128736353E-3
1.862790042E0,2.145665232E-3,1.046704128E-4,-5.250344053E-3,5.672825386E-3
1.872746042E0,1.711303834E-3,1.038640738E-3,-6.593110040E-3,6.890314608E-3
1.882702042E0,-1.079181791E-3,-2.599228173E-5,-8.722668514E-3,8.789212418E-3
1.892658042E0,-1.180381863E-3,-1.118686981E-3,-1.345164515E-2,1.354959480E-2
1.902614042E0,5.338806659E-7,1.601899043E-3,-1.044880226E-2,1.057088216E-2
1.912570042E0,3.253585193E-3,3.262450919E-4,-8.324135095E-3,8.943348229E-3
1.922526042E0,-1.234674011E-3,-1.175234094E-3,-7.485611364E-3,7.677237302E-3
1.932482042E0,-2.156127710E-3,9.848559275E-4,-5.910618231E-3,6.368220769E-3
1.942439042E0,2.563255839E-5,-1.124264672E-4,-6.207484752E-3,6.208555684E-3
1.952395042E0,2.095707692E-3,1.329941675E-3,-9.721789509E-3,1.003363976E-2
1.962351042E0,-1.605641213E-3,9.902687743E-4,-1.082211547E-2,1.098530378E-2
1.972307042E0,-1.922024763E-3,-1.194322482E-3,-1.249777712E-2,1.270098493E-2
1.982263042E0,1.474698773E-3,-1.307620667E-3,-8.859386668E-3,9.075976003E-3
1.992219042E0,3.961184993E-4,-2.012292854E-3,-1.111827977E-2,1.130585589E-2
2.002175042E0,1.532986877E-3,5.623390898E-4,-6.507923827E-3,6.709645784E-3
2.012131042E0,1.657200046E-4,1.873662695E-4,-5.233336240E-3,5.239310779E-3
2.022087042E0,-3.462670138E-4,-1.434652135E-3,-6.489999592E-3,6.655690971E-3
2.032043042E0,-5.388135323E-4,1.057200134E-4,-5.677469075E-3,5.703959312E-3
2.042000042E0,1.065206598E-3,-1.632042229E-3,-6.662238389E-3,6.941444179E-3
2.051956042E0,1.294238493E-3,8.191317320E-4,-1.161998138E-2,1.172049476E-2
2.061912042E0,8.091218187E-4,8.902698755E-5,-1.049328409E-2,1.052480950E-2
2.071868042E0,-1.483327127E-3,-2.794377506E-3,-9.668769315E-3,1.017319542E-2
2.081824042E0,1.486401539E-3,-2.395774238E-3,-8.875990286E-3,9.313019237E-3
2.091780042E0,-1.938689849E-3,-1.166459173E-3,-5.886858329E-3,6.306682672E-3
2.101736042E0,4.712825175E-4,-8.911397308E-4,-5.574546754E-3,5.664963261E-3
2.111692042E0,-9.047727799E-4,8.337898180E-4,-8.551694453E-3,8.639750995E-3
2.121649042E0,7.946781116E-4,-1.577594317E-3,-1.128433645E-2,1.142175845E-2
2.131605042E0,2.437315881E-3,-2.468154766E-3,-1.210192591E-2,1.258923776E-2
2.141561042E0,-1.272160909E-3,-4.203673452E-4,-1.060618088E-2,1.069047122E-2
2.151517042E0,2.407808206E-4,-6.605843082E-4,-7.855933160E-3,7.887333696E-3
2.161473042E0,-1.231433009E-3,-1.825064421E-3,-6.136931479E-3,6.519909154E-3
2.171429042E0,-2.652382245E-4,-1.780323684E-3,-5.686324090E-3,5.964409895E-3
2.181385042E0,2.479483373E-3,3.759674728E-4,-7.389592007E-3,7.803541463E-3
2.191341042E0,-7.235747762E-5,8.168816566E-5,-9.693494067E-3,9.694108302E-3
2.201297042E0,2.725949511E-3,2.855746076E-3,-1.104192436E-2,1.172647346E-2
2.211254042E0,1.168799354E-3,-4.154145718E-4,-9.991575032E-3,1.006827854E-2
2.221210042E0,-2.405037638E-3,-8.427947760E-4,-8.402172476E-3,8.780148711E-3
2.231166042E0,2.543949522E-4,-4.579685628E-4,-9.044528008E-3,9.059687570E-3
2.241122042E0,-2.585026668E-4,-1.300600357E-3,-8.021984249E-3,8.130843512E-3
2.251078042E0,2.474433277E-3,-1.929106191E-3,-8.433442563E-3,8.998178938E-3
2.261034042E0,-1.279188669E-3,-1.675459556E-3,-7.274188101E-3,7.573460300E-3
2.270990042E0,-2.183864359E-3,-9.196540341E-4,-8.913632482E-3,9.223224551E-3
2.280946042E0,-1.070376718E-3,-1.741628163E-3,-1.166100614E-2,1.183883605E-2
2.290902042E0,-2.103683306E-3,1.694648527E-3,-1.055818982E-2,1.089828837E-2
2.300859042E0,-4.372349940E-3,7.890444249E-5,-1.029679179E-2,1.118693842E-2
2.310815042E0,-1.624234021E-3,-6.896834821E-4,-8.009400219E-3,8.201481044E-3
2.320771042E0,-3.137979424E-3,-1.327078789E-4,-5.621712655E-3,6.439579134E-3
2.330727042E0,-6.854743697E-4,4.172343761E-4,-7.091779262E-3,7.137036691E-3
2.340683042E0,1.615832560E-3,-6.829760969E-4,-1.139496081E-2,1.152920218E-2
2.350639042E0,1.302378601E-3,5.601877347E-4,-8.800776675E-3,8.914239755E-3
2.360595042E0,-8.723994251E-4,-1.713979989E-3,-1.023576595E-2,1.041487939E-2
2.370551042E0,6.772940396E-4,2.695424482E-4,-7.056483999E-3,7.094036000E-3
2.380507042E0,4.512189771E-4,-6.385706365E-5,-5.914777517E-3,5.932307255E-3
2.390464042E0,-1.939500682E-3,-1.725669950E-3,-6.049267948E-3,6.582798977E-3
2.400420042E0,-2.526660683E-4,2.266494557E-4,-7.203396410E-3,7.211388906E-3
2.410376042E0,1.018797047E-5,1.395633444E-4,-1.055685058E-2,1.055777798E-2
2.420332042E0,-6.946744397E-4,9.286543354E-4,-1.120124012E-2,1.126111681E-2
2.430288042E0,-1.518390141E-3,-1.287894323E-3,-7.898919284E-3,8.145987127E-3
2.440244042E0,3.170489799E-5,-1.890075393E-3,-1.004073024E-2,1.021712552E-2
2.450200042E0,-3.533882555E-4,7.786788046E-4,-8.712876588E-3,8.754738282E-3
2.460156042E0,-1.373827923E-3,8.408902213E-4,-9.363321587E-3,9.500857365E-3
2.470112042E0,3.819942940E-4,6.289025769E-4,-9.553471580E-3,9.581766921E-3
2.480069042E0,1.159085776E-3,1.060696319E-3,-8.658083156E-3,8.799486374E-3
2.490025042E0,2.103709150E-3,1.860709861E-3,-7.689228281E-3,8.186089722E-3
2.499981042E0,-6.574535510E-4,-1.727310009E-3,-6.420983002E-3,6.681681506E-3
2.509937042E0,-1.285693375E-3,-5.858791992E-4,-4.787400365E-3,4.991539256E-3
2.519893042E0,-1.040086849E-3,1.941994764E-3,-6.447531283E-3,6.813500125E-3
2.529849042E0,-5.995999090E-4,6.873793900E-4,-7.556203753E-3,7.611059429E-3
2.539805042E0,2.465741127E-4,-8.769817650E-4,-1.154563762E-2,1.158152166E-2
2.549761042E0,-2.863998059E-3,5.984092131E-4,-9.324828163E-3,9.773075193E-3
2.559717042E0,1.660312526E-3,-1.112534665E-3,-1.195476390E-2,1.212067453E-2
2.569674042E0,-3.382116789E-3,2.842936665E-4,-5.305917934E-3,6.298595239E-3
2.579630042E0,2.370140282E-4,-8.924026042E-5,-4.376785830E-3,4.384106941E-3
2.589586042E0,2.415745985E-3,-1.522553153E-3,-4.105409607E-3,5.000838411E-3
2.599542042E0,8.933071513E-5,-1.180209219E-4,-4.880139604E-3,4.882383790E-3
2.609498042E0,3.585763043E-4,9.544333443E-4,-9.775562212E-3,9.828587718E-3
2.619454042E0,3.250972368E-4,-7.481100038E-4,-1.346072182E-2,1.348541392E-2
2.629409917E0,7.709104102E-4,-1.255708747E-3,-1.163965464E-2,1.173254735E-2
2.639365917E0,-1.061001210E-3,9.746747091E-4,-7.366562262E-3,7.506127758E-3
2.649321917E0,-6.127912784E-4,-1.711922698E-3,-7.621159777E-3,7.835066612E-3
2.659277917E0,1.177669154E-3,-1.313910820E-3,-5.771981552E-3,6.035647216E-3
2.669234917E0,9.057603893E-4,-1.863854006E-3,-6.716867909E-3,7.029272234E-3
2.679190917E0,4.154877737E-3,1.202222891E-3,-1.197078824E-2,1.272824104E-2
2.689146917E0,-1.124838833E-3,2.037123777E-3,-1.042775437E-2,1.068424995E-2
2.699102917E0,-7.607480511E-4,4.361551255E-4,-1.051032729E-2,1.054684544E-2
2.709058917E0,-1.419347827E-3,-9.754206985E-5,-4.513155669E-3,4.732085883E-3
2.719014917E0,5.489535979E-4,-4.021255299E-4,-4.506316036E-3,4.557404877E-3
2.728970917E0,7.817138685E-4,1.063944772E-3,-3.872217610E-3,4.091103063E-3
2.738926917E0,-1.169715193E-3,1.177745871E-3,-6.547404453E-3,6.754540994E-3
2.748882917E0,-1.089554164E-3,-2.481099218E-4,-1.133603416E-2,1.139097702E-2
2.758839917E0,-6.209126441E-4,6.967103109E-4,-1.180295460E-2,1.183979202E-2
2.768795917E0,1.474462450E-3,-5.520461127E-4,-1.078642346E-2,1.090072133E-2
2.778751917E0,1.509077149E-3,-1.063402742E-4,-1.039166003E-2,1.050120090E-2
2.788707917E0,-3.314334899E-4,-2.077878453E-3,-4.191555083E-3,4.690049151E-3
2.798663917E0,1.290913555E-3,-6.061028689E-4,-2.691611648E-3,3.046078094E-3
2.808619917E0,-3.405389143E-4,-1.389338635E-3,-6.100457162E-3,6.265924208E-3
2.818575917E0,-1.187899383E-3,-9.076958522E-4,-7.342588156E-3,7.493238121E-3
2.828531917E0,4.957510391E-4,-5.340538919E-4,-1.237649471E-2,1.239792740E-2
2.838487917E0,1.168454299E-3,-9.155981243E-4,-8.506391197E-3,8.634946241E-3
2.848444917E0,3.740333486E-4,-6.951112300E-5,-9.264592081E-3,9.272399861E-3
2.858400917E0,2.517019864E-3,-1.706387848E-3,-5.805594847E-3,6.553783640E-3
2.868356917E0,9.414938977E-4,2.196208574E-3,-7.055414841E-3,7.449068494E-3
2.878312917E0,9.253652534E-4,-2.130240202E-3,-4.373647273E-3,4.952071752E-3
2.888268917E0,1.459861640E-3,-1.429029740E-3,-8.017385378E-3,8.273559712E-3
2.898224917E0,-1.053502667E-3,3.090398386E-4,-1.005848870E-2,1.011822951E-2
2.908180917E0,-7.851957344E-5,-3.468971699E-4,-1.259994507E-2,1.260496405E-2
2.918136917E0,2.737868112E-3,1.441108994E-3,-6.947077811E-3,7.604906774E-3
2.928092917E0,-6.065295311E-4,-1.458683982E-4,-5.747590214E-3,5.781344907E-3
2.938048917E0,1.529917936E-3,3.134487197E-4,-3.200145438E-3,3.560874867E-3
2.948005917E0,-1.675728941E-3,-2.107631415E-3,-5.850257352E-3,6.440162168E-3
2.957961917E0,8.009315352E-4,-1.176269725E-4,-1.035470888E-2,1.038630461E-2
2.967917917E0,-7.053524023E-4,3.843791783E-4,-1.102050021E-2,1.104973730E-2
2.977873917E0,2.656769473E-3,-6.585307419E-4,-1.092643104E-2,1.126405709E-2
2.987829917E0,2.335059689E-3,-1.292363741E-3,-9.215349331E-3,9.594027887E-3
2.997785917E0,1.685391413E-3,5.941214040E-4,-5.522234365E-3,5.804187871E-3
3.007741917E0,1.424135407E-3,-5.869902670E-4,-5.673235282E-3,5.878632307E-3
3.017697917E0,-2.129264176E-4,-2.080444247E-3,-8.321637288E-3,8.580398188E-3
3.027653917E0,4.989365116E-4,-2.319063060E-3,-9.828185663E-3,1.011040180E-2
3.037610917E0,-2.202511299E-3,7.407246158E-4,-1.200458221E-2,1.222741686E-2
3.047566917E0,-9.263245156E-4,-1.160148531E-4,-8.683355525E-3,8.733395659E-3
3.057522917E0,-3.492322285E-4,7.148711011E-4,-6.808126345E-3,6.854457540E-3
3.067478917E0,3.674243926E-4,-9.831599891E-4,-7.293621078E-3,7.368752451E-3
3.077434917E0,8.578156121E-4,-3.507250920E-3,-8.281894028E-3,9.034734381E-3
3.087390917E0,-3.464658512E-4,-9.494181722E-5,-6.481599063E-3,6.491546730E-3
3.097346917E0,-1.126691699E-3,-2.428852022E-4,-8.964693174E-3,9.038481681E-3
3.107302917E0,-8.987250039E-4,-7.659299299E-4,-9.441399947E-3,9.514956030E-3
3.117258917E0,2.130966634E-3,1.077430323E-3,-1.059548929E-2,1.086122775E-2
3.127215917E0,-2.047000453E-3,1.889161766E-3,-1.160908863E-2,1.193859631E-2
3.137171917E0,-1.897749142E-3,-1.698677428E-3,-7.630839944E-3,8.044667492E-3
3.147127917E0,-2.447250299E-4,1.350908540E-3,-7.543753833E-3,7.667663667E-3
3.157083917E0,-2.008622978E-3,3.095362335E-4,-9.163454175E-3,9.386121210E-3
3.167039917E0,5.333643639E-4,-6.784964353E-4,-8.815377951E-3,8.857523546E-3
3.176995917E0,-1.036155736E-4,-2.689449117E-3,-9.470336139E-3,9.845361310E-3
3.186951917E0,-5.567865446E-5,6.171315908E-4,-8.540358394E-3,8.562807543E-3
3.196907917E0,-9.369384497E-4,1.066848636E-3,-1.140357740E-2,1.149163162E-2
3.206863917E0,-1.761515159E-5,-1.692452468E-3,-9.395817295E-3,9.547046050E-3
3.216819917E0,-5.538533442E-4,1.136451028E-3,-7.679790258E-3,7.783151860E-3
3.226776917E0,1.592121786E-3,-2.703561448E-3,-9.219896048E-3,9.739126215E-3
3.236732917E0,5.127979093E-4,-6.025386974E-4,-6.837982684E-3,6.883605289E-3
3.246688917E0,-1.559219090E-4,-7.833670825E-4,-9.289421141E-3,9.323696733E-3
3.256644917E0,-3.259151708E-4,-1.740589738E-3,-1.016806811E-2,1.032111827E-2
3.266600917E0,-1.610091422E-3,-1.471078023E-3,-9.357932955E-3,9.608713448E-3
3.276556917E0,-3.231683513E-4,-6.911642849E-4,-1.024223492E-2,1.027061449E-2
3.286512917E0,1.264874591E-3,7.634544745E-4,-1.053172350E-2,1.063484698E-2
3.296468917E0,3.808629699E-4,2.649938688E-4,-6.287302822E-3,6.304399664E-3
3.306424917E0,3.582260688E-4,-9.440816939E-4,-4.110168666E-3,4.232387343E-3
3.316381917E0,4.372207914E-4,-2.485862002E-3,-6.715297699E-3,7.173973453E-3
3.326337917E0,4.105891567E-4,4.052659497E-4,-8.429840207E-3,8.449557968E-3
3.336293917E0,-1.125097042E-4,-3.647739068E-4,-9.681442752E-3,9.688965487E-3
3.346249917E0,-1.338362694E-3,1.465883106E-3,-1.293156110E-2,1.308301572E-2
3.356205917E0,-5.297871539E-4,3.749718890E-4,-9.269878268E-3,9.292573457E-3
3.366161917E0,1.460126834E-3,1.357944682E-3,-8.721269667E-3,8.946313696E-3
3.376117917E0,1.040230738E-3,-2.405207604E-3,-4.238320515E-3,4.983017599E-3
3.386073917E0,-2.185656223E-3,2.049461938E-3,-3.265200183E-3,4.431582065E-3
3.396029917E0,3.741875291E-3,-1.476826146E-3,-2.933654934E-3,4.978853024E-3
3.405985917E0,-1.844904036E-3,-3.449823707E-4,-7.123071700E-3,7.366195367E-3
3.415942917E0,1.485598041E-4,1.277294010E-3,-1.414276846E-2,1.420110734E-2
3.425898917E0,2.782958560E-3,-1.440728083E-3,-1.199679263E-2,1.239933825E-2
3.435854917E0,2.385264961E-4,9.752064943E-5,-8.289683610E-3,8.293687933E-3
3.445810917E0,1.589281834E-3,-5.379095674E-4,-5.024913698E-3,5.297633540E-3
3.455766917E0,-1.590179745E-4,-2.865949646E-4,-4.610747099E-3,4.622381659E-3
3.465722917E0,3.113178536E-5,-2.953838557E-4,-8.610814810E-3,8.615935962E-3
3.475678917E0,-1.855313778E-3,-2.347383648E-3,-8.110087365E-3,8.644415323E-3
3.485634917E0,1.979904482E-3,-5.919579417E-5,-1.192160323E-2,1.208503825E-2
3.495590917E0,-3.168011550E-3,1.124376431E-4,-8.534055203E-3,9.103792485E-3
3.505546917E0,-1.188750379E-3,9.805615991E-5,-7.323116064E-3,7.419620702E-3
3.515503917E0,3.093585838E-4,-2.252878621E-4,-4.782991484E-3,4.798277283E-3
3.525459917E0,2.579969820E-3,-1.312782988E-4,-3.464194015E-3,4.321356087E-3
3.535415917E0,4.305078182E-4,-1.058493741E-3,-4.258334637E-3,4.408986262E-3
3.545371917E0,-1.065389835E-3,-3.671366721E-4,-5.357954651E-3,5.475173320E-3
3.555327917E0,-4.806356737E-4,-1.324964687E-3,-8.499819785E-3,8.615885239E-3
3.565283917E0,-5.024736747E-4,-4.138974473E-4,-1.037388667E-2,1.039429245E-2
3.575239917E0,1.280056895E-3,-7.068151608E-4,-9.337335825E-3,9.451136103E-3
3.585195917E0,-3.436724655E-4,-2.502851188E-3,-9.405247867E-3,9.738637599E-3
3.595151917E0,-3.498909064E-5,-1.842313446E-3,-6.321940571E-3,6.585003846E-3
3.605108917E0,-1.107976655E-3,-6.319070235E-4,-2.578865737E-3,2.877058783E-3
3.615064917E0,-2.535548992E-5,-2.757366747E-5,-6.440784782E-3,6.440893713E-3
3.625020917E0,-1.856544986E-3,-1.271767542E-4,-8.992094547E-3,9.182630209E-3
3.634977042E0,2.944587497E-3,-3.296723589E-4,-9.645029902E-3,1.008989005E-2
3.644933042E0,-7.223190041E-4,1.856517047E-3,-7.595993578E-3,7.852866912E-3
3.654889042E0,-1.034748508E-3,4.041846842E-4,-4.896285012E-3,5.020724714E-3
3.664845042E0,-2.885307185E-4,1.786155626E-4,-7.490204647E-3,7.497887646E-3
3.674801042E0,1.892013242E-3,1.374121755E-3,-7.488261908E-3,7.844870370E-3
3.684757042E0,-6.150865229E-4,-4.216479138E-4,-9.675782174E-3,9.704477269E-3
3.694713042E0,2.529618796E-4,1.941801980E-3,-9.220082313E-3,9.425736178E-3
3.704670042E0,4.683318548E-5,1.843823120E-4,-9.707707912E-3,9.709571725E-3
3.714626042E0,1.478092396E-3,6.136009470E-4,-6.052091718E-3,6.260118003E-3
3.724582042E0,-1.045252662E-3,1.282853074E-3,-7.741604000E-3,7.916482656E-3
3.734538042E0,2.262457856E-4,-1.251918264E-3,-7.992593572E-3,8.093209406E-3
3.744494042E0,2.424152568E-3,1.286650077E-4,-8.587544784E-3,8.924068342E-3
3.754450042E0,1.582945813E-3,-1.257271506E-3,-1.248886436E-2,1.265141028E-2
3.764406042E0,-7.270800415E-4,1.025323756E-3,-1.001478732E-2,1.009335916E-2
3.774362042E0,-2.469033003E-3,-1.414936967E-3,-6.041586399E-3,6.678243542E-3
3.784318042E0,6.416573888E-5,1.023720019E-3,-5.054086447E-3,5.157122233E-3
3.794275042E0,-2.574864775E-3,-2.347164787E-3,-7.054021582E-3,7.867549277E-3
3.804231042E0,2.521626418E-3,-6.078537554E-4,-6.564797834E-3,7.058658270E-3
3.814187042E0,7.074394962E-4,-2.536477521E-3,-8.587909862E-3,8.982560028E-3
3.824143042E0,-1.059567789E-3,-1.528204419E-3,-1.119807549E-2,1.135143107E-2
3.834099042E0,4.191511543E-4,-2.160483040E-3,-8.307095617E-3,8.593672803E-3
3.844055042E0,1.182146836E-3,3.474149853E-4,-7.516935468E-3,7.617249316E-3
3.854011042E0,4.598788219E-4,2.235214226E-3,-4.547420889E-3,5.087898182E-3
3.863967042E0,2.435678151E-3,2.486084588E-3,-4.896562546E-3,6.007451157E-3
3.873923042E0,1.983212773E-3,1.900694333E-3,-5.618814379E-3,6.254346239E-3
3.883879042E0,5.123488372E-4,-2.434169874E-4,-6.251581013E-3,6.277262009E-3
3.893836042E0,2.135769231E-3,7.940111682E-4,-9.530125186E-3,9.798737164E-3
3.903792042E0,5.895378999E-4,-7.000220940E-4,-6.350843236E-3,6.416447278E-3
3.913748042E0,9.162497590E-4,1.598522067E-5,-4.399748519E-3,4.494169131E-3
3.923704042E0,2.315208316E-3,-1.508940943E-3,-6.955051795E-3,7.483972059E-3
3.933660042E0,-7.367378566E-4,-6.247758865E-4,-6.396209821E-3,6.468742355E-3
3.943616042E0,1.088060089E-3,-2.408027649E-3,-7.106741890E-3,7.582100778E-3
3.953572042E0,4.653754295E-4,1.503150910E-3,-6.968818605E-3,7.144261312E-3
3.963528042E0,3.777574166E-4,-7.682591677E-4,-7.681746036E-3,7.729304301E-3
3.973484042E0,4.234679509E-3,-8.259993047E-4,-8.204951882E-3,9.270168326E-3
3.983441042E0,-6.548841484E-4,-4.592817277E-4,-6.576694548E-3,6.625158423E-3
3.993397042E0,7.893715519E-4,-4.389295354E-4,-9.270874783E-3,9.314767084E-3
4.003353042E0,-1.030899002E-3,2.479095943E-3,-8.612541482E-3,9.021338051E-3
4.013309042E0,-1.355312299E-3,-1.093786210E-3,-7.460070774E-3,7.660672011E-3
4.023265042E0,-1.379812602E-4,-1.941705123E-4,-7.293088362E-3,7.296977379E-3
4.033221042E0,2.604825888E-3,-4.028128460E-4,-6.618954241E-3,7.124460074E-3
4.043177042E0,2.088971669E-3,6.928117946E-4,-5.730260164E-3,6.138377013E-3
4.053133042E0,1.389072509E-3,1.486699097E-3,-7.511150092E-3,7.781848903E-3
4.063089042E0,1.914252061E-5,-7.961625233E-4,-9.081348777E-3,9.116201885E-3
4.073045042E0,-3.095154883E-3,-1.707609743E-3,-7.964398712E-3,8.713642271E-3
4.083002042E0,1.513179042E-3,1.507891342E-3,-9.015016258E-3,9.264662176E-3
4.092958042E0,8.970516501E-5,-5.180295557E-4,-4.547365010E-3,4.577655532E-3
4.102914042E0,-2.369724214E-3,-7.337452844E-4,-7.359132171E-3,7.766002916E-3
4.112870042E0,1.472545555E-3,-1.598390751E-3,-9.102284908E-3,9.358142655E-3
4.122826042E0,1.413956052E-3,1.109777950E-3,-1.006421819E-2,1.022347136E-2
4.132782042E0,1.514020609E-3,-1.610761508E-3,-1.036728919E-2,1.060035358E-2
4.142738042E0,-1.989634009E-3,9.285621345E-4,-7.977370173E-3,8.274013899E-3
4.152694042E0,-1.398760942E-4,-4.058331251E-5,-6.401875988E-3,6.403532501E-3
4.162650042E0,2.243919298E-3,-9.380690753E-4,-5.077218637E-3,5.629679964E-3
4.172607042E0,-8.364708629E-4,-4.583830014E-4,-5.775341764E-3,5.853577622E-3
4.182563042E0,1.398453955E-3,-4.626438022E-4,-6.120486185E-3,6.295241369E-3
4.192519042E0,-8.325824165E-4,-5.675032735E-4,-8.625758812E-3,8.684409509E-3
4.202475042E0,-2.914281213E-4,-1.515178010E-4,-9.642286226E-3,9.647879128E-3
4.212431042E0,3.005685285E-4,-3.522273153E-3,-8.263554424E-3,8.987940883E-3
4.222387042E0,2.623111242E-3,3.212010488E-4,-2.929506823E-3,3.945363473E-3
4.232343042E0,2.156218514E-3,3.673350438E-4,-4.403792322E-3,4.917072313E-3
4.242299042E0,-9.231946315E-4,-2.920906991E-5,-5.620591342E-3,5.695980033E-3
4.252255042E0,1.789935865E-3,1.993986778E-3,-7.366295904E-3,7.838505534E-3
4.262211042E0,1.775022130E-3,1.655498520E-3,-9.014260024E-3,9.335323384E-3
4.272168042E0,2.017522929E-3,1.277902164E-3,-7.983695716E-3,8.333236466E-3
4.282124042E0,-1.943396637E-3,8.933339268E-5,-7.512051612E-3,7.759876956E-3
4.292080042E0,1.784440246E-4,3.805868328E-4,-7.579196244E-3,7.590843452E-3
4.302036042E0,3.832411021E-4,-1.510256901E-3,-5.151722580E-3,5.382192415E-3
4.311992042E0,5.248280941E-4,3.242865205E-6,-6.895396858E-3,6.915341848E-3
4.321948042E0,5.458670203E-4,-2.846447751E-4,-1.090158895E-2,1.091895760E-2
4.331904042E0,5.784775130E-4,-3.488473594E-4,-9.886424989E-3,9.909476766E-3
4.341860042E0,-2.779950737E-4,-1.968314871E-3,-5.396068096E-3,5.750573501E-3
4.351816042E0,1.474333694E-3,2.341391519E-4,-2.511411905E-3,2.921587025E-3
4.361773042E0,1.167537645E-3,-1.345913857E-3,-6.716996431E-4,1.904155633E-3
4.371729042E0,1.842260244E-4,-1.510426402E-3,-1.973949373E-3,2.492348946E-3
4.381685042E0,-1.661877264E-3,-1.077663153E-3,-5.227265880E-3,5.589946555E-3
4.391641042E0,-1.875871094E-3,2.531604841E-4,-9.292760864E-3,9.483585138E-3
4.401597042E0,3.307173029E-3,-1.440876164E-3,-1.171890087E-2,1.226157230E-2
4.411553042E0,6.418237463E-4,-6.418209523E-4,-8.412774652E-3,8.461598502E-3
4.421509042E0,-8.034738130E-4,1.083910465E-4,-4.919242114E-3,4.985605456E-3
4.431465042E0,2.673523501E-3,5.051316693E-4,-4.366245121E-3,5.144607115E-3
4.441421042E0,-1.371818245E-3,9.179217741E-4,-5.604881793E-3,5.842873060E-3
4.451377042E0,1.145636546E-3,-2.002228983E-3,-6.053803489E-3,6.478421156E-3
4.461334042E0,2.054839861E-3,1.562411897E-3,-8.131602779E-3,8.531498200E-3
4.471290042E0,-9.608903201E-4,2.901721746E-5,-9.078169242E-3,9.128927045E-3
4.481246042E0,1.157121733E-3,-1.247968525E-3,-8.447533473E-3,8.617260465E-3
4.491202042E0,-2.836818341E-3,-2.039335668E-4,-8.383341134E-3,8.852656989E-3
4.501158042E0,-1.045309706E-3,7.329657674E-4,-5.502335727E-3,5.648505081E-3
4.511114042E0,-4.742384772E-4,2.022063360E-3,-3.648400307E-3,4.198150445E-3
4.521070042E0,-1.294492278E-3,1.977056265E-3,-2.920025960E-3,3.756462876E-3
4.531026042E0,1.090901671E-3,6.078248844E-4,-8.414387703E-3,8.506552648E-3
4.540982042E0,1.050421619E-3,-8.955290541E-4,-8.254863322E-3,8.369475869E-3
4.550938042E0,-1.473340206E-3,-2.200473100E-4,-1.015246660E-2,1.026117587E-2
4.560895042E0,7.328224601E-4,2.401301637E-3,-9.117562324E-3,9.456913928E-3
4.570851042E0,1.814349089E-4,5.664136261E-4,-6.547771394E-3,6.574728379E-3
4.580807042E0,-2.046565525E-3,-6.607715040E-4,-5.863875151E-3,6.245805089E-3
4.590763042E0,-2.233135747E-3,-3.664018586E-4,-1.119133085E-3,2.524599859E-3
4.600719042E0,5.149801727E-4,3.435974941E-4,-2.624085173E-3,2.696124406E-3
4.610675042E0,-2.847965807E-4,-5.588401109E-4,-8.838392794E-3,8.860620664E-3
4.620631042E0,1.724558417E-3,1.411099918E-3,-8.933465928E-3,9.207177537E-3
4.630587583E0,-2.054392360E-3,1.206464134E-3,-1.068945974E-2,1.095174111E-2
4.640543583E0,1.481220359E-3,1.079698093E-3,-8.166648448E-3,8.369821300E-3
4.650500583E0,2.875264734E-3,-4.149135202E-5,-6.014589220E-3,6.666644757E-3
4.660456583E0,9.846866596E-4,-1.104678959E-4,-1.458719373E-3,1.763426546E-3
4.670412583E0,-9.370818734E-4,1.505661756E-3,-2.310803160E-3,2.912893923E-3
4.680368583E0,5.154061946E-4,-1.590794884E-3,-6.629385054E-3,6.837032843E-3
4.690324583E0,1.328450977E-3,-2.274876460E-4,-1.001509652E-2,1.010537930E-2
4.700280583E0,7.867640234E-4,-8.605206385E-4,-9.040910751E-3,9.115786340E-3
4.710236583E0,1.516717370E-3,3.460345790E-3,-6.163036451E-3,7.228930962E-3
4.720192583E0,-4.862460773E-4,3.422262147E-3,-5.162218586E-3,6.212633433E-3
4.730148583E0,6.129866233E-5,6.113611162E-4,-3.475368023E-3,3.529263781E-3
4.740104583E0,-1.949121593E-3,-1.276819967E-3,-4.925459623E-3,5.448806907E-3
4.750061583E0,-1.248345478E-3,-1.467952505E-3,-8.081734180E-3,8.308289737E-3
4.760017583E0,-1.462730113E-3,2.412805334E-3,-9.754732251E-3,1.015460537E-2
4.769973583E0,1.042457530E-3,5.610538647E-4,-6.565202028E-3,6.671085129E-3
4.779929583E0,-7.812751574E-4,4.653073847E-5,-5.933500826E-3,5.984896661E-3
4.789885583E0,-1.185399247E-3,-8.372543380E-4,-5.432458594E-3,5.622968307E-3
4.799841583E0,3.017099225E-4,7.340107113E-4,-3.640683368E-3,3.726174444E-3
4.809797583E0,1.448895666E-3,-2.441995777E-3,-5.639076233E-3,6.313622002E-3
4.819753583E0,-2.326401649E-3,-1.555696130E-3,-8.227933198E-3,8.690869910E-3
4.829709583E0,2.693963470E-3,1.945976168E-3,-8.531149477E-3,9.155587028E-3
4.839666583E0,-2.122096950E-3,9.190617129E-4,-6.024047732E-3,6.452683239E-3
4.849622583E0,1.238479395E-3,1.064380631E-4,-7.901636884E-3,7.998814019E-3
4.859578583E0,-4.302573507E-4,-8.520334959E-4,-4.536198452E-3,4.635534366E-3
4.869534583E0,2.429327229E-3,8.184239268E-4,-7.232524455E-3,7.673386377E-3
4.879490583E0,2.711015404E-4,-8.225720376E-5,-5.082286894E-3,5.090177047E-3
4.889446583E0,1.636691624E-3,-8.554132655E-4,-6.111398339E-3,6.384330896E-3
4.899402583E0,-1.439259388E-3,1.494560391E-3,-7.268011570E-3,7.558384121E-3
4.909358583E0,-3.205532557E-4,-7.452340797E-4,-4.870085046E-3,4.937191163E-3
4.919314583E0,-1.138676191E-3,9.203068912E-4,-7.012864575E-3,7.164064334E-3
4.929270583E0,2.499984577E-3,-2.119088545E-3,-6.279863417E-3,7.083582687E-3
4.939227583E0,3.510798560E-4,5.030604079E-4,-6.590921432E-3,6.619408747E-3
4.949183583E0,-2.564753522E-4,-1.491294242E-3,-9.614814073E-3,9.733159188E-3
4.959139583E0,-4.657997633E-4,-2.728980035E-4,-8.764199913E-3,8.780811059E-3
4.969095583E0,2.475278452E-4,-2.907775342E-4,-9.355045855E-3,9.362836352E-3
4.979051583E0,-9.066861821E-4,4.093674943E-4,-7.792036980E-3,7.855284965E-3
4.989007583E0,2.339752391E-4,-8.603772148E-4,-4.785612226E-3,4.867964435E-3
4.998963583E0,-1.079229638E-3,-6.316117942E-4,-5.656197667E-3,5.792774993E-3
5.008919583E0,-1.302651595E-3,-1.520784572E-4,-4.397921264E-3,4.589307190E-3
5.018875583E0,1.029478619E-3,-1.375001855E-3,-6.069853902E-3,6.308215494E-3
5.028832583E0,3.670586157E-4,-2.660760656E-3,-5.591750145E-3,6.203390120E-3
5.038788583E0,1.634190558E-3,3.174524754E-4,-1.013190672E-2,1.026775967E-2
5.048744583E0,1.309438143E-3,5.616340786E-5,-7.196106017E-3,7.314487294E-3
5.058700583E0,-9.880708531E-4,-9.190849960E-5,-5.486622453E-3,5.575639615E-3
5.068656583E0,-7.035862072E-4,-1.232977957E-4,-3.193760291E-3,3.272665686E-3
5.078612583E0,4.684709711E-4,-9.932927787E-5,-3.253415227E-3,3.288471073E-3
5.088568583E0,2.260302659E-3,-2.450334840E-3,-5.269711837E-3,6.235621203E-3
5.098524583E0,1.426999690E-3,-1.338465139E-3,-7.209023461E-3,7.469794930E-3
5.108480583E0,4.425719089E-4,-5.572102964E-6,-8.327368647E-3,8.339122827E-3
5.118437583E0,-2.633911790E-3,-1.329163089E-3,-8.460529149E-3,8.960174067E-3
5.128393583E0,-3.159085754E-3,-9.521376342E-5,-5.969857797E-3,6.754856814E-3
5.138349583E0,-5.880700774E-4,-3.567365929E-4,-7.240982726E-3,7.273576717E-3
5.148305583E0,-3.705542767E-4,-1.831331290E-3,-8.024031296E-3,8.238699109E-3
5.158261583E0,-1.538882963E-3,1.423849724E-3,-5.291363224E-3,5.691575668E-3
5.168217583E0,1.903992961E-4,-8.073449135E-5,-6.564822048E-3,6.568078750E-3
5.178173583E0,-3.283427795E-3,-1.273564063E-3,-8.774179965E-3,9.454580772E-3
5.188129583E0,-9.473934188E-4,-2.621739171E-3,-3.906205297E-3,4.798907208E-3
5.198085583E0,9.330646135E-4,-1.285098493E-3,-4.225518554E-3,4.514099552E-3
5.208041583E0,-2.015243750E-3,-4.105558619E-4,-2.703521401E-3,3.396879664E-3
5.217998583E0,-1.618166454E-3,-4.723416641E-4,-7.704140618E-3,7.886402982E-3
5.227954583E0,-7.099259528E-4,-1.030065119E-3,-7.187686861E-3,7.295743376E-3
5.237910583E0,-6.976754521E-4,1.392345876E-3,-7.365584373E-3,7.528426877E-3
5.247866583E0,4.061322543E-4,1.095372252E-3,-5.030337721E-3,5.164211592E-3
5.257822583E0,-1.469798386E-3,-3.107895143E-3,-4.636455327E-3,5.772004636E-3
5.267778583E0,5.285753869E-4,4.132725298E-4,-1.129925251E-3,1.314122215E-3
5.277734583E0,1.887560356E-4,-1.475441270E-3,-2.737142146E-3,3.115205115E-3
5.287690583E0,1.031055115E-3,-9.137028828E-4,-6.726251915E-3,6.865886136E-3
5.297646583E0,1.485390356E-3,-3.547053784E-4,-9.784357622E-3,9.902820532E-3
5.307602583E0,-3.820471466E-4,1.568160951E-4,-1.075035706E-2,1.075828649E-2
5.317559583E0,-1.297908253E-3,1.169083640E-3,-5.859725177E-3,6.114548352E-3
5.327515583E0,-1.077847905E-3,-1.718619838E-3,-1.602638513E-3,2.585316317E-3
5.337471583E0,3.868905478E-4,-1.864560880E-3,-8.702687919E-4,2.093714245E-3
5.347427583E0,2.123125596E-3,-1.173115335E-3,-2.451078966E-3,3.448427176E-3
5.357383583E0,3.447249066E-3,-1.462867483E-3,-4.844993353E-3,6.123517616E-3
5.367339583E0,9.335862705E-5,4.994310439E-5,-9.092386812E-3,9.093003249E-3
5.377295583E0,7.253267686E-4,1.668612473E-3,-7.226843387E-3,7.452357469E-3
5.387251583E0,1.091075712E-3,-8.690394461E-4,-6.786514074E-3,6.928379972E-3
5.397207583E0,-6.642137305E-4,-2.662678249E-3,-6.570797414E-3,7.120843629E-3
5.407164583E0,9.573526331E-4,-3.829523921E-4,-3.029514104E-3,3.200176918E-3
5.417120583E0,-1.425643917E-3,1.039635390E-5,6.533712149E-4,1.568267390E-3
5.427076583E0,-1.169750933E-3,-4.255743697E-4,-5.524640903E-3,5.663134105E-3
5.437032583E0,-2.505592536E-3,-1.584315673E-3,-7.241578773E-3,7.824865061E-3
5.446988583E0,1.244107727E-3,-1.177128404E-3,-1.054888777E-2,1.068702337E-2
5.456944583E0,1.452630386E-5,-2.330277115E-3,-6.868397817E-3,7.252950504E-3
5.466900583E0,-1.003536745E-4,-9.027039632E-4,-5.284812301E-3,5.362293014E-3
5.476856583E0,7.012578426E-4,8.371397853E-4,-4.913568497E-3,5.033460137E-3
5.486812583E0,-5.206476781E-4,8.323630318E-4,-2.754611894E-3,2.924344185E-3
5.496769583E0,-2.531067934E-3,-2.512773499E-4,-1.899205148E-3,3.174338575E-3
5.506725583E0,-2.117234981E-4,-3.391262144E-4,-7.570296526E-3,7.580845792E-3
5.516681583E0,-1.389639569E-3,1.476351172E-3,-7.545262575E-3,7.812918676E-3
5.526637583E0,3.414880484E-4,-1.000475138E-3,-9.047288448E-3,9.108841466E-3
5.536593583E0,1.556422096E-3,8.176648989E-4,-7.218495011E-3,7.429515183E-3
5.546549583E0,-3.322589328E-4,1.043382101E-3,-5.240589380E-3,5.353766829E-3
5.556505583E0,-2.121503348E-4,-9.858142585E-5,-1.404039562E-3,1.423394939E-3
5.566461583E0,1.364179421E-3,9.210053831E-4,-4.354249686E-4,1.702595463E-3
5.576417583E0,-1.805781154E-3,5.521252751E-5,-3.549978137E-4,1.841172845E-3
5.586373583E0,1.096096821E-3,3.204764798E-4,-4.762101918E-3,4.897116304E-3
5.596330583E0,-4.951418960E-4,2.008920535E-3,-7.144298404E-3,7.437871127E-3
5.606286583E0,1.079251524E-3,-1.683281735E-4,-6.387213245E-3,6.479939140E-3
5.616242583E0,6.142635830E-4,1.478836872E-3,-7.984841242E-3,8.143830052E-3
5.626198583E0,-1.629415783E-3,-1.462128013E-3,-2.598237246E-3,3.397594871E-3
5.636153833E0,-6.674819160E-4,-1.186224632E-3,-2.002220601E-3,2.421063469E-3
5.646109833E0,-1.304684440E-3,-2.680644393E-4,-3.409847617E-3,3.660754130E-3
5.656065833E0,-2.071674913E-3,1.728773117E-3,-2.968564630E-3,4.011591878E-3
5.666021833E0,1.320493408E-3,8.063660935E-4,-6.139755249E-3,6.331707798E-3
5.675977833E0,-2.000468550E-3,9.384583682E-4,-9.362179786E-3,9.619406888E-3
5.685933833E0,-1.187738962E-3,-9.014084935E-5,-8.046463132E-3,8.134151348E-3
5.695890833E0,-3.240758087E-4,-1.127442345E-3,-5.471453071E-3,5.595797537E-3
5.705846833E0,-8.386498084E-4,4.544416443E-4,-3.078017384E-3,3.222427924E-3
5.715802833E0,8.276900044E-4,3.077015281E-4,-4.993364215E-3,5.070841859E-3
5.725758833E0,1.232345821E-3,-1.365449280E-4,-4.718258977E-3,4.878451446E-3
5.735714833E0,-1.375842839E-4,2.617962658E-3,-8.793961257E-3,9.176405206E-3
5.745670833E0,2.454406582E-3,1.447124407E-3,-8.234895766E-3,8.713884839E-3
5.755626833E0,-5.102242576E-4,-1.024022698E-3,-5.663350224E-3,5.777757960E-3
5.765582833E0,-1.206103945E-3,3.234203905E-5,-5.930447951E-3,6.051937345E-3
5.775538833E0,-1.993600745E-3,-7.445020601E-4,-3.368487582E-3,3.984399056E-3
5.785495833E0,1.402869355E-3,-7.075425237E-4,-1.471411437E-3,2.152605506E-3
5.795451833E0,-3.955633729E-4,-3.762450069E-4,-4.893841222E-3,4.924196644E-3
5.805407833E0,-2.162061632E-3,-8.350033313E-4,-8.039772511E-3,8.367178920E-3
5.815363833E0,1.413764665E-3,4.526348785E-4,-8.784923702E-3,8.909460888E-3
5.825319833E0,4.978885408E-4,-5.568284541E-5,-4.760690033E-3,4.786978501E-3
5.835275833E0,-5.167758791E-4,-2.445010468E-4,-3.512464464E-3,3.558685808E-3
5.845231833E0,-2.388508758E-3,1.513568684E-3,-7.941108197E-4,2.937086352E-3
5.855187833E0,-7.179079694E-4,3.043288365E-3,-4.106815904E-3,5.161679261E-3
5.865143833E0,1.389392186E-3,1.636072062E-3,-7.228506729E-3,7.540454361E-3
5.875100833E0,2.080139238E-4,1.373483799E-3,-9.793130681E-3,9.891164546E-3
5.885056833E0,1.287407940E-3,-1.071943901E-3,-8.036043495E-3,8.208804906E-3
5.895012833E0,4.711490183E-4,-1.277539879E-3,-5.129471421E-3,5.307124137E-3
5.904968833E0,-3.406876931E-5,-2.254342660E-3,-1.918513328E-3,2.960391005E-3
5.914924833E0,9.270660230E-4,-1.148331910E-3,-4.112690687E-3,4.369478490E-3
5.924880833E0,1.249457709E-4,-1.604491845E-4,-3.012189642E-3,3.019046509E-3
5.934836833E0,-8.982407162E-4,-1.326113939E-3,-8.566746488E-3,8.715191332E-3
5.944792833E0,1.793923555E-3,-1.899115741E-4,-1.038289070E-2,1.053843667E-2
5.954748833E0,-1.543816179E-3,-9.963009506E-5,-9.417761117E-3,9.543978154E-3
5.964705833E0,-8.799647912E-4,-3.717932850E-5,-4.510737956E-3,4.595919629E-3
5.974661833E0,-1.642960357E-3,9.399345145E-4,-7.415674627E-4,2.032908735E-3
5.984617833E0,-1.543442369E-3,4.769768566E-5,-3.635667264E-3,3.950008339E-3
5.994573833E0,7.777688443E-4,1.257038675E-3,-6.365939975E-3,6.535308896E-3
6.004529833E0,2.694959403E-4,2.752738073E-4,-8.371535689E-3,8.380394592E-3
6.014485833E0,-9.535712888E-5,-3.921147436E-4,-8.436251432E-3,8.445897535E-3
6.024441833E0,-4.308993230E-4,-1.530311070E-3,-9.686587378E-3,9.816185677E-3
6.034397833E0,-4.969456932E-4,-9.681172669E-4,-5.551764742E-3,5.657410875E-3
6.044353833E0,-3.462174209E-5,-2.201642841E-3,-3.341190517E-3,4.001497712E-3
6.054309833E0,8.114645607E-4,-4.892302677E-4,-4.349198192E-3,4.451218474E-3
6.064266833E0,1.590068568E-3,-8.269082755E-4,-5.703747272E-3,5.978697876E-3
6.074222833E0,2.156522823E-3,-1.515069045E-3,-7.525619119E-3,7.973767493E-3
6.084178833E0,-4.064647947E-4,1.275881194E-3,-7.819097489E-3,7.932929597E-3
6.094134833E0,1.233509742E-3,-2.340158448E-3,-5.338627845E-3,5.958089888E-3
6.104090833E0,4.718220152E-4,1.598262228E-3,-4.635319114E-3,4.925773183E-3
6.114046833E0,1.103790128E-3,3.993073478E-4,-4.097625613E-3,4.262432952E-3
6.124002833E0,3.797097015E-4,8.575869724E-4,-1.572456211E-3,1.830916002E-3
6.133958833E0,-2.021909459E-4,-4.779882729E-4,-7.272154093E-3,7.290650116E-3
6.143914833E0,-1.208628761E-3,1.556886360E-3,-5.543872714E-3,5.883808570E-3
6.153871833E0,4.100403748E-4,-1.362737268E-3,-5.237340927E-3,5.427239257E-3
6.163827833E0,-1.130047487E-3,1.399022527E-3,-4.780869931E-3,5.107933893E-3
6.173783833E0,-2.125537256E-3,-2.974104136E-4,-1.358706504E-3,2.540166322E-3
6.183739833E0,-1.147637377E-3,8.418783545E-4,-2.796392888E-3,3.137776903E-3
6.193695833E0,3.152370336E-4,5.784351379E-5,-3.876570612E-3,3.889796906E-3
6.203651833E0,6.395311793E-4,2.163572237E-3,-5.846286193E-3,6.266506778E-3
6.213607833E0,1.500531100E-3,1.445583999E-3,-7.795723155E-3,8.069362192E-3
6.223563833E0,9.257219499E-4,-2.221534960E-3,-5.074167624E-3,5.615991078E-3
6.233519833E0,-6.860232097E-4,-1.966138370E-3,-3.253897652E-3,3.863182349E-3
6.243475833E0,-1.020453637E-3,-9.879535064E-4,-3.056490794E-3,3.370387771E-3
6.253432833E0,6.378967664E-4,8.237082511E-5,-6.105011329E-3,6.138799603E-3
6.263388833E0,-1.472209813E-3,2.346588299E-4,-7.336905226E-3,7.486831426E-3
6.273344833E0,1.115722116E-4,1.486077905E-3,-7.676994428E-3,7.820301743E-3
6.283300833E0,1.537877135E-3,2.083294094E-4,-8.087845519E-3,8.235393881E-3
6.293256833E0,1.337607391E-3,-9.633600712E-5,-7.071582600E-3,7.197621457E-3
6.303212833E0,1.909119310E-3,-2.127551474E-3,-3.440933302E-3,4.473391756E-3
6.313168833E0,8.875306230E-4,-7.501645014E-4,-2.493912354E-3,2.751373514E-3
6.323124833E0,-6.460333243E-4,1.844942570E-3,-4.518115893E-3,4.922859267E-3
6.333080833E0,1.344945864E-3,1.549003646E-4,-6.499776617E-3,6.639274777E-3
6.343037833E0,1.205897192E-3,-7.679034024E-4,-5.916235968E-3,6.086518850E-3
6.352993833E0,1.227895264E-4,2.020196989E-4,-4.869611934E-3,4.875347127E-3
6.362949833E0,-1.720727189E-3,4.811165854E-4,-7.030863315E-3,7.254337611E-3
6.372905833E0,-1.071177539E-4,1.282993704E-3,-4.463043064E-3,4.645029650E-3
6.382861833E0,2.040024847E-4,-2.041557804E-3,-3.711702302E-3,4.241026911E-3
6.392817833E0,-2.007979783E-4,-2.862690017E-4,-5.617195740E-3,5.628068741E-3
6.402773833E0,8.158339770E-4,-2.553448081E-3,-5.514835939E-3,6.131810305E-3
6.412729833E0,8.989245980E-4,1.709656790E-4,-6.789689884E-3,6.851071698E-3
6.422685833E0,-8.662539185E-4,-8.096210659E-4,-5.957160145E-3,6.074013427E-3
6.432642833E0,9.742566617E-4,-1.866277307E-5,-2.025803551E-3,2.247977840E-3
6.442598833E0,-1.908598701E-3,-1.341383904E-5,-1.699184999E-3,2.555417498E-3
6.452554833E0,-6.302812835E-5,-4.067625850E-4,-2.904532477E-3,2.933553691E-3
6.462510833E0,-4.461260512E-3,2.007992007E-3,-6.695393473E-3,8.292356180E-3
6.472466833E0,-2.048170194E-3,1.419699751E-3,-8.189164102E-3,8.559962454E-3
6.482422833E0,1.640181872E-3,2.045147121E-4,-7.038295269E-3,7.229773381E-3
6.492378833E0,-2.477597678E-3,2.596832812E-3,-7.756549865E-3,8.546700926E-3
6.502334833E0,1.250840607E-3,-1.272109337E-3,-5.759071559E-3,6.029077011E-3
6.512290833E0,-2.248169621E-4,-5.810195580E-4,-2.610415220E-3,2.683727634E-3
6.522247833E0,7.934135501E-4,1.623994671E-3,-3.504136577E-3,3.942820932E-3
6.532203833E0,-1.122730784E-3,-7.145274431E-4,-5.048239604E-3,5.220708475E-3
6.542159833E0,-1.291254535E-3,3.636591136E-4,-8.406421170E-3,8.512784686E-3
6.552115833E0,-1.162890112E-3,-1.697717234E-4,-9.554242715E-3,9.626250034E-3
6.562071833E0,1.788730384E-3,-8.799787611E-5,-7.176455110E-3,7.396540270E-3
6.572027833E0,4.789877858E-4,-1.003325917E-3,-2.728443593E-3,2.946268255E-3
6.581983833E0,-5.491377669E-4,-1.183906570E-3,-1.015456393E-3,1.653583606E-3
6.591939833E0,-1.254288363E-4,1.245961525E-3,-3.689803183E-3,3.896511266E-3
6.601895833E0,-1.876055263E-3,1.136892475E-3,-5.424357951E-3,5.851133824E-3
6.611852833E0,3.849109635E-5,-1.919085160E-3,-1.120181754E-2,1.136508186E-2
6.621808833E0,-1.176184276E-3,1.303143799E-3,-4.956787452E-3,5.258453676E-3
6.631765333E0,-6.803034921E-4,9.630583227E-4,-1.940226182E-3,2.270412256E-3
6.641721333E0,9.058959549E-4,3.444701433E-4,-8.102189749E-4,1.263234716E-3
6.651677333E0,-9.873453528E-4,2.208994702E-4,-1.464290544E-3,1.779829829E-3
6.661633333E0,-1.372833736E-3,5.700150505E-4,-2.530448139E-3,2.934749974E-3
6.671589333E0,3.577982541E-3,-5.502905697E-5,-6.399221718E-3,7.331781902E-3
6.681545333E0,-8.004082483E-4,-5.691498518E-5,-7.310111076E-3,7.354020439E-3
6.691501333E0,7.956242189E-4,1.705564559E-3,-7.433149964E-3,7.667704138E-3
6.701457333E0,3.213796299E-4,-1.997018233E-3,-3.891486675E-3,4.385776468E-3
6.711414333E0,-2.683731494E-3,-1.553601585E-3,-2.702120692E-3,4.113094802E-3
6.721370333E0,1.414169325E-3,1.001396216E-3,-2.935908735E-3,3.409139094E-3
6.731326333E0,8.125611930E-4,-2.165635116E-3,-3.955103457E-3,4.581819999E-3
6.741282333E0,-7.777045248E-4,6.139185280E-4,-7.511943579E-3,7.577005782E-3
6.751238333E0,-2.448571846E-3,-4.891632125E-4,-6.553471088E-3,7.013042709E-3
6.761194333E0,-1.377601293E-4,-5.624936894E-4,-3.410821781E-3,3.459636140E-3
6.771150333E0,-9.648111882E-5,7.144920528E-4,-4.072619602E-3,4.135944623E-3
6.781106333E0,-8.641976165E-4,1.034589484E-3,-1.551687717E-3,2.055467755E-3
6.791062333E0,-6.484816549E-4,-5.412027240E-4,-2.114946023E-3,2.277372504E-3
6.801019333E0,-1.039631199E-3,-6.285477430E-4,-5.691161379E-3,5.819383399E-3
6.810975333E0,-8.508130559E-4,-2.660909668E-4,-8.685087785E-3,8.730718017E-3
6.820931333E0,1.625070814E-3,1.443360932E-3,-8.393019438E-3,8.669885882E-3
6.830887333E0,9.800532134E-4,-1.163341105E-3,-5.025185645E-3,5.250367377E-3
6.840843333E0,1.392020611E-3,9.541781619E-4,-3.207353875E-3,3.624264922E-3
6.850799333E0,-3.510182723E-4,1.446863636E-3,-1.819582656E-3,2.351065557E-3
6.860755333E0,-3.726634895E-3,3.029089421E-4,-7.124934345E-4,3.806206558E-3
6.870711333E0,-1.970812911E-3,-7.956447080E-4,-4.549840465E-3,5.021772823E-3
6.880667333E0,-1.260723686E-3,5.627237260E-4,-5.088564008E-3,5.272529362E-3
6.890624333E0,1.140002278E-4,-9.350376204E-4,-6.062485278E-3,6.135227717E-3
6.900580333E0,-2.541322960E-3,3.590695560E-4,-8.461875841E-3,8.842544661E-3
6.910536333E0,-1.308958745E-4,-2.059346996E-3,-8.889047429E-3,9.125415496E-3
6.920492333E0,7.639389951E-4,2.770069987E-4,-3.608798608E-3,3.699157074E-3
6.930448333E0,-2.175924368E-3,8.631683886E-4,-3.491351381E-3,4.203479629E-3
6.940404333E0,-6.245076656E-4,-1.263437793E-3,-1.833960414E-3,2.312940916E-3
6.950360333E0,2.419219119E-3,-3.965785727E-4,-4.256103188E-3,4.911650441E-3
6.960316333E0,2.320268657E-3,-4.609366879E-4,-1.346668229E-3,2.722062562E-3
6.970272333E0,8.928143070E-4,-1.424468122E-3,-4.818096757E-3,5.102968075E-3
6.980229333E0,6.354760844E-4,2.265078947E-4,-3.107583150E-3,3.179969924E-3
6.990185333E0,1.198734622E-3,-4.334235564E-4,-5.672210827E-3,5.813673223E-3
7.000141333E0,-1.574947732E-3,6.210356951E-4,-7.349517196E-3,7.541985727E-3
7.010097333E0,1.159852371E-3,-2.680218779E-3,-5.995832384E-3,6.669245549E-3
7.020053333E0,2.086482942E-3,-4.626354203E-4,-4.648841918E-3,5.116558782E-3
7.030009333E0,1.055306755E-3,-2.195021138E-3,-4.521541297E-3,5.135769256E-3
7.039965333E0,2.742194920E-4,-2.066817135E-3,-3.176929429E-3,3.799974999E-3
7.049921333E0,3.344069701E-4,-5.152598023E-4,-3.734858707E-3,3.785035039E-3
7.059877333E0,-2.485374920E-3,2.129312605E-3,-4.249183461E-3,5.363452316E-3
7.069834333E0,3.109443933E-4,2.355681732E-3,-3.946380690E-3,4.606500124E-3
7.079790333E0,-2.134336974E-4,7.193461061E-4,-5.871945992E-3,5.919692771E-3
7.089746333E0,1.492587267E-3,-7.515177131E-4,-7.342545316E-3,7.530309910E-3
7.099702333E0,-7.592061302E-4,5.460819229E-4,-4.887277260E-3,4.975950003E-3
7.109658333E0,1.579848118E-3,8.206535131E-4,-4.307242110E-3,4.660657342E-3
7.119614333E0,-4.413977731E-4,-5.777925253E-4,-4.272501916E-3,4.333929951E-3
7.129570333E0,-2.402016893E-3,3.287009895E-5,-2.783529460E-3,3.676792332E-3
7.139526333E0,-3.013756359E-4,-7.770583034E-5,-3.382738680E-3,3.397026118E-3
7.149482333E0,5.234053824E-4,7.425472140E-4,-7.903456688E-3,7.955498550E-3
7.159438333E0,-6.921272725E-4,7.625715807E-4,-4.664741457E-3,4.777066928E-3
7.169395333E0,-2.959276317E-3,4.448564723E-4,-4.808817059E-3,5.663915175E-3
7.179351333E0,-6.873141392E-4,6.308434531E-4,-3.889236599E-3,3.999565666E-3
7.189307333E0,2.456014976E-3,7.142005488E-4,-4.834659398E-3,5.469554230E-3
7.199263333E0,-2.058030805E-5,-2.734642476E-5,-5.292436108E-3,5.292546772E-3
7.209219333E0,2.755632158E-4,2.004379407E-3,-3.642873839E-3,4.167013522E-3
7.219175333E0,-2.711813431E-5,-3.141853958E-4,-3.924563527E-3,3.937213067E-3
7.229131333E0,-2.342470223E-3,1.797701232E-3,-3.875561059E-3,4.872255123E-3
7.239087333E0,-1.339730923E-3,1.212071627E-3,-2.959940583E-3,3.467743478E-3
7.249043333E0,-1.316827838E-3,6.237793714E-4,-2.431035042E-3,2.834266684E-3
7.259000333E0,-1.267671469E-3,1.620113850E-3,-1.802835613E-3,2.735320107E-3
7.268956333E0,-3.278092016E-3,-1.412959769E-3,-1.891519874E-3,4.039825492E-3
7.278912333E0,-1.283345278E-3,1.231858507E-3,-4.372484982E-3,4.720495250E-3
7.288868333E0,-1.632752130E-3,6.733937189E-4,-7.260952145E-3,7.472667841E-3
7.298824333E0,4.393161507E-4,-1.980830915E-3,-6.797987968E-3,7.094316754E-3
7.308780333E0,1.969302073E-3,-5.603013560E-4,-5.656022578E-3,6.015204043E-3
7.318736333E0,-1.357279834E-3,1.665903255E-3,-7.903378457E-3,8.190288959E-3
7.328692333E0,1.223323285E-3,6.826641038E-4,-5.190417171E-3,5.376149230E-3
7.338648333E0,3.589395783E-4,5.456497893E-4,-2.508398145E-3,2.592032517E-3
7.348605333E0,-2.123925602E-3,2.568853088E-3,1.933760941E-4,3.338781284E-3
7.358561333E0,4.337311548E-4,-1.970403828E-3,-5.269167945E-3,5.642228708E-3
7.368517333E0,-2.338086953E-3,-2.505341545E-4,-5.322696641E-3,5.818979077E-3
7.378473333E0,1.221768791E-3,-1.072343439E-3,-7.591500878E-3,7.763602580E-3
7.388429333E0,-2.616378944E-3,-4.667406902E-4,-7.149681449E-3,7.627662189E-3
7.398385333E0,9.999946924E-4,7.151402533E-4,-2.207122743E-3,2.526421534E-3
7.408341333E0,1.402664697E-3,-1.662796363E-3,-1.679286361E-3,2.748156233E-3
7.418297333E0,-1.284875907E-3,8.371854201E-4,-2.472870052E-3,2.909788964E-3
7.428253333E0,-7.952918531E-5,-1.815856434E-3,-2.449434251E-3,3.050145510E-3
7.438210333E0,-7.075918838E-4,-1.297056675E-3,-4.626855254E-3,4.857039411E-3
7.448166333E0,-1.398682129E-3,-7.170196623E-4,-6.377883255E-3,6.568700306E-3
7.458122333E0,-1.860881690E-3,-1.206005923E-3,-8.164299652E-3,8.460089820E-3
7.468078333E0,-3.110170597E-3,4.672585055E-4,-2.924529836E-3,4.294690491E-3
7.478034333E0,-4.343880573E-5,9.378399700E-4,-2.624638379E-3,2.787500199E-3
7.487990333E0,8.268821985E-4,-5.327574909E-4,-2.408921719E-3,2.602012406E-3
7.497946333E0,4.697953409E-4,3.698114306E-4,6.462335587E-4,8.803896688E-4
7.507902333E0,4.615395446E-4,1.379681751E-3,-4.028411582E-3,4.283064366E-3
7.517858333E0,-1.889246050E-4,4.997216165E-4,-6.019311026E-3,6.042972731E-3
7.527815333E0,1.312565524E-3,-1.114952378E-3,-8.830545470E-3,8.996915047E-3
7.537771333E0,7.604120183E-4,-1.506470144E-3,-1.023099758E-2,1.036923286E-2
7.547727333E0,-1.268117689E-3,-8.833687752E-5,-3.763778135E-3,3.972650466E-3
7.557683333E0,1.237701043E-3,4.214476794E-4,-2.617236227E-3,2.925653343E-3
7.567639333E0,2.894719830E-3,-1.348488964E-3,-4.211936146E-3,5.285662823E-3
7.577595333E0,1.487811795E-3,-1.068241894E-3,-3.980578855E-3,4.381749958E-3
7.587551333E0,-3.716537263E-3,-1.025897451E-3,-6.706057116E-3,7.735393775E-3
7.597507333E0,-6.602054927E-4,-9.561544284E-4,-1.043095253E-2,1.049546918E-2
7.607463333E0,1.070316648E-3,1.350942068E-3,-7.024502382E-3,7.232859456E-3
7.617420333E0,1.706246519E-3,2.277095802E-3,-6.588425487E-3,7.176614305E-3
7.627376333E0,2.898770617E-5,-1.357587054E-3,-1.963313669E-3,2.387149652E-3
7.637331958E0,-2.230545972E-3,7.160166278E-4,-1.230875030E-3,2.646331136E-3
7.647287958E0,-8.105483139E-4,-1.045931131E-3,-2.945151180E-3,3.228757652E-3
7.657243958E0,-3.269823734E-3,-2.499493770E-3,-5.068637431E-3,6.529188446E-3
7.667199958E0,-6.133206189E-4,5.208048970E-5,-5.465980619E-3,5.500528946E-3
7.677155958E0,-1.401902991E-4,-4.535019398E-4,-6.494106725E-3,6.511431447E-3
7.687111958E0,4.558251821E-4,6.181541830E-4,-4.624834284E-3,4.688174842E-3
7.697067958E0,1.639378723E-3,2.921577543E-4,-5.667533726E-3,5.907102274E-3
7.707024958E0,2.174940426E-3,2.903677523E-5,-5.346089602E-3,5.771644741E-3
7.716980958E0,-1.610212494E-4,4.162192345E-4,-4.496719688E-3,4.518811154E-3
7.726936958E0,9.077052819E-4,5.083344877E-5,-3.976605833E-3,4.079204195E-3
7.736892958E0,-1.422718866E-3,1.296735369E-3,-4.269843921E-3,4.683718469E-3
7.746848958E0,-2.502364339E-3,4.570400342E-4,-5.650160834E-3,6.196372353E-3
7.756804958E0,1.271007932E-4,5.210023373E-4,-4.716381431E-3,4.746772782E-3
7.766760958E0,-1.354415668E-3,-1.941622235E-3,-2.585850656E-3,3.505846876E-3
7.776716958E0,7.918748306E-4,-1.093853265E-3,-5.804896355E-4,1.469880583E-3
7.786672958E0,1.337822760E-3,-1.701054163E-3,-6.036590785E-4,2.246721898E-3
7.796629958E0,-1.533997827E-3,1.578044146E-3,-6.519520655E-3,6.880953585E-3
7.806585958E0,1.661262708E-3,7.229298353E-5,-8.944595233E-3,9.097846115E-3
7.816541958E0,-2.689781832E-4,1.224977896E-4,-6.664400920E-3,6.670951551E-3
7.826497958E0,1.530786045E-3,9.515397251E-4,-4.958646372E-3,5.276069333E-3
7.836453958E0,-1.764098415E-4,-3.413716331E-4,-2.844862640E-3,2.870696512E-3
7.846409958E0,1.286464627E-3,-1.124074683E-3,4.081893712E-4,1.756460558E-3
7.856365958E0,-1.321884571E-3,4.097418394E-3,-1.120980829E-3,4.448911590E-3
7.866321958E0,-4.057571641E-4,-5.849516019E-4,-5.770593882E-3,5.814340977E-3
7.876277958E0,-1.426004106E-3,-5.940254778E-5,-9.499097243E-3,9.605720421E-3
7.886234958E0,2.401757054E-3,-6.969626993E-4,-6.001567468E-3,6.501769453E-3
7.896190958E0,7.208092138E-4,5.890605971E-4,-6.061445922E-3,6.132510495E-3
7.906146958E0,1.048200065E-4,8.391309530E-4,-1.192919910E-3,1.462253706E-3
7.916102958E0,-6.799487164E-5,-1.666263677E-3,-5.721952766E-4,1.763084053E-3
7.926058958E0,2.561077708E-3,-1.261197031E-3,-4.768270999E-3,5.557530504E-3
7.936014958E0,-1.286675106E-3,-2.372078598E-5,-8.336368948E-3,8.435113677E-3
7.945970958E0,-1.300789765E-3,1.495080069E-3,-6.867635995E-3,7.147848808E-3
7.955926958E0,3.068709513E-3,-3.622524440E-3,-7.030272856E-3,8.483183237E-3
7.965882958E0,3.072778345E-4,7.580779493E-5,-4.726370797E-3,4.736955499E-3
7.975839958E0,6.919329753E-4,-2.209723927E-3,-4.015738145E-3,4.635493924E-3
7.985795958E0,5.902722478E-6,9.390991181E-5,-2.063531429E-4,2.267940326E-4
7.995751958E0,6.166244857E-4,1.288307831E-3,-1.179704443E-3,1.852475478E-3
8.005707958E0,-1.206309302E-3,9.647337720E-4,-5.498820916E-3,5.711648173E-3
8.015663958E0,-2.678111196E-4,2.684002742E-3,-9.576188400E-3,9.948817909E-3
8.025619958E0,2.059652470E-4,2.630739473E-3,-9.204940870E-3,9.575706151E-3
8.035575958E0,5.730994744E-4,6.759725511E-5,-6.501749158E-3,6.527308366E-3
8.045531958E0,1.288424595E-3,8.417787030E-4,-1.214843243E-3,1.960732880E-3
8.055487958E0,-1.300440519E-3,1.139651053E-3,-2.141110599E-4,1.742352895E-3
8.065444958E0,2.359371865E-4,4.890402779E-4,3.063974902E-3,3.111714792E-3
8.075400958E0,3.127541393E-3,-2.732938156E-4,-2.573406324E-3,4.059387242E-3
8.085356958E0,1.120050554E-3,-1.773452386E-3,-7.617430761E-3,7.900942856E-3
8.095312958E0,1.590850996E-3,-4.777321592E-4,-1.122204959E-2,1.134431276E-2
8.105268958E0,6.592772552E-4,-1.290262677E-3,-9.381540120E-3,9.492771950E-3
8.115224958E0,-4.423320061E-4,6.215302274E-4,-4.980918020E-3,5.038998090E-3
8.125180958E0,-2.681612968E-4,8.255289868E-4,5.888156593E-4,1.048862465E-3
8.135136958E0,1.252371003E-4,-6.153564900E-4,4.816725850E-4,7.914268256E-4
8.145092958E0,-2.459094394E-3,1.542869024E-3,2.923216671E-4,2.917711778E-3
8.155049958E0,1.376675908E-3,1.242099330E-3,-6.298132241E-3,6.565403036E-3
8.165005958E0,2.000912791E-4,-1.042892225E-3,-8.438248187E-3,8.504804124E-3
8.174961958E0,-2.450956963E-4,8.265590295E-4,-7.680481300E-3,7.728716887E-3
8.184917958E0,-1.340453746E-3,1.352000050E-3,-5.119854584E-3,5.462383303E-3
8.194873958E0,-1.507359091E-3,-2.241455019E-3,-2.685556188E-3,3.808997778E-3
8.204829958E0,-1.420540037E-3,-2.421218902E-3,-6.226729602E-4,2.875405464E-3
8.214785958E0,-1.862217905E-4,-8.240425959E-4,-3.867752850E-3,3.958943908E-3
8.224741958E0,4.622580018E-4,-3.515975550E-4,-3.832597286E-3,3.876352055E-3
8.234698958E0,-9.915467817E-4,1.548325643E-3,-6.506929174E-3,6.761701309E-3
8.244654958E0,-8.074572543E-5,2.891831100E-4,-8.202830330E-3,8.208323346E-3
8.254610958E0,-3.726707771E-3,-2.110120840E-3,-4.371138290E-3,6.119461637E-3
8.264566958E0,-5.559484125E-4,5.591651425E-4,-1.698123291E-3,1.872262537E-3
8.274522958E0,-9.812521748E-4,2.574584447E-3,1.712270081E-3,3.243949712E-3
8.284478958E0,-5.623370525E-4,4.597678781E-4,4.031883553E-3,4.096790749E-3
8.294434958E0,2.327732276E-3,1.314757392E-3,-4.361184314E-3,5.115354647E-3
8.304390958E0,8.827011334E-4,1.576545648E-3,-3.526816145E-3,3.962712403E-3
8.314346958E0,-1.122173853E-3,4.750620574E-4,-8.143940940E-3,8.234605768E-3
8.324303958E0,-2.206937061E-4,3.192666918E-4,-7.264828309E-3,7.275188472E-3
8.334259958E0,-5.215642741E-4,1.037263311E-3,-4.524037242E-3,4.670637798E-3
8.344215958E0,2.547472250E-4,-5.457196385E-4,-5.846880376E-4,8.393844017E-4
8.354171958E0,2.281544264E-3,9.790807962E-5,-1.942884177E-3,2.998304379E-3
8.364127958E0,-2.473796252E-3,1.313108020E-3,-2.686172724E-3,3.880650006E-3
8.374083958E0,-2.115609357E-3,-8.838120848E-4,-5.828969181E-3,6.263689684E-3
8.384039958E0,9.800492553E-4,4.299255088E-4,-7.879871875E-3,7.952214362E-3
8.393995958E0,-1.682982547E-3,-9.301602840E-4,-4.655912519E-3,5.037375288E-3
8.403951958E0,-3.125197836E-4,-1.144011505E-3,-2.262797207E-3,2.554737195E-3
8.413908958E0,-2.180157229E-3,1.191838644E-3,-4.189146683E-3,4.870576437E-3
8.423864958E0,-1.598522649E-3,-8.180486038E-4,-2.435186878E-3,3.025659153E-3
8.433820958E0,2.021936234E-5,-9.305654094E-4,-2.284899354E-3,2.467210137E-3
8.443776958E0,1.499605365E-3,-1.271982677E-3,-2.388499677E-3,3.093814295E-3
8.453732958E0,1.500762533E-3,-1.016360708E-3,-4.565218464E-3,4.911873053E-3
8.463688958E0,7.117760833E-5,1.508049667E-3,-7.759144530E-3,7.904657101E-3
8.473644958E0,1.856027055E-3,6.739357486E-4,-7.382523268E-3,7.642033475E-3
8.483600958E0,-1.454282203E-3,-1.303195022E-3,-5.062911659E-3,5.426447131E-3
8.493556958E0,-1.330293249E-3,1.552108675E-3,-7.714089006E-4,2.184901179E-3
8.503513958E0,-1.695146319E-3,-3.054094501E-3,-2.659859136E-3,4.390428781E-3
8.513469958E0,2.222581534E-4,-9.513646364E-4,-6.990376860E-3,7.058318638E-3
8.523425958E0,-2.730897977E-4,1.645216718E-3,-5.846016109E-3,6.079245055E-3
8.533381958E0,2.301946050E-3,-1.358935609E-3,-5.170468241E-3,5.820601639E-3
8.543337958E0,6.297471700E-4,-1.511801034E-3,-6.055437028E-3,6.272993023E-3
8.553293958E0,-8.336352184E-4,2.939263359E-4,-5.204571411E-3,5.279100675E-3
8.563249958E0,-3.193787998E-4,6.017880514E-4,-3.933710977E-3,3.992271751E-3
8.573205958E0,2.625991357E-3,-8.153943345E-4,-3.310017288E-3,4.303128278E-3
8.583161958E0,7.665721932E-4,9.524114430E-4,-3.045566380E-3,3.281797535E-3
8.593118958E0,-5.910242326E-4,1.019127667E-3,-3.359837458E-3,3.560398656E-3
8.603074958E0,5.402865936E-4,-1.968722790E-4,-2.283653244E-3,2.354939583E-3
8.613030958E0,1.394007704E-3,1.100574620E-3,-7.124362513E-3,7.342415352E-3
8.622986958E0,-1.332270214E-3,-1.040340401E-3,-5.276663229E-3,5.540796595E-3
8.632942958E0,2.737949253E-4,8.133705705E-4,-5.534522235E-3,5.600667078E-3
8.642898958E0,1.707907068E-3,1.413114369E-3,-3.829300404E-3,4.424633358E-3
8.652854958E0,1.183954300E-3,-4.090927541E-4,-5.127809942E-3,5.278592565E-3
8.662810958E0,7.021884667E-4,6.079692394E-4,-2.765584737E-3,2.917388246E-3
8.672767958E0,1.956569031E-5,5.409857258E-4,-3.483464941E-3,3.525276779E-3
8.682723958E0,2.057206584E-4,-3.176173195E-4,-3.118878230E-3,3.141751608E-3
8.692679958E0,-9.767046431E-4,-3.531267866E-4,-2.863653004E-3,3.046171206E-3
8.702635958E0,-6.206401158E-4,6.924299523E-4,-2.049259841E-3,2.250359813E-3
8.712591958E0,-1.205988461E-3,-2.101834863E-3,-5.196034908E-3,5.733314637E-3
8.722547958E0,8.085113950E-5,-9.345710278E-4,-2.009831369E-3,2.217967999E-3
8.732503958E0,3.549709218E-3,1.609193161E-3,-4.651784897E-3,6.068693507E-3
8.742459958E0,1.065246295E-3,-8.744709194E-4,-5.571376532E-3,5.739310544E-3
8.752415958E0,-3.805077286E-4,-5.309246480E-4,-4.310891032E-3,4.360097316E-3
8.762372958E0,-3.914266708E-4,1.066438854E-3,-5.348991603E-3,5.468292040E-3
8.772328958E0,9.112599073E-4,2.258617431E-3,-3.200024366E-3,4.021430500E-3
8.782284958E0,1.612470252E-3,8.846921846E-4,-3.807224333E-3,4.228202656E-3
8.792240958E0,-1.271032146E-3,2.473132685E-3,-5.027260631E-4,2.825710793E-3
8.802196958E0,2.735693473E-3,-1.304561272E-3,-3.925686702E-3,4.959527697E-3
8.812152958E0,-7.219550898E-4,3.320733085E-4,-4.793114960E-3,4.858543285E-3
8.822108958E0,-3.857560921E-3,1.895614900E-3,-3.838371485E-3,5.762571281E-3
8.832064958E0,2.460029209E-3,-2.923738211E-4,-5.898499861E-3,6.397618836E-3
8.842020958E0,9.516146965E-4,4.202881828E-4,-4.159988835E-3,4.288090461E-3
8.851977958E0,-6.603061338E-4,6.416179240E-4,-1.562939957E-3,1.813962254E-3
8.861933958E0,-6.358050159E-4,1.485040411E-3,-1.170122996E-3,1.994688163E-3
8.871889958E0,-7.528688875E-4,5.662962794E-4,-1.982413232E-5,9.422823537E-4
8.881845958E0,-5.378905917E-5,3.644293174E-4,-2.898968756E-3,2.922280247E-3
8.891801958E0,2.119552344E-3,-2.872478217E-4,-4.603611305E-3,5.076243739E-3
8.901757958E0,2.166157588E-3,2.095748670E-3,-3.286147490E-3,4.459054442E-3
8.911713958E0,7.757064886E-4,1.339893788E-3,-5.409322679E-3,5.626527150E-3
8.921669958E0,-1.753497636E-3,1.133498736E-3,-2.907551825E-3,3.579585305E-3
8.931626958E0,-2.013599034E-3,5.727689713E-4,-2.965740860E-3,3.630187903E-3
8.941582958E0,1.960902475E-3,-1.796645112E-3,-1.901540905E-3,3.269392908E-3
8.951538958E0,1.332433661E-3,1.326600090E-3,-2.538729459E-3,3.159176242E-3
8.961494958E0,1.282099867E-3,-4.713004455E-4,-2.019412816E-3,2.438018109E-3
8.971450958E0,1.585613703E-3,9.870529175E-4,5.370657891E-4,1.943420680E-3
8.981406958E0,6.351314951E-4,-7.972642779E-4,-3.727188334E-3,3.864059423E-3
8.991362958E0,1.057262183E-3,2.244319767E-4,-2.293979749E-3,2.535846235E-3
9.001318958E0,2.669540001E-3,-1.888253726E-3,-4.476441070E-3,5.543507068E-3
9.011274958E0,-4.710842622E-4,2.256781794E-3,-1.713514328E-3,2.872475553E-3
9.021231958E0,4.807295336E-4,-2.443164587E-3,-3.115937114E-3,3.988636130E-3
9.031187958E0,-1.552880974E-3,1.075109467E-3,-4.618003964E-3,4.989314612E-3
9.041143958E0,-1.376047032E-3,-2.337198704E-3,-5.684334785E-3,6.298227144E-3
9.051099958E0,-2.391030779E-3,-6.442749873E-4,-3.374191001E-3,4.185365379E-3
9.061055958E0,2.274561208E-3,-2.417940646E-3,-5.274889991E-3,6.232538012E-3
9.071011958E0,1.554405084E-3,1.127822325E-3,-3.332419321E-3,3.846189919E-3
9.080967958E0,1.679307315E-3,1.585619524E-3,-4.011524841E-3,4.628886895E-3
9.090923958E0,-1.128337928E-3,-3.626849502E-5,-3.723304719E-3,3.890688874E-3
9.100879958E0,-2.442075405E-3,-1.057590358E-3,-5.248762667E-3,5.884873761E-3
9.110836958E0,-1.677402179E-4,-9.717838839E-4,-2.750180662E-3,2.921642410E-3
9.120792958E0,2.306686365E-4,1.407217234E-3,2.687796950E-4,1.451106781E-3
9.130748958E0,-1.275310293E-3,-1.516029239E-3,-2.211697400E-3,2.969236667E-3
9.140704958E0,2.493062522E-3,1.054720022E-3,-4.307605326E-3,5.087559210E-3
9.150660958E0,2.279432258E-3,-1.255758107E-4,-5.028510466E-3,5.522454003E-3
9.160616958E0,6.431861548E-4,-4.187896848E-4,-4.560327157E-3,4.624462889E-3
9.170572958E0,-4.215609515E-4,3.828285262E-4,-4.351405427E-3,4.388507777E-3
9.180528958E0,6.495624548E-4,-1.926803961E-4,-1.463206485E-3,1.612460956E-3
9.190485958E0,3.796347883E-4,-1.096587628E-3,-2.695258707E-3,2.934458467E-3
9.200441958E0,2.737331204E-3,-1.983027905E-4,-4.088889807E-3,4.924563531E-3
9.210397958E0,-2.903896617E-3,5.109515041E-5,-2.530941740E-3,3.852387878E-3
9.220353958E0,1.658364548E-3,-1.790747046E-3,-3.711255267E-3,4.441887394E-3
9.230309958E0,1.332927379E-3,9.099394083E-4,-1.825479791E-3,2.436608625E-3
9.240265958E0,-2.434113994E-3,-1.843236387E-3,-1.215897501E-4,3.055685747E-3
9.250221958E0,-7.777428254E-4,3.832904622E-4,-2.697540447E-3,2.833464301E-3
9.260177958E0,-1.272824593E-3,1.175315119E-3,-2.791283652E-3,3.285226400E-3
9.270133958E0,-2.531082137E-3,3.166822717E-4,-8.309781551E-3,8.692475705E-3
9.280090958E0,1.278177951E-4,5.345288664E-4,-3.979749978E-3,4.017520178E-3
9.290046958E0,2.387451823E-4,-1.299967989E-4,-3.524634987E-3,3.535102576E-3
9.300002958E0,7.543331594E-4,1.532614231E-3,9.896904230E-4,1.974186422E-3
9.309958958E0,-1.278999262E-4,7.574707270E-4,-9.384602308E-4,1.212776937E-3
9.319914958E0,2.143510152E-3,2.037994564E-4,-2.637024969E-3,3.404419286E-3
9.329870958E0,2.860757755E-3,1.117941923E-3,-4.196660593E-3,5.200547011E-3
9.339826958E0,-1.338780858E-3,4.518851638E-4,-4.668308422E-3,4.877462241E-3
9.349782958E0,-1.339176204E-3,1.014214009E-3,-8.754264563E-4,1.894305794E-3
9.359738958E0,5.250367103E-4,-9.354865178E-4,-4.309838638E-3,4.441340750E-3
9.369695958E0,2.087015193E-3,-1.499004662E-3,-2.401011065E-3,3.516745872E-3
9.379651958E0,2.530964324E-3,-3.301436082E-4,-1.796742901E-3,3.121387555E-3
9.389607958E0,1.408561948E-4,1.242975704E-3,-1.567857340E-3,2.005743181E-3
9.399563958E0,-1.832505804E-4,-1.034293324E-3,-3.241123632E-3,3.407084656E-3
9.409519958E0,-3.319546347E-3,-1.008821651E-3,-2.474529669E-3,4.261502805E-3
9.419475958E0,-1.337887952E-3,2.644360065E-4,-3.926483914E-3,4.156578702E-3
9.429431958E0,-1.293295063E-3,1.518641599E-3,-1.129668206E-3,2.292386242E-3
9.439387958E0,2.667846857E-4,1.073095016E-3,-3.094282001E-3,3.285922714E-3
9.449344958E0,2.230489627E-3,-2.384278923E-4,-2.162162215E-3,3.115586185E-3
9.459300958E0,-4.193557543E-4,-2.016769722E-4,-3.804799169E-3,3.833148780E-3
9.469256958E0,1.215491910E-3,1.774939708E-3,-5.917107686E-3,6.296030092E-3
9.479212958E0,-8.892448386E-5,1.167738810E-3,-4.898982123E-3,5.037017702E-3
9.489168958E0,-7.706525503E-4,-2.770405263E-4,-4.386672750E-3,4.462460602E-3
9.499124958E0,-2.819624497E-4,3.591887653E-4,-2.353349701E-3,2.397243043E-3
9.509080958E0,3.317155642E-4,-3.500133753E-4,8.305683732E-4,9.604105377E-4
9.519036958E0,3.036688082E-3,1.381574199E-3,5.610566586E-4,3.383046903E-3
9.528992958E0,3.462887835E-4,8.544046432E-5,-1.462196931E-3,1.505070052E-3
9.538949958E0,-4.092499730E-4,-4.292465746E-5,-4.967449233E-3,4.984463858E-3
9.548905958E0,-4.058792838E-4,-1.738703810E-3,-4.307433963E-3,4.662812057E-3
9.558861958E0,-1.187783200E-3,1.680528745E-3,-4.252303392E-3,4.724096732E-3
9.568817958E0,-8.941805572E-4,-6.337398663E-4,-5.234250799E-3,5.347762758E-3
9.578773958E0,1.955850166E-4,-1.272632740E-3,-3.632625565E-3,3.854064878E-3
9.588729958E0,1.827163040E-3,2.410579473E-4,-2.933362499E-3,3.464281925E-3
9.598685958E0,2.234892920E-3,-2.375124022E-4,-4.261212423E-3,4.817581325E-3
9.608641958E0,-4.055019235E-4,2.064537257E-4,-5.193404853E-3,5.213301154E-3
9.618598958E0,-1.900522038E-4,5.097873509E-4,-5.054656416E-3,5.083852326E-3
9.628554958E0,5.179725122E-6,1.635238528E-3,-5.753070116E-3,5.980957083E-3
9.638511458E0,-1.279262942E-3,-2.361647785E-4,-3.223601729E-3,3.476189808E-3
9.648467458E0,-4.788583028E-4,4.040161148E-4,-2.368040383E-3,2.449520269E-3
9.658423458E0,3.075731220E-4,-1.013051718E-3,-4.369840026E-4,1.145351487E-3
9.668379458E0,-5.258887541E-5,1.841420308E-4,-3.506205976E-4,3.995105515E-4
9.678335458E0,-3.958703601E-4,-6.771245971E-4,-5.224738270E-3,5.283285063E-3
9.688291458E0,-1.260122284E-3,-6.276471540E-4,-3.754198551E-3,4.009470773E-3
9.698248458E0,-2.114464296E-3,1.170519739E-3,-3.910262138E-3,4.596871295E-3
9.708204458E0,-3.233569674E-3,9.343875572E-4,-3.615058959E-3,4.939403225E-3
9.718160458E0,-8.551005740E-4,2.174088731E-3,-9.971708059E-4,2.540119765E-3
9.728116458E0,-2.422733698E-3,1.885249279E-3,1.474563032E-4,3.073360828E-3
9.738072458E0,-2.875204664E-3,-3.573987633E-4,-3.883238882E-3,4.845005671E-3
9.748028458E0,-3.206249094E-4,-1.672584563E-3,-4.466123879E-3,4.779811916E-3
9.757984458E0,-7.608453743E-4,9.463680908E-4,-4.793692380E-3,4.945097055E-3
9.767940458E0,8.571836515E-4,5.800165236E-4,-4.416003823E-3,4.535666737E-3
9.777896458E0,-1.496251905E-3,-1.528849825E-4,-3.116916865E-3,3.460825671E-3
9.787853458E0,1.674608793E-4,1.151514240E-3,-7.026530802E-4,1.359319514E-3
9.797809458E0,-1.989901648E-4,-2.176174894E-4,4.784576595E-4,5.620286374E-4
9.807765458E0,1.077015768E-4,4.625506699E-5,-3.042850643E-3,3.045107420E-3
9.817721458E0,-3.122788621E-4,2.782158554E-4,-4.163242877E-3,4.184198059E-3
9.827677458E0,-1.621043193E-3,2.488158643E-4,-4.394270480E-3,4.690341503E-3
9.837633458E0,-5.483813584E-5,-9.872671217E-5,-3.787338734E-3,3.789022152E-3
9.847589458E0,-3.667538986E-4,6.823986769E-5,2.730023116E-4,4.622719587E-4
9.857545458E0,1.374953426E-3,1.258406788E-3,-6.692260504E-4,1.980390890E-3
9.867502458E0,1.053847140E-3,-6.295228377E-4,8.198004216E-4,1.476131948E-3
9.877458458E0,4.506412079E-4,1.785431989E-3,-2.894509584E-3,3.430602077E-3
9.887414458E0,-3.509053029E-3,-6.152549759E-4,-6.024889648E-3,6.999377624E-3
9.897370458E0,-2.117019147E-3,-1.420861110E-3,-8.221998811E-3,8.608244932E-3
9.907326458E0,-1.079869922E-3,1.648006961E-3,-5.436148494E-3,5.782193048E-3
9.917282458E0,3.622317454E-4,1.355592161E-3,7.639583200E-4,1.597646475E-3
9.927238458E0,-1.229080604E-3,-6.041973829E-4,4.230588675E-4,1.433412856E-3
9.937194458E0,-2.887431066E-3,-1.693696715E-3,4.297425970E-3,5.447360526E-3
9.947150458E0,1.099099289E-3,-3.214702010E-4,-1.111067832E-4,1.150524686E-3
9.957107458E0,-1.500145765E-3,9.800167754E-4,-4.505325109E-3,4.848589953E-3
9.967063458E0,-7.574382471E-5,8.046859875E-4,-8.224926889E-3,8.264543484E-3
9.977019458E0,2.160512609E-3,-4.669735208E-4,-6.055250764E-3,6.446079492E-3
9.986975458E0,7.174930070E-4,1.073033549E-3,-2.444501966E-3,2.764378244E-3
9.996931458E0,1.388584496E-5,1.462920569E-3,1.171004027E-3,1.873920980E-3
1.000688746E1,2.590223681E-3,-5.614394322E-4,1.140553504E-3,2.885365705E-3
1.001684346E1,5.073655047E-4,1.064154319E-3,1.378640532E-3,1.813971854E-3
1.002679946E1,1.665168675E-3,1.027638093E-3,-4.994690418E-3,5.364304162E-3
1.003675646E1,1.565033803E-3,3.384536132E-3,-5.093228072E-3,6.312320320E-3
1.004671246E1,1.682115719E-3,1.013688743E-3,-4.134625196E-3,4.577357718E-3
1.005666846E1,3.484046902E-4,9.601591155E-4,-2.739395946E-3,2.923624720E-3
1.006662446E1,3.593086731E-4,-6.150919944E-5,2.161076292E-3,2.191605997E-3
1.007658046E1,7.183027919E-4,-1.040487550E-3,4.112640396E-3,4.302602035E-3
1.008653646E1,-6.942790351E-4,1.277364790E-4,4.288349301E-4,8.259778350E-4
1.009649246E1,-1.340894494E-3,-1.346323639E-3,-2.259358764E-3,2.952166562E-3
1.010644846E1,-1.708916272E-3,-6.733965129E-4,-5.803663284E-3,6.087393958E-3
1.011640446E1,-1.039397554E-3,-5.980292335E-4,-6.355203688E-3,6.467348773E-3
1.012636146E1,-4.245734890E-4,-8.986564353E-4,-5.040168762E-3,5.137231471E-3
1.013631746E1,8.009554585E-5,-2.417457290E-3,3.942772746E-4,2.450707982E-3
1.014627346E1,2.904888941E-3,-1.768665388E-4,2.285640687E-3,3.700515489E-3
1.015622946E1,1.183688059E-3,7.286081091E-4,1.547411084E-3,2.080016409E-3
1.016618546E1,-2.454111353E-3,1.238503493E-3,-4.432551563E-3,5.215751795E-3
1.017614146E1,3.264227882E-3,-7.524760440E-4,-7.799852639E-3,8.488763459E-3
1.018609746E1,2.414492192E-3,-3.966316581E-4,-5.174286664E-3,5.723664184E-3
1.019605346E1,-1.859881333E-3,2.456412651E-3,-6.608929485E-3,7.291849602E-3
1.020601046E1,1.695626997E-3,-1.855724491E-3,-4.108808935E-3,4.816759820E-3
1.021596646E1,-7.065442624E-4,-1.340136863E-3,5.437340587E-4,1.609601918E-3
1.022592246E1,-1.856557792E-4,-2.224907279E-3,5.889553577E-4,2.309014699E-3
1.023587846E1,-5.942187272E-5,-8.696243167E-4,-2.039585263E-3,2.218036396E-3
1.024583446E1,9.310711757E-4,6.331969053E-4,-7.228754461E-3,7.315922560E-3
1.025579046E1,2.562261652E-4,-6.959866732E-4,-6.851915270E-3,6.891936750E-3
1.026574646E1,-1.352663618E-3,-2.992479131E-4,-4.415605217E-3,4.627830767E-3
1.027570246E1,-8.879421512E-4,2.112245187E-3,-2.006217837E-4,2.300058715E-3
1.028565946E1,2.272142796E-3,-1.553339884E-3,-1.660548151E-3,3.214485626E-3
1.029561546E1,-3.593265428E-4,-2.241234295E-3,-1.602493227E-3,2.778530416E-3
1.030557146E1,-1.865089871E-4,-6.282422692E-4,-3.640424460E-3,3.698940957E-3
1.031552746E1,-3.212649608E-4,-4.319669679E-4,-7.320649922E-3,7.340417012E-3
1.032548346E1,3.879934084E-4,3.595594317E-4,-9.145628661E-3,9.160914009E-3
1.033543946E1,-7.371921674E-4,4.197470844E-4,-3.661118448E-3,3.758114979E-3
1.034539546E1,1.320690732E-3,-7.147993892E-4,-2.981122583E-3,3.338001503E-3