"Time (s)","Gyroscope x (rad/s)","Gyroscope y (rad/s)","Gyroscope z (rad/s)","Absolute (rad/s)"
4.752124998E-3,4.111517221E-3,-3.258784302E-3,-1.050889343E-1,1.052198097E-1
1.470812500E-2,2.263370901E-3,-4.172850400E-3,-1.011279374E-1,1.012392970E-1
2.466512500E-2,3.019442316E-3,-4.589101300E-3,-1.018294170E-1,1.019774831E-1
3.462212500E-2,3.851186950E-3,-2.099934965E-3,-1.101484001E-1,1.102357084E-1
4.457812500E-2,1.755811740E-3,-2.540983260E-4,-1.153737903E-1,1.153874296E-1
5.453512500E-2,3.792338539E-3,-4.901653156E-4,-1.216985583E-1,1.217586186E-1
6.449212500E-2,2.248237608E-3,-8.845794946E-4,-1.212250516E-1,1.212491245E-1
7.444812500E-2,1.595626352E-3,1.509278081E-3,-1.159370020E-1,1.159578043E-1
8.440512500E-2,5.524661392E-4,-8.705230430E-4,-1.061884984E-1,1.061935037E-1
9.436212500E-2,2.353329444E-3,-1.480042003E-3,-1.000402719E-1,1.000788923E-1
1.043181250E-1,5.303956568E-4,-1.681909896E-3,-1.000959277E-1,1.001114623E-1
1.142751250E-1,2.304983791E-3,-2.852788195E-3,-1.061161160E-1,1.061794775E-1
1.242321250E-1,2.228551079E-3,-1.654898748E-3,-1.125119627E-1,1.125461988E-1
1.341881250E-1,1.144228037E-3,1.247692853E-5,-1.166245490E-1,1.166301627E-1
1.441451250E-1,-7.186532021E-4,-5.345363170E-4,-1.160692871E-1,1.160727427E-1
1.541021250E-1,1.765567227E-3,-5.567148328E-4,-1.122466922E-1,1.122619573E-1
1.640581250E-1,-8.826800622E-4,1.013521105E-4,-1.069110483E-1,1.069147401E-1
1.740151250E-1,2.410718938E-3,-1.956394874E-3,-1.039342284E-1,1.039805890E-1
1.839721250E-1,2.159582917E-3,-3.747103736E-3,-1.032854840E-1,1.033759923E-1
1.939281250E-1,1.582702855E-3,-1.963082701E-3,-1.077779979E-1,1.078074926E-1
2.038851250E-1,-5.198628642E-4,-5.177846178E-4,-1.169547141E-1,1.169570156E-1
2.138421250E-1,-7.913836744E-4,3.072605468E-3,-1.187979206E-1,1.188402842E-1
2.237981250E-1,-2.369133290E-4,4.983935505E-4,-1.161898896E-1,1.161912001E-1
2.337551250E-1,-1.012768829E-3,-2.462957054E-3,-1.095723435E-1,1.096047003E-1
2.437121250E-1,1.232808456E-3,-3.425689414E-3,-1.024459898E-1,1.025106629E-1
2.536681250E-1,2.922953805E-3,6.029848009E-4,-9.869328886E-2,9.873840446E-2
2.636251250E-1,1.677926048E-3,-1.472416334E-3,-1.052630395E-1,1.052867082E-1
2.735821250E-1,8.884832496E-4,2.899896353E-4,-1.130629182E-1,1.130667810E-1
2.835381250E-1,2.325467067E-4,2.487629652E-3,-1.193346605E-1,1.193608125E-1
2.934951250E-1,-4.988331348E-4,2.233246341E-3,-1.195048541E-1,1.195267601E-1
3.034521250E-1,6.268849829E-4,1.901949756E-3,-1.120519936E-1,1.120698874E-1
3.134081250E-1,2.769126324E-3,-2.850299701E-3,-1.043053865E-1,1.043810612E-1
3.233651250E-1,1.915849396E-3,-2.125920728E-3,-1.039157659E-1,1.039551654E-1
3.333221250E-1,1.809075940E-3,-1.066639088E-3,-1.067640558E-1,1.067847090E-1
3.432781250E-1,2.753432840E-3,-2.620859072E-3,-1.151399612E-1,1.152026951E-1
3.532351250E-1,2.051562769E-4,-1.163298264E-3,-1.201977953E-1,1.202035996E-1
3.631921250E-1,2.445141086E-3,-2.636025660E-3,-1.210878193E-1,1.211411876E-1
3.731481250E-1,-2.342432272E-4,-2.099165693E-3,-1.143798754E-1,1.143993761E-1
3.831051250E-1,1.201200532E-3,-2.245640382E-3,-1.107949913E-1,1.108242567E-1
3.930621250E-1,7.052344736E-4,-1.575497910E-3,-1.061128825E-1,1.061269211E-1
4.030181250E-1,1.139063388E-3,-5.091680214E-4,-1.029069722E-1,1.029145356E-1
4.129751250E-1,1.888228697E-3,-1.793138683E-3,-1.084956229E-1,1.085268673E-1
4.229321250E-1,1.098601380E-3,-1.126016490E-3,-1.112882122E-1,1.112993307E-1
4.328881250E-1,-2.698458266E-4,-7.337415591E-4,-1.144729853E-1,1.144756548E-1
4.428451250E-1,-4.935513716E-4,-2.293288708E-3,-1.117168814E-1,1.117415069E-1
4.528021250E-1,3.096014261E-4,1.180791296E-3,-1.119998917E-1,1.120065438E-1
4.627581250E-1,2.355175326E-3,-3.295449540E-3,-1.095388681E-1,1.096137330E-1
4.727151250E-1,2.843639813E-3,-1.231856644E-3,-1.070615500E-1,1.071063922E-1
4.826721250E-1,3.671083832E-3,-2.099781297E-3,-1.089425460E-1,1.090246039E-1
4.926281250E-1,4.003426991E-3,-1.889044419E-3,-1.104910895E-1,1.105797304E-1
5.025851250E-1,1.530149486E-3,-4.697613418E-3,-1.119973734E-1,1.121062914E-1
5.125421250E-1,2.580977045E-3,-1.132461242E-3,-1.105209962E-1,1.105569288E-1
5.224992500E-1,-9.647556581E-4,-2.501325682E-3,-1.098378971E-1,1.098706104E-1
5.324552500E-1,7.877653698E-4,-2.548565157E-3,-1.099135280E-1,1.099458930E-1
5.424122500E-1,2.969448688E-4,-1.563318074E-5,-1.060631350E-1,1.060635518E-1
5.523692500E-1,1.727532246E-3,-1.682182774E-4,-1.070736945E-1,1.070877617E-1
5.623252500E-1,1.448166673E-3,-2.081699669E-3,-1.089600101E-1,1.089895154E-1
5.722822500E-1,1.535969554E-3,-8.877273649E-4,-1.115826815E-1,1.115967835E-1
5.822392500E-1,-1.301041339E-4,-6.701471284E-4,-1.131566018E-1,1.131586610E-1
5.921952500E-1,1.244331943E-3,-3.306532279E-3,-1.148568690E-1,1.149111912E-1
6.021522500E-1,1.076552784E-3,5.570799112E-5,-1.132789478E-1,1.132840769E-1
6.121092500E-1,6.182105280E-3,-1.926009543E-3,-1.124298200E-1,1.126161283E-1
6.220652500E-1,5.459057167E-3,1.054499298E-4,-1.098987535E-1,1.100343057E-1
6.320222500E-1,1.734002843E-3,-5.049593747E-4,-1.109690666E-1,1.109837623E-1
6.419792500E-1,2.792343032E-3,5.083736032E-4,-1.092116386E-1,1.092485131E-1
6.519352500E-1,1.039399183E-3,-1.036624424E-3,-1.133241951E-1,1.133337026E-1
6.618922500E-1,3.475392703E-3,-3.303240985E-3,-1.118653193E-1,1.119680286E-1
6.718492500E-1,1.568044885E-3,-1.496224664E-3,-1.125513241E-1,1.125721902E-1
6.818052500E-1,-9.827308822E-4,-2.074928954E-3,-1.112346575E-1,1.112583485E-1
6.917622500E-1,-1.828922890E-3,-5.903188139E-5,-1.078835428E-1,1.078990604E-1
7.017192500E-1,1.052617328E-3,-9.181676432E-4,-1.073479801E-1,1.073570672E-1
7.116752500E-1,2.694217954E-3,-4.723640159E-3,-1.079196781E-1,1.080565986E-1
7.216322500E-1,2.859213855E-4,-2.815751359E-3,-1.085740104E-1,1.086108924E-1
7.315892500E-1,2.836002503E-3,2.429448068E-5,-1.088979840E-1,1.089349091E-1
7.415452500E-1,3.128683893E-3,-2.026064321E-4,-1.103462130E-1,1.103907443E-1
7.515022500E-1,-7.543340325E-5,-2.969251946E-4,-1.129989624E-1,1.129993777E-1
7.614592500E-1,1.253217692E-3,-2.280980349E-3,-1.129347831E-1,1.129647673E-1
7.714152500E-1,1.355640125E-3,-1.519083045E-3,-1.079179794E-1,1.079371838E-1
7.813722500E-1,1.033131382E-3,-1.785133034E-3,-1.069461927E-1,1.069660796E-1
7.913292500E-1,1.416157000E-3,-2.383518964E-3,-1.087927148E-1,1.088280361E-1
8.012852500E-1,6.933751283E-4,-1.146480441E-3,-1.105826274E-1,1.105907440E-1
8.112422500E-1,1.850048546E-3,3.795465454E-4,-1.111263186E-1,1.111423655E-1
8.211992500E-1,1.063617179E-3,-3.294283524E-3,-1.125633642E-1,1.126165820E-1
8.311552500E-1,2.638082951E-3,-1.412028447E-3,-1.137638092E-1,1.138031528E-1
8.411122500E-1,-9.185685776E-4,-2.449596301E-3,-1.125414222E-1,1.125718260E-1
8.510692500E-1,2.254216000E-3,-1.462518238E-3,-1.104454249E-1,1.104781079E-1
8.610252500E-1,3.473751713E-5,-4.585068673E-4,-1.093391478E-1,1.093401147E-1
8.709822500E-1,3.135555424E-3,-9.940657765E-5,-1.059477255E-1,1.059941608E-1
8.809392500E-1,1.055360306E-3,-1.713282429E-3,-1.104016006E-1,1.104199372E-1
8.908952500E-1,7.233161014E-4,-9.311223403E-4,-1.109505743E-1,1.109568389E-1
9.008522500E-1,4.239768023E-4,-5.537522957E-4,-1.138912365E-1,1.138933718E-1
9.108092500E-1,1.893700915E-3,-2.561462112E-3,-1.090295389E-1,1.090760631E-1
9.207652500E-1,-1.004883554E-3,-3.193963319E-3,-1.107651219E-1,1.108157183E-1
9.307222500E-1,2.555477899E-3,-2.239298075E-3,-1.107930243E-1,1.108451134E-1
9.406792500E-1,2.081967657E-3,-3.282724880E-3,-1.181843728E-1,1.182482847E-1
9.506352500E-1,5.369827850E-4,-3.697257489E-4,-1.146094799E-1,1.146113342E-1
9.605922500E-1,1.203305670E-3,-5.588103086E-4,-1.144638062E-1,1.144714948E-1
9.705492500E-1,1.903768280E-3,-2.806065604E-4,-1.140839979E-1,1.141002263E-1
9.805052500E-1,-8.464782732E-4,-2.053739503E-3,-1.065624282E-1,1.065855782E-1
9.904622500E-1,-5.575570976E-4,-2.911672927E-3,-1.045924872E-1,1.046344928E-1
1.000419250E0,2.282437868E-3,-1.767313108E-3,-1.084988192E-1,1.085372133E-1
1.010376250E0,3.060891991E-3,4.873806611E-4,-1.112717912E-1,1.113149501E-1
1.020332250E0,4.171719775E-4,-2.017056569E-3,-1.147552058E-1,1.147736895E-1
1.030289250E0,1.789175672E-3,-1.564040780E-3,-1.149356216E-1,1.149601865E-1
1.040246250E0,9.345673025E-4,6.535733119E-4,-1.088979691E-1,1.089039405E-1
1.050202250E0,1.380159054E-3,2.688774839E-4,-1.089797765E-1,1.089888472E-1
1.060159250E0,6.885360926E-4,-3.846623003E-4,-1.086719036E-1,1.086747656E-1
1.070116250E0,1.016880502E-3,5.736686289E-4,-1.091385782E-1,1.091448230E-1
1.080072250E0,5.170052173E-4,-1.573638059E-3,-1.097127572E-1,1.097252602E-1
1.090029250E0,2.722861245E-5,1.719862223E-3,-1.097298786E-1,1.097433594E-1
1.099986250E0,-1.136306557E-3,-4.122639075E-4,-1.083540842E-1,1.083608265E-1
1.109942250E0,2.371094655E-3,1.103182323E-3,-1.082750559E-1,1.083066334E-1
1.119899250E0,6.355125224E-4,-2.784233540E-3,-1.094479114E-1,1.094851640E-1
1.129856250E0,1.557466574E-3,-8.308151737E-4,-1.126660928E-1,1.126799202E-1
1.139812250E0,1.358262030E-3,-4.971204326E-4,-1.122208089E-1,1.122301294E-1
1.149769250E0,5.496036028E-4,1.378510147E-3,-1.120940372E-1,1.121038605E-1
1.159726250E0,2.995327814E-4,-1.562418416E-3,-1.099520549E-1,1.099635633E-1
1.169682250E0,3.268075641E-3,-1.358374953E-3,-1.101094186E-1,1.101662815E-1
1.179639250E0,-6.307921140E-4,1.375626773E-3,-1.087972820E-1,1.088078068E-1
1.189596250E0,1.729445416E-3,-1.188150607E-3,-1.066714227E-1,1.066920574E-1
1.199552250E0,1.088955207E-3,-1.740185544E-4,-1.082930192E-1,1.082986340E-1
1.209509250E0,5.731785204E-4,-9.526032954E-4,-1.086747795E-1,1.086804660E-1
1.219466250E0,-8.619989967E-4,-2.654363401E-3,-1.120724380E-1,1.121071811E-1
1.229422250E0,6.703282706E-4,8.029472083E-4,-1.116564348E-1,1.116613340E-1
1.239379250E0,-4.551236052E-4,-6.285011768E-4,-1.070667431E-1,1.070695551E-1
1.249336250E0,9.606963140E-4,-1.792117953E-3,-1.128208637E-1,1.128391861E-1
1.259292250E0,1.163362875E-3,-8.062152192E-4,-1.134206131E-1,1.134294445E-1
1.269249250E0,-2.195292152E-3,-1.190469600E-3,-1.119970828E-1,1.120249217E-1
1.279206250E0,-1.083422103E-3,-4.312023520E-4,-1.111635119E-1,1.111696276E-1
1.289162250E0,1.466343761E-3,-1.001663506E-3,-1.127268821E-1,1.127408686E-1
1.299119250E0,2.087991452E-4,-1.008587889E-3,-1.102799699E-1,1.102847796E-1
1.309076250E0,-8.181552403E-4,-8.133649826E-4,-1.094249263E-1,1.094310077E-1
1.319032250E0,2.562993905E-3,-1.120427623E-3,-1.071889400E-1,1.072254315E-1
1.328989250E0,2.507214434E-3,-1.784908585E-3,-1.061294004E-1,1.061740159E-1
1.338946250E0,1.940493821E-3,-1.927386969E-3,-1.104213521E-1,1.104552187E-1
1.348902250E0,2.058659447E-4,-1.355045475E-3,-1.101644337E-1,1.101729594E-1
1.358859250E0,2.692459384E-3,-2.043738961E-3,-1.156657264E-1,1.157151090E-1
1.368816250E0,-6.567544769E-4,1.747335307E-3,-1.146494597E-1,1.146646551E-1
1.378772250E0,-1.063419273E-3,9.137662128E-4,-1.108792201E-1,1.108880844E-1
1.388729250E0,5.927484017E-4,-3.253841773E-3,-1.077008694E-1,1.077516409E-1
1.398686250E0,1.485706307E-3,-1.944631338E-3,-1.020235568E-1,1.020529033E-1
1.408642250E0,1.546912245E-3,-4.861038178E-4,-1.042108983E-1,1.042235125E-1
1.418599250E0,2.484344877E-3,-2.418760210E-3,-1.061430201E-1,1.061996379E-1
1.428556250E0,1.592067769E-3,1.502232626E-4,-1.116237342E-1,1.116351884E-1
1.438512250E0,-3.831987269E-4,-3.832858056E-5,-1.180651188E-1,1.180657469E-1
1.448469250E0,3.905300517E-3,-1.199091785E-3,-1.175565571E-1,1.176275193E-1
1.458426250E0,-2.133950125E-3,-6.864331663E-4,-1.145746186E-1,1.145965452E-1
1.468383250E0,1.636542613E-3,-1.051792875E-3,-1.130654216E-1,1.130821564E-1
1.478339250E0,2.120177960E-4,6.624842063E-4,-1.072184518E-1,1.072207081E-1
1.488296250E0,3.541531041E-3,1.267892309E-3,-1.049263775E-1,1.049937841E-1
1.498253250E0,6.999381585E-4,-1.506588422E-3,-1.078164279E-1,1.078292254E-1
1.508209250E0,3.690569196E-3,4.542339593E-5,-1.107401252E-1,1.108016141E-1
1.518166542E0,1.593958586E-5,-1.591355540E-3,-1.133087426E-1,1.133199180E-1
1.528123542E0,7.433316205E-4,1.085795462E-3,-1.134019196E-1,1.134095537E-1
1.538079542E0,1.332689193E-3,-3.768131137E-4,-1.125371903E-1,1.125457118E-1
1.548036542E0,5.219492596E-5,-1.015976071E-3,-1.100706905E-1,1.100753916E-1
1.557993542E0,1.038363436E-3,-2.699093893E-3,-1.077614650E-1,1.078002627E-1
1.567949542E0,2.485416131E-3,1.006488688E-3,-1.068997309E-1,1.069333567E-1
1.577906542E0,-2.351150382E-3,7.614782080E-4,-1.127501652E-1,1.127772473E-1
1.587863542E0,3.503608052E-3,8.499789983E-4,-1.172351763E-1,1.172905976E-1
1.597819542E0,1.405836083E-3,1.341332681E-3,-1.151307449E-1,1.151471405E-1
1.607776542E0,2.038486069E-3,-5.973083898E-4,-1.101676598E-1,1.101881367E-1
1.617733542E0,7.298085839E-4,-1.709178090E-3,-1.088158414E-1,1.088317107E-1
1.627689542E0,4.929189570E-3,1.118420623E-3,-1.069723293E-1,1.070916757E-1
1.637646542E0,8.604118484E-4,9.607616812E-4,-1.083704829E-1,1.083781571E-1
1.647603542E0,1.600621035E-4,-2.273926511E-4,-1.119416505E-1,1.119419959E-1
1.657559542E0,-1.518262085E-3,-3.762636334E-4,-1.173744947E-1,1.173849168E-1
1.667516542E0,9.782132693E-4,2.250365913E-3,-1.153904125E-1,1.154164995E-1
1.677473542E0,1.571606845E-4,-1.899105497E-3,-1.143131629E-1,1.143290449E-1
1.687429542E0,2.646252979E-3,-1.652866602E-3,-1.096798852E-1,1.097242537E-1
1.697386542E0,1.428655582E-3,-7.894691080E-4,-1.034254506E-1,1.034383302E-1
1.707343542E0,2.858831547E-3,-3.890383989E-3,-1.032253951E-1,1.033382320E-1
1.717299542E0,2.740054624E-3,-8.240193129E-4,-1.071575433E-1,1.071957368E-1
1.727256542E0,1.669728197E-3,1.501436345E-3,-1.107137203E-1,1.107364898E-1
1.737213542E0,1.871464774E-4,9.845169261E-4,-1.140964702E-1,1.141008712E-1
1.747169542E0,3.540446050E-3,-2.299444750E-4,-1.125315055E-1,1.125874210E-1
1.757126542E0,-7.368570659E-4,8.478369564E-4,-1.085801721E-1,1.085859823E-1
1.767083542E0,-2.275872976E-4,-1.937090419E-3,-1.080636382E-1,1.080812381E-1
1.777039542E0,-2.282748697E-3,2.011312172E-3,-1.065789312E-1,1.066223471E-1
1.786996542E0,1.622978598E-4,-8.618272841E-4,-1.101582125E-1,1.101617033E-1
1.796953542E0,1.302663353E-3,-1.044253819E-3,-1.095155850E-1,1.095283103E-1
1.806909542E0,3.419987625E-4,-1.574410126E-3,-1.123780981E-1,1.123896466E-1
1.816866542E0,1.457238104E-4,-4.140706733E-4,-1.109988466E-1,1.109997146E-1
1.826823542E0,1.795107499E-3,9.565791115E-4,-1.133433878E-1,1.133616382E-1
1.836779542E0,2.808440477E-3,1.142360270E-5,-1.088551581E-1,1.088913813E-1
1.846736542E0,7.789438241E-4,1.447679475E-3,-1.082853749E-1,1.082978530E-1
1.856693542E0,-1.143858419E-3,-6.684679538E-4,-1.089069620E-1,1.089150202E-1
1.866649542E0,2.596571576E-4,1.398131251E-3,-1.105403304E-1,1.105494769E-1
1.876606542E0,-4.990773741E-4,2.428516746E-4,-1.162810400E-1,1.162823646E-1
1.886563542E0,6.971075782E-4,6.524417549E-4,-1.146556213E-1,1.146595968E-1
1.896519542E0,1.727484632E-3,1.064965501E-3,-1.138761118E-1,1.138941930E-1
1.906476542E0,2.064964268E-3,-5.386918783E-4,-1.088991985E-1,1.089201069E-1
1.916433542E0,1.206361107E-3,-1.570610330E-4,-1.065281853E-1,1.065351315E-1
1.926390542E0,9.537013830E-4,1.122066751E-4,-1.048208922E-1,1.048252908E-1
1.936346542E0,9.537013830E-4,-2.535508014E-3,-1.080691516E-1,1.081030984E-1
1.946303542E0,5.335343303E-4,-3.343950957E-4,-1.134469286E-1,1.134486760E-1
1.956260542E0,3.076320514E-3,7.300702855E-4,-1.175756305E-1,1.176181349E-1
1.966216542E0,5.074867513E-4,-8.096303791E-4,-1.185918823E-1,1.185957317E-1
1.976173542E0,2.840682166E-3,-1.636009663E-3,-1.114567444E-1,1.115049410E-1
1.986130542E0,3.390380880E-3,-1.452383585E-3,-1.052260175E-1,1.052906400E-1
1.996086542E0,-2.246000804E-5,3.712251782E-5,-1.019676402E-1,1.019676495E-1
2.006043542E0,1.236818382E-3,-2.011578530E-3,-9.976191819E-2,9.978986165E-2
2.016000542E0,8.993958472E-4,-2.303194255E-3,-1.084504798E-1,1.084786624E-1
2.025956542E0,3.528558649E-3,-7.997006178E-4,-1.148931533E-1,1.149501062E-1
2.035913542E0,2.219778253E-4,7.025878876E-4,-1.166084930E-1,1.166108209E-1
2.045870542E0,7.009970141E-4,2.447484992E-3,-1.164929122E-1,1.165207285E-1
2.055826542E0,-1.986188581E-4,-4.971725866E-4,-1.103974730E-1,1.103987711E-1
2.065783542E0,1.423821202E-3,-1.032962464E-3,-1.024200916E-1,1.024351963E-1
2.075740542E0,2.578834072E-3,-1.683839597E-3,-1.019678861E-1,1.020143887E-1
2.085696542E0,1.466409885E-3,-6.632916629E-4,-1.062384024E-1,1.062505928E-1
2.095653542E0,3.159242915E-4,3.316644579E-4,-1.106477976E-1,1.106487457E-1
2.105610542E0,-1.274855109E-3,2.398489043E-3,-1.162338704E-1,1.162656038E-1
2.115566542E0,-9.832389187E-4,1.179027371E-3,-1.147446334E-1,1.147549030E-1
2.125523542E0,2.299035201E-3,2.839593217E-4,-1.124406904E-1,1.124645502E-1
2.135480542E0,2.114211675E-3,-1.375989057E-3,-1.069966555E-1,1.070263870E-1
2.145436542E0,1.361017115E-3,2.851141617E-4,-1.080209911E-1,1.080299411E-1
2.155393542E0,2.723756712E-3,-2.677580342E-4,-1.109680384E-1,1.110017842E-1
2.165350542E0,5.843376275E-4,-2.814251930E-4,-1.140519381E-1,1.140537822E-1
2.175306542E0,-2.181887859E-3,-4.433449358E-4,-1.125536412E-1,1.125756605E-1
2.185263542E0,2.727326937E-4,-1.538086683E-3,-1.083152741E-1,1.083265374E-1
2.195220542E0,2.496738452E-3,-2.558077686E-3,-1.070071161E-1,1.070668032E-1
2.205176542E0,4.249950871E-5,-1.501615159E-3,-1.089738011E-1,1.089841548E-1
2.215133542E0,1.339991577E-3,-1.994833350E-3,-1.136527136E-1,1.136781168E-1
2.225090542E0,1.781172352E-3,-5.748867989E-4,-1.159945130E-1,1.160096122E-1
2.235046542E0,1.871453482E-3,2.661393955E-4,-1.165907905E-1,1.166061130E-1
2.245003542E0,1.063221833E-3,3.641704097E-4,-1.144887954E-1,1.144943114E-1
2.254960542E0,-1.221504062E-3,3.766641021E-5,-1.109270826E-1,1.109338143E-1
2.264916542E0,3.208566923E-4,6.910469383E-4,-1.078099236E-1,1.078126158E-1
2.274873542E0,1.288116793E-3,-2.160132863E-3,-1.103684232E-1,1.103970754E-1
2.284830542E0,1.481217565E-3,-7.300907746E-4,-1.119144186E-1,1.119266016E-1
2.294786542E0,9.083716432E-4,-6.829574704E-5,-1.126505211E-1,1.126542041E-1
2.304743542E0,1.048743026E-3,-2.572422847E-3,-1.088222563E-1,1.088577085E-1
2.314700542E0,2.839452587E-3,-3.283284605E-5,-1.088656634E-1,1.089026916E-1
2.324656542E0,4.650095943E-4,-6.178934127E-4,-1.081921905E-1,1.081949542E-1
2.334613542E0,2.775035333E-3,-3.643777221E-3,-1.105000824E-1,1.105949643E-1
2.344570542E0,1.459781430E-3,1.280061901E-3,-1.144117564E-1,1.144282287E-1
2.354526542E0,6.536425208E-4,-4.712324589E-4,-1.168996841E-1,1.169024612E-1
2.364483542E0,-3.446836490E-5,1.374311745E-3,-1.139203906E-1,1.139286852E-1
2.374440542E0,-8.094483055E-4,-2.627335489E-4,-1.093240380E-1,1.093273503E-1
2.384397542E0,1.134182094E-4,-4.343986511E-4,-1.048919335E-1,1.048928943E-1
2.394353542E0,6.361713167E-5,-1.240004785E-3,-1.060506776E-1,1.060579458E-1
2.404310542E0,-7.691427600E-4,-4.689805210E-4,-1.062940210E-1,1.062978383E-1
2.414267542E0,1.016240334E-3,-1.062066294E-3,-1.105329767E-1,1.105427504E-1
2.424223542E0,6.247641286E-4,1.527063549E-3,-1.120567098E-1,1.120688559E-1
2.434180542E0,-2.959584352E-3,1.098294742E-3,-1.132173166E-1,1.132613180E-1
2.444137542E0,-2.852990292E-6,2.136267722E-5,-1.124305725E-1,1.124305746E-1
2.454093542E0,1.942319795E-3,-3.924928606E-4,-1.111977920E-1,1.112154468E-1
2.464050542E0,-1.028979197E-3,-4.308735952E-4,-1.073868796E-1,1.073926737E-1
2.474007542E0,7.713176892E-4,-1.205054112E-3,-1.081429496E-1,1.081524140E-1
2.483963542E0,1.489744755E-4,2.845823765E-4,-1.092274487E-1,1.092279210E-1
2.493920542E0,2.391089685E-3,6.787301973E-4,-1.160800308E-1,1.161066386E-1
2.503877542E0,2.859520027E-4,-1.533194445E-3,-1.173720434E-1,1.173824051E-1
2.513833542E0,1.557877753E-3,4.884107038E-4,-1.148377806E-1,1.148493856E-1
2.523789875E0,3.090431448E-3,-5.694562569E-4,-1.111344993E-1,1.111789188E-1
2.533746875E0,-3.647536505E-4,-1.142036170E-3,-1.095539182E-1,1.095604778E-1
2.543702875E0,2.268785145E-3,-1.580793411E-3,-1.095530167E-1,1.095879089E-1
2.553659875E0,-4.204749130E-4,-1.272186637E-6,-1.121272296E-1,1.121280180E-1
2.563616875E0,-3.393712686E-4,-2.484982833E-4,-1.120752394E-1,1.120760287E-1
2.573572875E0,1.568783540E-3,-2.453029156E-4,-1.125229150E-1,1.125341177E-1
2.583529875E0,-1.293324050E-3,1.146886498E-4,-1.083414629E-1,1.083492428E-1
2.593486875E0,-1.905090176E-4,-9.838650003E-4,-1.091806293E-1,1.091852283E-1
2.603442875E0,1.866794191E-4,-9.317370132E-4,-1.061880365E-1,1.061922882E-1
2.613399875E0,-1.000291435E-3,3.423187882E-4,-1.084684953E-1,1.084736477E-1
2.623356875E0,-2.658397425E-4,-1.424744725E-3,-1.102755219E-1,1.102850456E-1
2.633312875E0,-6.184156518E-5,-7.445737720E-4,-1.128747687E-1,1.128772414E-1
2.643269875E0,-1.785811037E-4,8.461866528E-4,-1.134616807E-1,1.134649766E-1
2.653226875E0,-2.261972055E-3,-1.474386081E-4,-1.131476909E-1,1.131703946E-1
2.663182875E0,-5.355426110E-4,7.970193401E-4,-1.081265211E-1,1.081307848E-1
2.673139875E0,1.324142795E-3,-6.069997326E-4,-1.089651510E-1,1.089748867E-1
2.683096875E0,4.390661605E-3,-2.588228323E-3,-1.103691980E-1,1.104868169E-1
2.693053875E0,1.354924520E-3,-4.063006490E-4,-1.089856848E-1,1.089948641E-1
2.703009875E0,2.532661194E-3,2.847888507E-3,-1.125756949E-1,1.126401879E-1
2.712966875E0,1.179775340E-3,-4.674810916E-4,-1.124031171E-1,1.124102804E-1
2.722923875E0,2.510105725E-3,1.601397991E-3,-1.135452986E-1,1.135843296E-1
2.732879875E0,1.559889759E-3,-3.618840128E-4,-1.129356995E-1,1.129470515E-1
2.742836875E0,2.520590089E-3,6.589749828E-4,-1.112866700E-1,1.113171619E-1
2.752793875E0,1.224163105E-3,-1.529610716E-3,-1.082354859E-1,1.082532156E-1
2.762749875E0,1.440581633E-3,4.121111706E-4,-1.102438197E-1,1.102540017E-1
2.772706875E0,1.385720447E-3,2.609751187E-3,-1.089343429E-1,1.089744102E-1
2.782663875E0,7.051920402E-4,3.612723202E-3,-1.091068536E-1,1.091689268E-1
2.792619875E0,5.276774522E-3,-5.412753671E-4,-1.083071008E-1,1.084369191E-1
2.802576875E0,1.753111719E-3,6.451373920E-4,-1.097601205E-1,1.097760159E-1
2.812533875E0,-7.127091521E-4,2.312276512E-3,-1.119455174E-1,1.119716635E-1
2.822489875E0,1.490345225E-3,-1.488110051E-3,-1.132989824E-1,1.133185554E-1
2.832446875E0,2.471453743E-3,-2.954978496E-3,-1.146079302E-1,1.146726543E-1
2.842403875E0,1.339737559E-3,2.228138968E-3,-1.141399443E-1,1.141695511E-1
2.852359875E0,4.066281952E-3,-4.123849794E-4,-1.085784659E-1,1.086553632E-1
2.862316875E0,-4.712177906E-5,-1.357151195E-4,-1.048419178E-1,1.048420162E-1
2.872273875E0,9.052246460E-4,1.494672149E-3,-1.065830886E-1,1.065974121E-1
2.882229875E0,-4.855756415E-4,4.094121978E-4,-1.086373851E-1,1.086392417E-1
2.892186875E0,4.356116988E-4,-8.385451511E-4,-1.110424846E-1,1.110465052E-1
2.902143875E0,-5.927711027E-4,5.566338077E-4,-1.126245782E-1,1.126275136E-1
2.912099875E0,5.017881049E-4,-2.423143014E-4,-1.131321713E-1,1.131335436E-1
2.922056875E0,1.471072319E-3,-1.245801337E-3,-1.096168086E-1,1.096337576E-1
2.932013875E0,1.207153080E-3,4.458380863E-4,-1.084551364E-1,1.084627706E-1
2.941969875E0,2.355149714E-3,-3.161644563E-4,-1.090528369E-1,1.090787235E-1
2.951926875E0,-1.372743165E-3,2.637281083E-3,-1.116499528E-1,1.116895324E-1
2.961883875E0,2.254341729E-3,-6.009265780E-5,-1.118522584E-1,1.118749900E-1
2.971839875E0,1.586953644E-3,-1.629759558E-3,-1.129793078E-1,1.130022058E-1
2.981796875E0,4.209156614E-4,-4.952177405E-4,-1.095661595E-1,1.095680872E-1
2.991753875E0,5.253115669E-4,-4.265084863E-4,-1.058028415E-1,1.058050052E-1
3.001709875E0,1.056604087E-3,-1.453813165E-4,-1.083314046E-1,1.083366548E-1
3.011666875E0,7.093278691E-4,-4.172902554E-4,-1.125708893E-1,1.125738975E-1
3.021623875E0,1.898393151E-3,-4.978040233E-4,-1.115625948E-1,1.115798560E-1
3.031580875E0,-1.475565601E-3,1.059079543E-3,-1.113351658E-1,1.113499802E-1
3.041536875E0,-1.298948890E-3,1.468578354E-3,-1.128000170E-1,1.128170547E-1
3.051493875E0,-8.259715978E-4,2.170321532E-3,-1.127294451E-1,1.127533606E-1
3.061450875E0,-1.504508546E-3,-6.446149200E-5,-1.139415279E-1,1.139514786E-1
3.071406875E0,-1.612100750E-4,-4.998883232E-4,-1.084623411E-1,1.084636129E-1
3.081363875E0,5.082391435E-4,7.936125621E-4,-1.050626934E-1,1.050669199E-1
3.091320875E0,1.351129613E-3,-2.137461677E-3,-1.069716439E-1,1.070015275E-1
3.101276875E0,1.985287527E-3,8.863862604E-4,-1.107187271E-1,1.107400722E-1
3.111233875E0,-4.147532163E-4,-1.493414864E-3,-1.156237349E-1,1.156341229E-1
3.121190875E0,-1.216684468E-4,-8.120918646E-4,-1.158342138E-1,1.158371244E-1
3.131146875E0,-1.256175106E-3,-7.569640875E-4,-1.161221042E-1,1.161313655E-1
3.141103875E0,7.750132936E-4,-3.233115189E-3,-1.103156880E-1,1.103657768E-1
3.151060875E0,1.651459606E-3,-2.465325408E-3,-1.069265530E-1,1.069677188E-1
3.161016875E0,7.193757920E-4,-1.182302833E-3,-1.047768146E-1,1.047859543E-1
3.170973875E0,-4.263160517E-4,6.374353543E-4,-1.076192111E-1,1.076219432E-1
3.180930875E0,6.504909834E-4,2.184931189E-3,-1.117811948E-1,1.118044390E-1
3.190886875E0,-9.535308927E-4,2.109957859E-4,-1.138225123E-1,1.138267018E-1
3.200843875E0,-3.910057712E-4,5.996301770E-4,-1.127661988E-1,1.127684709E-1
3.210800875E0,-1.273577334E-3,1.381800510E-3,-1.111198291E-1,1.111357179E-1
3.220756875E0,1.760105952E-3,7.681297138E-4,-1.076378375E-1,1.076549677E-1
3.230713875E0,1.592326793E-3,-2.929404378E-3,-1.041629463E-1,1.042162958E-1
3.240670875E0,-6.578949979E-4,1.391423866E-4,-1.103132814E-1,1.103153310E-1
3.250626875E0,1.071295468E-3,8.821645752E-4,-1.114922687E-1,1.115009053E-1
3.260583875E0,2.153775422E-4,9.940098971E-4,-1.144350246E-1,1.144395443E-1
3.270540875E0,-1.546303392E-3,-1.504567452E-3,-1.113896966E-1,1.114105887E-1
3.280496875E0,2.883374691E-6,4.088347778E-4,-1.097095087E-1,1.097102705E-1
3.290453875E0,2.243134659E-3,2.977810800E-4,-1.047693416E-1,1.047937750E-1
3.300410875E0,1.595191075E-3,1.141961664E-3,-1.053080931E-1,1.053263651E-1
3.310367875E0,-5.694263382E-4,-1.091099344E-3,-1.075020060E-1,1.075090510E-1
3.320323875E0,7.404561620E-4,6.117885932E-4,-1.083763242E-1,1.083805804E-1
3.330280875E0,-6.145600928E-4,-1.465743408E-3,-1.137388647E-1,1.137499689E-1
3.340237875E0,1.109206816E-3,2.884173766E-3,-1.160092279E-1,1.160503760E-1
3.350193875E0,8.870991296E-4,2.726782113E-4,-1.142190546E-1,1.142228249E-1
3.360150875E0,6.737824297E-4,2.284608781E-4,-1.114219651E-1,1.114242365E-1
3.370107875E0,2.388881985E-4,-5.065714940E-4,-1.105247438E-1,1.105261628E-1
3.380063875E0,1.780921360E-3,5.150036886E-4,-1.048330292E-1,1.048494202E-1
3.390020875E0,-2.396190539E-4,-4.583811387E-4,-1.057323813E-1,1.057336465E-1
3.399977875E0,1.101454487E-3,2.138093114E-4,-1.092795879E-1,1.092853478E-1
3.409933875E0,-9.843333391E-4,-1.405925490E-3,-1.121097282E-1,1.121228642E-1
3.419890875E0,1.116561936E-3,-1.004559919E-3,-1.115984172E-1,1.116085237E-1
3.429847875E0,5.394548643E-4,7.006628439E-4,-1.149193794E-1,1.149227814E-1
3.439803875E0,8.446480497E-4,-1.336723566E-3,-1.178406253E-1,1.178512335E-1
3.449760875E0,2.764520701E-3,-1.799580641E-3,-1.146432385E-1,1.146906849E-1
3.459717875E0,1.046347897E-4,-2.303795889E-3,-1.106710806E-1,1.106951061E-1
3.469673875E0,1.399729983E-3,-2.936422825E-4,-1.071218848E-1,1.071314318E-1
3.479630875E0,3.333209082E-3,-1.511898823E-3,-1.076579541E-1,1.077201523E-1
3.489587875E0,2.260754118E-3,-6.996346638E-4,-1.083269417E-1,1.083527886E-1
3.499543875E0,2.473737579E-3,-1.512819901E-3,-1.109904200E-1,1.110282907E-1
3.509500875E0,-2.224078635E-3,2.084578387E-3,-1.101454049E-1,1.101875774E-1
3.519458750E0,1.658498077E-4,1.761929132E-3,-1.133577526E-1,1.133715660E-1
3.529414750E0,1.895306632E-3,-9.161457419E-4,-1.111044511E-1,1.111243923E-1
3.539371750E0,8.898423403E-4,-8.210726082E-5,-1.077946275E-1,1.077983316E-1
3.549328750E0,4.890366108E-4,-7.538124919E-6,-1.090511084E-1,1.090522052E-1
3.559284750E0,3.567175008E-3,-3.966856748E-4,-1.070569754E-1,1.071171231E-1
3.569241750E0,1.659552800E-3,2.688383684E-4,-1.096785963E-1,1.096914804E-1
3.579198750E0,-4.632201744E-4,1.352067105E-3,-1.116709262E-1,1.116800717E-1
3.589155750E0,1.475294819E-3,-4.615457729E-4,-1.085414439E-1,1.085524508E-1
3.599111750E0,1.196320867E-3,7.989173755E-4,-1.113734096E-1,1.113826998E-1
3.609068750E0,-1.808058005E-5,-4.258705303E-4,-1.096114591E-1,1.096122879E-1
3.619025750E0,-4.603492562E-4,-8.997954428E-4,-1.101790220E-1,1.101836577E-1
3.628981750E0,8.983955486E-4,8.160788566E-4,-1.117718592E-1,1.117784488E-1
3.638938750E0,3.491527634E-3,-6.177648902E-5,-1.115326658E-1,1.115873206E-1
3.648895750E0,1.766331843E-3,-1.169651747E-3,-1.128850207E-1,1.129048976E-1
3.658851750E0,1.478625927E-5,-3.985175863E-4,-1.115203500E-1,1.115210630E-1
3.668808750E0,-1.529314439E-3,3.797467798E-5,-1.126596481E-1,1.126700339E-1
3.678765750E0,1.675918000E-3,2.790270373E-4,-1.118474305E-1,1.118603337E-1
3.688721750E0,-1.035978785E-3,7.618581876E-4,-1.108697802E-1,1.108772377E-1
3.698678750E0,1.074353931E-4,-1.170545816E-3,-1.071580797E-1,1.071645267E-1
3.708635750E0,-4.744653124E-4,-2.169497311E-3,-1.059937477E-1,1.060170099E-1
3.718591750E0,2.212077845E-3,-1.438986510E-4,-1.084723324E-1,1.084949809E-1
3.728548750E0,-1.076126937E-3,-8.064927533E-4,-1.139978543E-1,1.140057861E-1
3.738505750E0,2.988103777E-3,2.913232893E-4,-1.164176688E-1,1.164563748E-1
3.748461750E0,-9.743450209E-5,-6.972420961E-4,-1.171681508E-1,1.171702659E-1
3.758418750E0,7.147270371E-4,9.530102834E-4,-1.100764051E-1,1.100828507E-1
3.768375750E0,2.186922356E-3,3.796322271E-4,-1.060912460E-1,1.061144629E-1
3.778331750E0,-6.103047635E-4,1.174289733E-3,-1.021695212E-1,1.021780920E-1
3.788288750E0,8.754729060E-4,-4.489067942E-4,-1.055200472E-1,1.055246338E-1
3.798245750E0,-2.581235021E-4,-1.530259848E-3,-1.105331331E-1,1.105440267E-1
3.808201750E0,-2.570280107E-3,-7.124030963E-4,-1.162783727E-1,1.163089585E-1
3.818158750E0,5.277700257E-5,-1.304777339E-3,-1.135169119E-1,1.135244225E-1
3.828115750E0,-9.741380345E-4,6.878003478E-4,-1.124995872E-1,1.125059071E-1
3.838072750E0,-7.957925554E-4,-1.765999943E-3,-1.095858738E-1,1.096029916E-1
3.848028750E0,-1.932695974E-3,2.082018182E-4,-1.046797931E-1,1.046978402E-1
3.857985750E0,-1.231967937E-3,-1.207200810E-3,-1.084111705E-1,1.084248909E-1
3.867942750E0,-1.016784692E-3,-7.752366364E-4,-1.067773253E-1,1.067849804E-1
3.877898750E0,2.707482781E-5,-1.685739495E-3,-1.127616912E-1,1.127742943E-1
3.887855750E0,4.462563666E-4,-4.416704178E-5,-1.140956655E-1,1.140965468E-1
3.897812750E0,-1.610005274E-3,-1.506795175E-3,-1.131220162E-1,1.131435066E-1
3.907768750E0,-1.889636973E-3,-7.669692859E-4,-1.105374172E-1,1.105562281E-1
3.917725750E0,1.353343134E-3,3.454480320E-4,-1.072025225E-1,1.072116211E-1
3.927682750E0,2.421270823E-3,-2.614855766E-4,-1.090419665E-1,1.090691587E-1
3.937638750E0,1.124794129E-3,9.010182694E-4,-1.126209870E-1,1.126302078E-1
3.947595750E0,-1.212662319E-3,-3.120508045E-4,-1.121083274E-1,1.121153201E-1
3.957552750E0,9.094483103E-4,-9.704474360E-4,-1.114244685E-1,1.114324057E-1
3.967508750E0,-3.648742568E-4,4.327716306E-4,-1.101552024E-1,1.101566569E-1
3.977465750E0,1.512075192E-3,3.213623539E-3,-1.093773395E-1,1.094349859E-1
3.987422750E0,-1.157211140E-3,-1.027727500E-3,-1.088915765E-1,1.089025748E-1
3.997378750E0,1.453427831E-3,1.387730241E-3,-1.086811200E-1,1.086996968E-1
4.007335750E0,2.334401477E-3,-3.081852570E-3,-1.096206829E-1,1.096888388E-1
4.017292750E0,-4.364023916E-4,5.398523062E-4,-1.143025011E-1,1.143046090E-1
4.027248750E0,-8.033774793E-5,-4.963837564E-4,-1.149341986E-1,1.149352985E-1
4.037205750E0,2.186028752E-3,-7.482571527E-4,-1.133465171E-1,1.133700646E-1
4.047162750E0,2.419854281E-3,3.183381632E-4,-1.122255921E-1,1.122521294E-1
4.057119750E0,-1.324421028E-3,2.888422459E-4,-1.090004370E-1,1.090088656E-1
4.067075750E0,2.366986591E-3,-1.663520932E-3,-1.059742868E-1,1.060137698E-1
4.077032750E0,1.361864153E-3,2.452064306E-3,-1.073107570E-1,1.073474074E-1
4.086989750E0,1.419921056E-3,7.947785780E-4,-1.094181165E-1,1.094302155E-1
4.096945750E0,7.563714753E-4,5.322881043E-5,-1.092837080E-1,1.092863385E-1
4.106902750E0,9.212211007E-4,4.548337311E-4,-1.110389978E-1,1.110437506E-1
4.116859750E0,3.052528482E-3,2.930769697E-4,-1.136567295E-1,1.136980913E-1
4.126815750E0,1.788858557E-3,-2.075006254E-3,-1.134798899E-1,1.135129556E-1
4.136772750E0,1.685663592E-4,-3.811353818E-4,-1.155958176E-1,1.155965688E-1
4.146729750E0,-7.038851036E-4,-8.740862831E-4,-1.077866331E-1,1.077924754E-1
4.156685750E0,2.327762078E-3,4.087407142E-4,-1.036309674E-1,1.036579131E-1
4.166642750E0,1.982616493E-3,2.243392169E-3,-1.052001044E-1,1.052426983E-1
4.176599750E0,7.451593410E-5,-7.054703310E-4,-1.074126884E-1,1.074150310E-1
4.186555750E0,4.140689271E-4,-1.476455480E-3,-1.139733866E-1,1.139837016E-1
4.196512750E0,9.334534407E-4,1.945775934E-3,-1.164664328E-1,1.164864256E-1
4.206469750E0,-3.786860034E-4,3.921892494E-5,-1.130621210E-1,1.130627620E-1
4.216425750E0,-1.072932500E-3,-7.302556187E-4,-1.084388047E-1,1.084465713E-1
4.226382750E0,1.700483263E-3,-1.032791100E-3,-1.049764305E-1,1.049952821E-1
4.236339750E0,2.384514548E-3,1.230761409E-3,-1.083674282E-1,1.084006466E-1
4.246295750E0,-2.764973789E-3,1.816922799E-3,-1.072086915E-1,1.072597307E-1
4.256252750E0,9.681563824E-6,1.863262616E-3,-1.120923683E-1,1.121078538E-1
4.266209750E0,-2.468123566E-3,-1.224406995E-3,-1.117030159E-1,1.117369883E-1
4.276166750E0,2.000781940E-3,1.553537324E-3,-1.114930063E-1,1.115217785E-1
4.286122750E0,3.963010386E-5,-1.154098660E-3,-1.116080508E-1,1.116140247E-1
4.296079750E0,1.880452968E-3,5.651004612E-4,-1.108257696E-1,1.108431624E-1
4.306036750E0,-6.354353391E-4,1.640218310E-3,-1.140101105E-1,1.140236791E-1
4.315992750E0,9.626753163E-4,-1.339778304E-3,-1.107510254E-1,1.107633124E-1
4.325949750E0,1.004486927E-3,-1.168270595E-3,-1.098178551E-1,1.098286627E-1
4.335906750E0,-1.925177639E-4,2.749645151E-3,-1.113330573E-1,1.113671732E-1
4.345862750E0,2.223501913E-3,9.466847405E-4,-1.093657836E-1,1.093924806E-1
4.355819750E0,1.282866811E-3,-1.116325147E-3,-1.097025201E-1,1.097157001E-1
4.365776750E0,7.931115688E-4,4.880782217E-5,-1.093371287E-1,1.093400161E-1
4.375732750E0,1.344112679E-4,1.878847368E-3,-1.092666239E-1,1.092828588E-1
4.385689750E0,-1.266944106E-3,-4.928093404E-5,-1.090615615E-1,1.090689313E-1
4.395646750E0,1.778116683E-3,-9.750006720E-4,-1.072589085E-1,1.072780768E-1
4.405602750E0,2.478527837E-3,4.697646946E-4,-1.069265455E-1,1.069562991E-1
4.415559750E0,3.163582180E-3,1.370283775E-3,-1.129129082E-1,1.129655291E-1
4.425516750E0,1.156890416E-3,-2.583976835E-3,-1.178014055E-1,1.178354211E-1
4.435472750E0,3.175024176E-4,5.277441815E-4,-1.162255257E-1,1.162271576E-1
4.445429750E0,-1.442048233E-3,-9.406358004E-8,-1.159823760E-1,1.159913404E-1
4.455386750E0,3.336549271E-3,3.361511976E-3,-1.115799546E-1,1.116804307E-1
4.465342750E0,-1.031896099E-4,-1.099548303E-3,-1.055700034E-1,1.055757798E-1
4.475299750E0,1.295006368E-3,2.549371682E-3,-1.038674116E-1,1.039067637E-1
4.485256750E0,-5.737337051E-4,-7.617371157E-4,-1.047696918E-1,1.047740318E-1
4.495213750E0,6.880502915E-4,-6.335573271E-4,-1.140384451E-1,1.140422806E-1
4.505169750E0,-1.268574153E-3,-1.161129214E-3,-1.138791889E-1,1.138921734E-1
4.515126750E0,3.932988038E-4,2.240800299E-3,-1.133450493E-1,1.133678794E-1
4.525083375E0,1.226069289E-3,1.415752806E-3,-1.094698831E-1,1.094859028E-1
4.535039375E0,2.035992686E-3,-1.456476748E-4,-1.078661010E-1,1.078854124E-1
4.544996375E0,1.409617136E-3,8.698161691E-4,-1.074927300E-1,1.075054911E-1
4.554953375E0,-2.341002692E-3,-2.218140289E-4,-1.087391749E-1,1.087645974E-1
4.564909375E0,3.243646119E-3,-2.169383690E-3,-1.108212397E-1,1.108899212E-1
4.574866375E0,-2.052393975E-4,4.189321771E-4,-1.107706651E-1,1.107716474E-1
4.584823375E0,8.078271057E-4,-8.513955399E-4,-1.129629835E-1,1.129690803E-1
4.594779375E0,-1.121107489E-4,-9.947353974E-4,-1.098989621E-1,1.099035210E-1
4.604736375E0,1.707893447E-3,-2.528449520E-3,-1.068957150E-1,1.069392530E-1
4.614693375E0,-1.518731005E-3,4.665041342E-4,-1.096509993E-1,1.096625087E-1
4.624649375E0,-5.719772307E-4,1.638295129E-3,-1.135051250E-1,1.135183887E-1
4.634606375E0,8.276357548E-4,2.342937514E-4,-1.131292060E-1,1.131324760E-1
4.644563375E0,-2.767771948E-4,-1.124983653E-3,-1.127153486E-1,1.127213024E-1
4.654519375E0,1.265479717E-3,1.689284109E-3,-1.128208712E-1,1.128406137E-1
4.664476375E0,2.971543581E-4,7.225563750E-4,-1.109313592E-1,1.109341104E-1
4.674433375E0,1.561162644E-3,-2.078898251E-5,-1.058003232E-1,1.058118427E-1
4.684390375E0,9.283955442E-4,-1.173671335E-3,-1.035715193E-1,1.035823297E-1
4.694346375E0,1.942103030E-3,-1.389305107E-3,-1.082131341E-1,1.082394767E-1
4.704303375E0,-3.181217471E-4,-1.026315615E-3,-1.140654311E-1,1.140704917E-1
4.714260375E0,2.242665738E-3,1.402982511E-3,-1.155354381E-1,1.155657188E-1
4.724216375E0,2.216300461E-3,5.204109475E-4,-1.167048290E-1,1.167270317E-1
4.734173375E0,-1.681550173E-3,-3.180699423E-4,-1.163190976E-1,1.163316863E-1
4.744130375E0,5.336671602E-4,1.181559637E-4,-1.125813499E-1,1.125826768E-1
4.754086375E0,-1.270521898E-3,9.738355875E-4,-1.117969602E-1,1.118084205E-1
4.764043375E0,2.186793834E-3,3.509214148E-4,-1.119527519E-1,1.119746572E-1
4.774000375E0,1.408771961E-3,-4.252446815E-4,-1.137492061E-1,1.137587243E-1
4.783956375E0,-4.740830045E-4,5.481401458E-4,-1.100532711E-1,1.100556572E-1
4.793913375E0,-1.384966541E-3,-6.681736559E-4,-1.093590707E-1,1.093698812E-1
4.803870375E0,-5.828224821E-4,-7.379483432E-4,-1.083223000E-1,1.083263815E-1
4.813827375E0,1.027910039E-3,3.351420164E-4,-1.091687456E-1,1.091740992E-1
4.823783375E0,-1.505555119E-3,2.544475719E-4,-1.105370745E-1,1.105476200E-1
4.833740375E0,4.112206516E-4,-2.781799994E-3,-1.141937971E-1,1.142284151E-1
4.843697375E0,1.214686781E-4,1.202467829E-4,-1.124888435E-1,1.124889734E-1
4.853653375E0,2.269403078E-3,6.599202752E-4,-1.125591695E-1,1.125839790E-1
4.863610375E0,6.070578820E-4,-5.358383060E-4,-1.086760163E-1,1.086790328E-1
4.873567375E0,1.754113007E-3,1.677029766E-3,-1.058175564E-1,1.058453805E-1
4.883523375E0,2.619437873E-4,-1.113962382E-3,-1.065725610E-1,1.065787046E-1
4.893480375E0,1.902936492E-5,-1.005441882E-3,-1.092486009E-1,1.092532291E-1
4.903437375E0,-1.241178485E-3,-5.148882046E-4,-1.118957847E-1,1.119038528E-1
4.913393375E0,2.253675833E-3,2.772408538E-3,-1.122309640E-1,1.122878203E-1
4.923350375E0,-1.844130340E-3,7.135188207E-4,-1.129161939E-1,1.129335060E-1
4.933307375E0,1.985118026E-3,1.523160376E-3,-1.124397740E-1,1.124676108E-1
4.943263375E0,2.547045005E-3,-1.792474650E-3,-1.122879758E-1,1.123311619E-1
4.953220375E0,2.029622905E-3,7.752357051E-4,-1.097657681E-1,1.097872679E-1
4.963177375E0,1.883681631E-3,2.276897430E-4,-1.077857092E-1,1.078024082E-1
4.973133375E0,1.514315256E-3,3.851479851E-3,-1.063944846E-1,1.064749426E-1
4.983090375E0,1.077823108E-3,1.643186435E-3,-1.105775163E-1,1.105949767E-1
4.993047375E0,1.818147604E-3,3.943387419E-4,-1.111225933E-1,1.111381658E-1
5.003004375E0,7.494210731E-4,-1.128457487E-3,-1.113356501E-1,1.113438908E-1
5.012960375E0,3.384110285E-3,-6.824051961E-4,-1.080515310E-1,1.081066660E-1
5.022917375E0,2.982505597E-3,-2.422248013E-3,-1.108324081E-1,1.108989869E-1
5.032874375E0,2.659010468E-3,-4.998119548E-4,-1.119493172E-1,1.119820064E-1
5.042830375E0,8.576483233E-4,1.550288871E-3,-1.170881540E-1,1.171015574E-1
5.052787375E0,-3.344911383E-4,1.451270655E-4,-1.142689511E-1,1.142695328E-1
5.062744375E0,-5.922851851E-4,9.739026427E-4,-1.150327474E-1,1.150383947E-1
5.072700375E0,1.950012636E-3,-2.138750628E-3,-1.083295718E-1,1.083682284E-1
5.082657375E0,1.616318594E-3,4.889909178E-4,-1.080467403E-1,1.080599356E-1
5.092614375E0,-1.232625218E-4,-1.024222001E-4,-1.115058735E-1,1.115059887E-1
5.102570375E0,-2.843837719E-4,5.175620317E-4,-1.122560874E-1,1.122576407E-1
5.112527375E0,1.743554138E-3,2.126386389E-4,-1.124051511E-1,1.124188738E-1
5.122484375E0,-2.312440192E-3,-2.201246098E-4,-1.138408631E-1,1.138645597E-1
5.132440375E0,2.108358080E-3,1.806905493E-4,-1.143103838E-1,1.143299684E-1
5.142397375E0,8.084691362E-4,-1.749834977E-3,-1.114799753E-1,1.114966387E-1
5.152354375E0,6.841134164E-4,-8.863676339E-5,-1.114536896E-1,1.114558244E-1
5.162311375E0,-7.183072157E-4,-1.370948739E-3,-1.117969751E-1,1.118076881E-1
5.172267375E0,2.216326771E-3,-2.027719282E-3,-1.095655113E-1,1.096066833E-1
5.182224375E0,-1.075476175E-4,1.004133373E-4,-1.101026684E-1,1.101027667E-1
5.192181375E0,-6.641204236E-4,3.098594025E-4,-1.095897257E-1,1.095921761E-1
5.202137375E0,3.502776381E-4,-2.174461260E-4,-1.086187363E-1,1.086195187E-1
5.212094375E0,2.170178806E-3,-3.698384389E-4,-1.122926176E-1,1.123141951E-1
5.222051375E0,2.174439840E-3,-2.500899136E-3,-1.128356382E-1,1.128842945E-1
5.232007375E0,-5.832324969E-4,-2.060374245E-4,-1.106933355E-1,1.106950638E-1
5.241964375E0,4.846928641E-5,-1.300596632E-3,-1.079726517E-1,1.079804956E-1
5.251921375E0,-1.828994835E-3,7.402086630E-4,-1.040082276E-1,1.040269414E-1
5.261877375E0,5.310984561E-4,-1.352770254E-3,-1.059320942E-1,1.059420626E-1
5.271834375E0,-1.435556216E-3,8.208854124E-4,-1.070026904E-1,1.070154682E-1
5.281791375E0,7.754000835E-4,1.199054532E-3,-1.087779552E-1,1.087873270E-1
5.291747375E0,-7.995640626E-4,1.020771451E-3,-1.109599695E-1,1.109675453E-1
5.301704375E0,-2.871719189E-4,3.802813590E-4,-1.096438393E-1,1.096448748E-1
5.311661375E0,1.236636657E-3,9.708944708E-5,-1.103594899E-1,1.103664610E-1
5.321618375E0,-4.009410040E-4,1.423609443E-3,-1.126205102E-1,1.126302212E-1
5.331574375E0,-2.656457946E-5,1.815343276E-4,-1.138834581E-1,1.138836059E-1
5.341531375E0,5.865655839E-5,6.529139355E-4,-1.111774221E-1,1.111793548E-1
5.351488375E0,9.242635570E-4,2.043684013E-3,-1.070850417E-1,1.071085294E-1
5.361444375E0,9.628793923E-4,-1.626152545E-3,-1.055776924E-1,1.055946052E-1
5.371401375E0,2.545358613E-3,-1.466137357E-3,-1.055510193E-1,1.055918846E-1
5.381358375E0,2.790635917E-3,-4.534050822E-5,-1.105889231E-1,1.106241367E-1
5.391314375E0,2.016562503E-3,-6.995908916E-5,-1.137454733E-1,1.137633690E-1
5.401271375E0,1.463157590E-3,1.040579751E-3,-1.153478995E-1,1.153618722E-1
5.411228375E0,-6.268443540E-4,2.297524363E-3,-1.140816212E-1,1.141064759E-1
5.421184375E0,-1.671421342E-5,1.310436055E-4,-1.152499467E-1,1.152500224E-1
5.431141375E0,1.535719843E-3,-6.620967761E-4,-1.095968485E-1,1.096096073E-1
5.441098375E0,-5.055931397E-4,-2.272509970E-3,-1.089646146E-1,1.089894819E-1
5.451054375E0,6.640673382E-4,3.408543766E-3,-1.085241139E-1,1.085796595E-1
5.461011375E0,1.141305780E-3,-5.981819704E-4,-1.058747992E-1,1.058826402E-1
5.470968375E0,2.649685135E-3,-5.373600870E-4,-1.079435572E-1,1.079774103E-1
5.480925375E0,9.551157709E-4,-1.268131658E-3,-1.109209731E-1,1.109323338E-1
5.490881375E0,-1.379813883E-3,8.621253073E-6,-1.127551794E-1,1.127636220E-1
5.500838375E0,-6.559668109E-4,8.445875719E-4,-1.139016673E-1,1.139066874E-1
5.510795375E0,4.220893024E-4,4.213089123E-4,-1.080519110E-1,1.080535568E-1
5.520750792E0,-7.778604049E-5,2.838904038E-4,-1.090402082E-1,1.090406055E-1
5.530707792E0,2.796929795E-3,1.063451171E-3,-1.088459939E-1,1.088871164E-1
5.540664792E0,2.733013825E-3,3.318616189E-3,-1.084118932E-1,1.084971022E-1
5.550620792E0,-3.461693414E-4,-1.664738171E-3,-1.140117720E-1,1.140244506E-1
5.560577792E0,-3.543294035E-3,8.679274470E-4,-1.158634648E-1,1.159208812E-1
5.570534792E0,1.456111437E-3,8.938442916E-4,-1.099720523E-1,1.099853240E-1
5.580491792E0,-1.616111258E-3,1.315156929E-3,-1.111278608E-1,1.111473927E-1
5.590447792E0,-1.290242421E-3,-9.728949517E-4,-1.082128137E-1,1.082248784E-1
5.600404792E0,1.803551917E-3,2.044886351E-4,-1.088972464E-1,1.089123725E-1
5.610361792E0,5.532101495E-4,-1.679957844E-3,-1.080844477E-1,1.080989183E-1
5.620317792E0,-1.167990966E-3,-1.622167416E-3,-1.137500554E-1,1.137676173E-1
5.630274792E0,-7.043204969E-4,-1.782821491E-4,-1.138176918E-1,1.138200106E-1
5.640231792E0,1.970558427E-3,1.408162527E-3,-1.124874428E-1,1.125135139E-1
5.650187792E0,4.861864727E-4,-6.409855559E-4,-1.088622287E-1,1.088652014E-1
5.660144792E0,-1.910924795E-3,-1.270823181E-3,-1.072313115E-1,1.072558660E-1
5.670101792E0,3.612196306E-4,5.709938705E-5,-1.073509902E-1,1.073516131E-1
5.680057792E0,2.093073446E-3,-5.189422518E-4,-1.069672257E-1,1.069889603E-1
5.690014792E0,-1.428048243E-3,1.443171874E-3,-1.108573079E-1,1.108758981E-1
5.699971792E0,9.181966889E-4,-2.450102940E-3,-1.159053296E-1,1.159348589E-1
5.709927792E0,-9.896219708E-4,-7.728300989E-5,-1.183560267E-1,1.183601892E-1
5.719884792E0,-1.563266851E-3,-1.148939133E-3,-1.161948740E-1,1.162110693E-1
5.729841792E0,-1.282079611E-4,1.565316692E-3,-1.112986580E-1,1.113097386E-1
5.739798792E0,1.909110229E-3,-8.901180699E-4,-1.048431545E-1,1.048643127E-1
5.749754792E0,2.863502130E-3,4.296535626E-4,-1.044883281E-1,1.045284409E-1
5.759711792E0,8.160638972E-4,1.192383468E-3,-1.057117805E-1,1.057216547E-1
5.769668792E0,-8.288631216E-4,-8.164895698E-4,-1.115818545E-1,1.115879202E-1
5.779624792E0,2.627666690E-4,7.547754794E-4,-1.133864149E-1,1.133892315E-1
5.789581792E0,-4.628160968E-5,-6.968164816E-4,-1.123356000E-1,1.123377706E-1
5.799538792E0,-5.900990218E-4,-2.245711163E-3,-1.084681526E-1,1.084930024E-1
5.809494792E0,4.403670318E-4,-2.296431921E-3,-1.043301821E-1,1.043563818E-1
5.819451792E0,-6.944058696E-4,-2.335468307E-4,-1.063589752E-1,1.063614984E-1
5.829408792E0,-1.580484677E-4,1.076506451E-4,-1.102311760E-1,1.102313419E-1
5.839365792E0,1.582593657E-3,-2.140598372E-4,-1.158184856E-1,1.158294955E-1
5.849321792E0,2.217602683E-3,-1.284368336E-4,-1.151585579E-1,1.151799797E-1
5.859278792E0,1.343553187E-3,5.064606667E-4,-1.129441410E-1,1.129532675E-1
5.869235792E0,-4.697766853E-4,1.587597653E-4,-1.075229347E-1,1.075240781E-1
5.879191792E0,1.357418136E-3,-1.149118878E-3,-1.066225171E-1,1.066373491E-1
5.889148792E0,2.715868177E-3,-2.096604556E-3,-1.075490713E-1,1.076037845E-1
5.899105792E0,-1.451712451E-3,2.722777426E-4,-1.082545370E-1,1.082646128E-1
5.909061792E0,7.909075939E-4,-4.846025258E-4,-1.107228771E-1,1.107267623E-1
5.919018792E0,2.558785491E-4,2.588951029E-3,-1.122043952E-1,1.122345511E-1
5.928975792E0,1.980303554E-3,-1.518300734E-3,-1.118027642E-1,1.118306082E-1
5.938931792E0,5.559325684E-3,-9.457487613E-5,-1.098056585E-1,1.099463400E-1
5.948888792E0,1.201307867E-3,1.402134076E-3,-1.087343320E-1,1.087500073E-1
5.958845792E0,1.030066633E-3,-2.897717059E-4,-1.044855192E-1,1.044909983E-1
5.968802792E0,-7.973797619E-4,4.806807265E-4,-1.061703414E-1,1.061744237E-1
5.978758792E0,-4.197435919E-4,-1.319083385E-3,-1.119211763E-1,1.119297363E-1
5.988715792E0,1.805675216E-3,-1.130066812E-3,-1.165512726E-1,1.165707367E-1
5.998672792E0,1.228568144E-3,-1.417422667E-3,-1.207846329E-1,1.207991970E-1
6.008628792E0,5.890830071E-4,-1.475017518E-3,-1.156054586E-1,1.156163689E-1
6.018585792E0,-2.847001888E-4,-2.805897966E-4,-1.121249720E-1,1.121256846E-1
6.028542792E0,2.783380449E-3,1.403460279E-3,-1.067250744E-1,1.067705877E-1
6.038498792E0,3.039776348E-4,-1.095649786E-3,-1.014123335E-1,1.014187076E-1
6.048455792E0,-4.232246429E-4,2.306883223E-3,-1.050960422E-1,1.051222094E-1
6.058412792E0,1.174672041E-3,5.489308387E-4,-1.098804101E-1,1.098880599E-1
6.068368792E0,-7.720729336E-4,-1.135830767E-3,-1.142390147E-1,1.142472699E-1
6.078325792E0,-1.417889376E-3,-2.903371118E-3,-1.191237792E-1,1.191675910E-1
6.088282792E0,-9.414069355E-4,2.364534885E-4,-1.167500317E-1,1.167540666E-1
6.098238792E0,1.318817958E-3,2.865213901E-4,-1.121560782E-1,1.121641977E-1
6.108195792E0,-2.872115932E-3,-4.472639412E-4,-1.070807353E-1,1.071201800E-1
6.118152792E0,1.867512008E-3,-3.953324631E-4,-1.088477448E-1,1.088644819E-1
6.128109792E0,6.764155114E-4,-5.966927856E-4,-1.093038023E-1,1.093075238E-1
6.138065792E0,5.698890891E-4,-9.695356712E-4,-1.119858623E-1,1.119915091E-1
6.148022792E0,5.612149835E-5,-9.536473081E-4,-1.152177155E-1,1.152216757E-1
6.157979792E0,-2.213799162E-4,-2.875905484E-4,-1.068743020E-1,1.068749183E-1
6.167935792E0,6.908494979E-4,1.430307515E-3,-1.082593352E-1,1.082709874E-1
6.177892792E0,-1.078820904E-3,2.095565200E-3,-1.059343964E-1,1.059606134E-1
6.187849792E0,-1.062192139E-3,-5.211085081E-4,-1.065264717E-1,1.065330417E-1
6.197806792E0,5.034802598E-4,-2.910112962E-4,-1.114847511E-1,1.114862678E-1
6.207762792E0,1.016797149E-3,-6.352812052E-4,-1.159020364E-1,1.159082374E-1
6.217719792E0,-2.735596616E-3,1.353833824E-3,-1.168250889E-1,1.168649551E-1
6.227676792E0,-1.188057009E-3,-6.852867082E-4,-1.166452914E-1,1.166533545E-1
6.237632792E0,3.389995545E-4,3.078058362E-4,-1.109293550E-1,1.109303001E-1
6.247589792E0,-1.157785300E-3,2.545963973E-3,-1.039973646E-1,1.040349665E-1
6.257546792E0,-5.987876793E-4,1.192012802E-3,-1.076022238E-1,1.076104920E-1
6.267502792E0,6.263154792E-4,3.648982383E-3,-1.079135910E-1,1.079770830E-1
6.277459792E0,1.095298096E-3,-1.340387389E-4,-1.138625592E-1,1.138679061E-1
6.287416792E0,2.035875805E-3,1.785609871E-3,-1.142372489E-1,1.142693407E-1
6.297372792E0,3.205535933E-3,-1.651551574E-4,-1.163163781E-1,1.163606572E-1
6.307329792E0,-1.593268011E-3,-3.400631249E-5,-1.172307655E-1,1.172415969E-1
6.317286792E0,-3.287992440E-4,-5.932701752E-4,-1.129452065E-1,1.129472432E-1
6.327243792E0,-5.711197155E-4,5.552554503E-4,-1.098928079E-1,1.098956947E-1
6.337199792E0,1.768999966E-3,-1.179793850E-3,-1.070584059E-1,1.070795197E-1
6.347156792E0,1.130334800E-3,3.065057099E-4,-1.075219139E-1,1.075282920E-1
6.357113792E0,-2.005271148E-3,1.867651008E-3,-1.109797582E-1,1.110135846E-1
6.367069792E0,7.894258015E-4,-1.996038482E-4,-1.170299426E-1,1.170327753E-1
6.377026792E0,-4.123573657E-3,1.510945149E-3,-1.148245782E-1,1.149085313E-1
6.386983792E0,6.927361246E-4,-6.658611819E-4,-1.106278896E-1,1.106320623E-1
6.396939792E0,3.510038368E-6,-2.024339512E-3,-1.080970913E-1,1.081160447E-1
6.406896792E0,1.951164915E-3,-9.639598429E-4,-1.082528159E-1,1.082746896E-1
6.416853792E0,6.014748942E-4,2.549691126E-4,-1.082203239E-1,1.082222957E-1
6.426810792E0,5.033642519E-4,-2.417378128E-4,-1.115674078E-1,1.115688053E-1
6.436766792E0,4.240020644E-4,-5.312236026E-4,-1.149669364E-1,1.149689456E-1
6.446723792E0,9.439745918E-5,2.355873585E-4,-1.107604951E-1,1.107607858E-1
6.456680792E0,-1.130124088E-3,-7.388629019E-4,-1.089649871E-1,1.089733523E-1
6.466636792E0,3.344479017E-3,-4.578540102E-4,-1.079170555E-1,1.079698385E-1
6.476593792E0,1.838394674E-4,-1.934021711E-4,-1.070246324E-1,1.070249650E-1
6.486550792E0,-2.661256585E-4,-6.881421432E-4,-1.094981283E-1,1.095006140E-1
6.496506792E0,-1.609157771E-3,-7.411390543E-4,-1.116217300E-1,1.116357886E-1
6.506463792E0,3.391046543E-3,-4.384294152E-4,-1.146191210E-1,1.146701108E-1
6.516420792E0,3.556428943E-3,-1.936843619E-4,-1.115223989E-1,1.115792595E-1
6.526378750E0,-1.337597729E-3,-9.242100641E-4,-1.114975214E-1,1.115093745E-1
6.536334750E0,-1.427079900E-3,-9.790714830E-4,-1.083720326E-1,1.083858505E-1
6.546291750E0,-2.727574902E-3,-4.529440776E-4,-1.081885695E-1,1.082238948E-1
6.556248750E0,-1.537141856E-3,7.750401273E-4,-1.084820479E-1,1.084957060E-1
6.566204750E0,1.319726347E-3,9.797485545E-4,-1.075805575E-1,1.075931128E-1
6.576161750E0,6.406202447E-4,-9.539723396E-4,-1.044694558E-1,1.044757754E-1
6.586118750E0,3.322644625E-3,-1.373965293E-3,-1.126308963E-1,1.126882715E-1
6.596074750E0,-4.025850212E-4,-5.260147154E-4,-1.169492155E-1,1.169510914E-1
6.606031750E0,1.582775963E-3,7.412703708E-4,-1.163402796E-1,1.163534070E-1
6.615988750E0,2.164410427E-3,3.444598988E-4,-1.160723642E-1,1.160930534E-1
6.625944750E0,1.660678303E-3,5.346490070E-4,-1.126614287E-1,1.126749361E-1
6.635901750E0,2.803619136E-4,3.711311147E-4,-1.077372432E-1,1.077382472E-1
6.645858750E0,1.855064882E-3,1.736277714E-3,-1.066926643E-1,1.067229148E-1
6.655815750E0,-1.329848310E-4,-7.279450074E-4,-1.045778468E-1,1.045804649E-1
6.665771750E0,-8.744358784E-4,1.267176121E-4,-1.117232665E-1,1.117267604E-1
6.675728750E0,1.291246735E-3,-1.308193430E-3,-1.178296357E-1,1.178439720E-1
6.685685750E0,-1.149411546E-3,5.651544780E-5,-1.191468909E-1,1.191524484E-1
6.695641750E0,-1.364062307E-3,-2.063893713E-3,-1.144381538E-1,1.144648914E-1
6.705598750E0,8.800660726E-4,2.684015781E-4,-1.102501899E-1,1.102540291E-1
6.715555750E0,-7.335431874E-4,-3.752848133E-4,-1.061904654E-1,1.061936621E-1
6.725512750E0,-2.783278469E-4,-1.114672050E-4,-1.097351015E-1,1.097355110E-1
6.735468750E0,-6.879220018E-4,-2.169283107E-4,-1.091896892E-1,1.091920717E-1
6.745425750E0,-8.316943422E-6,2.733798698E-3,-1.128016636E-1,1.128347864E-1
6.755382750E0,8.356388425E-4,1.654419117E-3,-1.112778038E-1,1.112932388E-1
6.765338750E0,-4.033619771E-4,-2.408130094E-3,-1.127170473E-1,1.127434901E-1
6.775295750E0,1.960193506E-3,-3.756051883E-4,-1.078834161E-1,1.079018763E-1
6.785252750E0,6.282101385E-4,3.607440740E-4,-1.039099097E-1,1.039124349E-1
6.795208750E0,2.255401923E-4,1.226271503E-3,-1.088775024E-1,1.088846414E-1
6.805165750E0,1.054658089E-3,-5.985004827E-4,-1.139502674E-1,1.139567197E-1
6.815122750E0,1.670265337E-4,4.525687546E-3,-1.151585504E-1,1.152475661E-1
6.825078750E0,1.417289721E-3,-2.055633813E-4,-1.110255122E-1,1.110347483E-1
6.835035750E0,-1.989426091E-3,-1.574162394E-3,-1.087186858E-1,1.087482802E-1
6.844992750E0,6.901861634E-4,2.423562109E-4,-1.091898829E-1,1.091923331E-1
6.854949750E0,3.108336590E-3,-1.371785998E-3,-1.093992069E-1,1.094519531E-1
6.864905750E0,3.395423410E-4,6.260210648E-4,-1.115404218E-1,1.115426954E-1
6.874862750E0,-1.692715799E-3,1.708874479E-4,-1.109494641E-1,1.109625076E-1
6.884819750E0,-1.180743799E-3,1.858685166E-3,-1.087283418E-1,1.087506376E-1
6.894775750E0,2.344600507E-4,-1.349092461E-3,-1.093304828E-1,1.093390575E-1
6.904732750E0,3.336057416E-4,8.841259405E-4,-1.093463898E-1,1.093504729E-1
6.914689750E0,-9.252704913E-4,1.720092259E-3,-1.117818505E-1,1.117989129E-1
6.924645750E0,6.794100627E-4,5.730809644E-4,-1.156592593E-1,1.156626745E-1
6.934602750E0,-2.510984195E-4,9.981207550E-4,-1.112732962E-1,1.112780560E-1
6.944559750E0,-1.918205409E-3,-7.884046063E-4,-1.085055172E-1,1.085253351E-1
6.954516750E0,1.026718179E-3,-1.125827432E-3,-1.044540554E-1,1.044651680E-1
6.964472750E0,9.343698621E-4,3.413185477E-4,-1.050624996E-1,1.050672089E-1
6.974429750E0,1.579387463E-3,2.540557645E-3,-1.137489378E-1,1.137882672E-1
6.984386750E0,-1.805024222E-4,-2.381735481E-3,-1.156836897E-1,1.157083459E-1
6.994342750E0,-1.286513289E-3,-4.277741536E-4,-1.169995591E-1,1.170074140E-1
7.004299750E0,7.619066164E-4,2.879705280E-3,-1.142056361E-1,1.142444770E-1
7.014256750E0,1.605862286E-3,-4.367297515E-4,-1.122900248E-1,1.123023561E-1
7.024213750E0,8.286500815E-4,-3.021908924E-4,-1.051472053E-1,1.051509047E-1
7.034169750E0,3.074695123E-4,-4.491973668E-4,-1.062803790E-1,1.062817730E-1
7.044126750E0,-1.719954889E-3,-3.697415814E-4,-1.088295355E-1,1.088437539E-1
7.054083750E0,-4.855797160E-4,5.863336846E-4,-1.100980043E-1,1.101006364E-1
7.064039750E0,1.793719130E-3,-2.510788850E-3,-1.144905835E-1,1.145321580E-1
7.073996750E0,4.203269491E-4,-5.094232038E-4,-1.128327623E-1,1.128346952E-1
7.083953750E0,-1.736080274E-3,-2.698479220E-4,-1.099001989E-1,1.099142416E-1
7.093909750E0,2.831284073E-4,3.655822948E-4,-1.082996428E-1,1.083006299E-1
7.103866750E0,7.970625884E-4,-2.186782658E-4,-1.082859710E-1,1.082891252E-1
7.113823750E0,-1.499574864E-4,4.018377513E-4,-1.075570658E-1,1.075579210E-1
7.123780750E0,2.387685701E-3,1.770828851E-3,-1.117584854E-1,1.117980140E-1
7.133736750E0,-4.190198379E-4,-8.808802813E-4,-1.129459962E-1,1.129502085E-1
7.143693750E0,-2.570124809E-3,1.173403114E-3,-1.121894270E-1,1.122249970E-1
7.153650750E0,1.513592433E-4,1.491513103E-4,-1.136507019E-1,1.136509006E-1
7.163606750E0,-3.892922541E-4,3.038728610E-4,-1.119635999E-1,1.119646891E-1
7.173563750E0,-7.645316655E-4,-1.302545890E-3,-1.080242470E-1,1.080348049E-1
7.183520750E0,-8.941860870E-6,1.479608007E-3,-1.069226041E-1,1.069328415E-1
7.193476750E0,-9.629351553E-5,-8.605122566E-4,-1.104994938E-1,1.105028863E-1
7.203433750E0,1.146350987E-3,1.471722499E-4,-1.139146462E-1,1.139205091E-1
7.213390750E0,4.540022928E-5,2.312322147E-3,-1.158872470E-1,1.159103227E-1
7.223347750E0,1.302753924E-3,-5.624564365E-4,-1.112995818E-1,1.113086270E-1
7.233303750E0,-1.674926607E-3,1.366204582E-3,-1.122013256E-1,1.122221429E-1
7.243260750E0,1.095492858E-3,-1.218772493E-3,-1.115179360E-1,1.115299761E-1
7.253217750E0,-2.011350822E-3,-2.001475543E-3,-1.103259102E-1,1.103623934E-1
7.263173750E0,-5.084429868E-4,-7.322588935E-4,-1.087767482E-1,1.087804011E-1
7.273130750E0,-1.498872647E-3,-2.886489034E-3,-1.124604344E-1,1.125074564E-1
7.283087750E0,9.920269949E-4,-3.224338405E-3,-1.135060042E-1,1.135561248E-1
7.293044750E0,7.635278162E-4,5.482956767E-4,-1.180584133E-1,1.180621554E-1
7.303000750E0,-3.010828048E-3,-6.509972736E-4,-1.178349480E-1,1.178752046E-1
7.312957750E0,7.245219313E-4,-3.591151908E-4,-1.166836619E-1,1.166864639E-1
7.322914750E0,1.997977961E-4,-1.788092777E-4,-1.089693084E-1,1.089696383E-1
7.332870750E0,-1.983461669E-3,-1.162047498E-3,-1.053956151E-1,1.054206818E-1
7.342827750E0,1.912384527E-3,-6.680684164E-4,-1.044207364E-1,1.044403836E-1
7.352784750E0,1.747002359E-3,-1.616153866E-3,-1.061030552E-1,1.061297427E-1
7.362740750E0,1.381488051E-3,3.662165254E-4,-1.123878062E-1,1.123968932E-1
7.372697750E0,7.231546333E-4,1.819264144E-4,-1.149220765E-1,1.149244957E-1
7.382654750E0,-2.307012212E-3,1.277929172E-3,-1.153434962E-1,1.153736431E-1
7.392611750E0,-5.599784199E-4,-1.130899414E-3,-1.149189845E-1,1.149259131E-1
7.402567750E0,-6.093940465E-4,-6.877826527E-4,-1.098785326E-1,1.098823750E-1
7.412524750E0,1.136041712E-3,2.515139058E-4,-1.065589041E-1,1.065652565E-1
7.422481750E0,-2.348879818E-3,-6.483616307E-4,-1.034351438E-1,1.034638419E-1
7.432437750E0,-3.160890192E-4,1.270978712E-3,-1.056892425E-1,1.056973570E-1
7.442394750E0,9.619849152E-4,1.596273854E-3,-1.141057536E-1,1.141209731E-1
7.452351750E0,-5.538864061E-4,7.374044508E-4,-1.150074974E-1,1.150111951E-1
7.462308750E0,-5.562101724E-4,2.707457170E-4,-1.157839596E-1,1.157856121E-1
7.472264750E0,-1.625949517E-4,-8.585117757E-5,-1.131921709E-1,1.131923202E-1
7.482221750E0,1.170735923E-3,1.023096964E-3,-1.087249517E-1,1.087360680E-1
7.492178750E0,-8.157158736E-4,3.514476120E-4,-1.053712368E-1,1.053749802E-1
7.502134750E0,2.752803848E-4,1.533810049E-3,-1.076542810E-1,1.076655588E-1
7.512091750E0,2.464132383E-3,-3.900574520E-4,-1.058177650E-1,1.058471704E-1
7.522048750E0,-1.514411997E-4,1.057518646E-3,-1.109956950E-1,1.110008360E-1
7.532004750E0,1.815036871E-3,4.585739225E-4,-1.152663380E-1,1.152815394E-1
7.541961750E0,1.801094972E-3,8.558435366E-4,-1.158402860E-1,1.158574481E-1
7.551918750E0,-4.500751384E-4,6.939237937E-4,-1.127590090E-1,1.127620424E-1
7.561875750E0,1.319347648E-3,-6.578834727E-4,-1.048061624E-1,1.048165310E-1
7.571831750E0,-1.797457226E-4,5.610939115E-5,-1.014279425E-1,1.014281173E-1
7.581788750E0,-1.219064230E-3,1.167757437E-4,-1.047098786E-1,1.047170398E-1
7.591745750E0,1.868338324E-3,3.759013489E-4,-1.116125286E-1,1.116287979E-1
7.601701750E0,2.261687303E-3,-1.840345562E-3,-1.172828749E-1,1.173191154E-1
7.611658750E0,-6.278424989E-4,-5.159555003E-4,-1.134876087E-1,1.134905182E-1
7.621615750E0,-5.402284442E-4,-8.576205000E-4,-1.094247624E-1,1.094294567E-1
7.631572750E0,6.507371436E-4,-1.025399193E-3,-1.055069864E-1,1.055139757E-1
7.641528750E0,2.228993922E-3,2.636794932E-3,-1.023361832E-1,1.023944114E-1
7.651485750E0,-9.156665765E-4,-1.608815975E-3,-1.078300178E-1,1.078459062E-1
7.661442750E0,1.393163926E-3,1.286963001E-3,-1.140449867E-1,1.140607565E-1
7.671398750E0,1.180643681E-3,1.607118174E-4,-1.167949736E-1,1.168010514E-1
7.681355750E0,-4.402264021E-3,2.485075966E-4,-1.139805615E-1,1.140658147E-1
7.691312750E0,-7.931485306E-4,1.696734689E-3,-1.067402288E-1,1.067566600E-1
7.701268750E0,-1.304496778E-3,1.981035806E-3,-1.060444936E-1,1.060710179E-1
7.711225750E0,2.884389367E-3,-1.263760030E-3,-1.071995050E-1,1.072457489E-1
7.721182750E0,1.771335490E-3,-2.735565417E-3,-1.061114222E-1,1.061614566E-1
7.731139750E0,1.126850606E-3,-5.192831159E-4,-1.110396087E-1,1.110465405E-1
7.741095750E0,2.062417567E-3,1.010919921E-3,-1.161701903E-1,1.161928941E-1
7.751052750E0,-1.098488341E-3,-2.003245987E-3,-1.149842888E-1,1.150069839E-1
7.761009750E0,1.324549317E-3,-3.669597208E-5,-1.125517562E-1,1.125595558E-1
7.770965750E0,-6.914635887E-4,8.288025856E-5,-1.075040027E-1,1.075062584E-1
7.780922750E0,2.044660505E-3,-9.758109227E-4,-1.029083878E-1,1.029333237E-1
7.790879750E0,-1.911997795E-3,-1.115893014E-3,-1.087646782E-1,1.087872060E-1
7.800836750E0,-7.112788735E-4,-9.102048352E-4,-1.147935018E-1,1.147993138E-1
7.810792750E0,-1.564821927E-3,-1.566407271E-3,-1.204212904E-1,1.204416435E-1
7.820749750E0,-8.432981558E-4,-1.325375400E-3,-1.208712235E-1,1.208814313E-1
7.830706750E0,1.111462130E-3,-5.946038291E-4,-1.148370355E-1,1.148439534E-1
7.840662750E0,-9.549033130E-4,-2.287719399E-3,-1.058898270E-1,1.059188414E-1
7.850619750E0,-4.739364376E-4,-2.284257673E-3,-9.925003350E-2,9.927744758E-2
7.860576750E0,1.057655900E-4,5.716364831E-4,-1.000534222E-1,1.000551110E-1
7.870533750E0,2.580641303E-3,-6.880378351E-4,-1.118387058E-1,1.118705914E-1
7.880489750E0,-3.087327350E-4,-1.284956001E-3,-1.189323813E-1,1.189397231E-1
7.890446750E0,-7.505512331E-4,-6.423359737E-4,-1.208101809E-1,1.208142199E-1
7.900403750E0,-2.257762710E-3,2.990858629E-4,-1.142925695E-1,1.143152587E-1
7.910359750E0,-1.005544560E-3,1.022778451E-4,-1.056647226E-1,1.056695566E-1
7.920316750E0,5.639919546E-4,4.130592570E-4,-1.007999629E-1,1.008023870E-1
7.930273750E0,2.798326896E-4,-2.494313754E-3,-1.021496505E-1,1.021804825E-1
7.940229750E0,3.087131307E-3,1.960564405E-4,-1.088508591E-1,1.088948040E-1
7.950186750E0,2.041307976E-3,-1.215951517E-3,-1.146139354E-1,1.146385609E-1
7.960143750E0,-4.397911252E-4,-4.318393767E-4,-1.167926565E-1,1.167942829E-1
7.970100750E0,9.754127241E-4,-8.986918256E-4,-1.144679785E-1,1.144756619E-1
7.980056750E0,-3.019453725E-3,-1.709014177E-4,-1.079784930E-1,1.080208371E-1
7.990013750E0,9.055131814E-4,-2.397569828E-3,-1.053222567E-1,1.053534340E-1
7.999970750E0,-5.885241553E-4,1.140814275E-3,-1.056267023E-1,1.056345022E-1
8.009926750E0,1.523096347E-3,-5.960995331E-4,-1.112931073E-1,1.113051251E-1
8.019883750E0,-1.507498557E-3,-4.962859675E-4,-1.169647053E-1,1.169754724E-1
8.029840750E0,5.709473044E-6,-7.836408913E-4,-1.170320883E-1,1.170347121E-1
8.039797750E0,1.041641110E-3,-2.373552881E-3,-1.113362908E-1,1.113664601E-1
8.049753750E0,-1.464127097E-3,-6.494224072E-4,-1.044432297E-1,1.044555104E-1
8.059710750E0,-7.452839054E-5,-6.107939407E-4,-1.020534784E-1,1.020553334E-1
8.069667750E0,-1.842334634E-3,-2.276601270E-3,-1.027837172E-1,1.028254328E-1
8.079623750E0,8.117122343E-4,-3.573857248E-4,-1.085069701E-1,1.085105947E-1
8.089580750E0,-1.709942007E-4,-1.740631647E-3,-1.135336831E-1,1.135471543E-1
8.099537750E0,-3.915686393E-4,-3.912411630E-4,-1.166157648E-1,1.166170785E-1
8.109494750E0,-3.596106544E-4,-1.068216749E-3,-1.155952439E-1,1.156007388E-1
8.119450750E0,1.561653567E-3,6.524184719E-4,-1.106666923E-1,1.106796331E-1
8.129407750E0,4.750838852E-4,-7.737036794E-4,-1.029336751E-1,1.029376791E-1
8.139364750E0,1.326171681E-3,-1.931956038E-3,-1.019484624E-1,1.019753901E-1
8.149320750E0,3.463947214E-4,-4.523042589E-4,-1.083496362E-1,1.083511340E-1
8.159277750E0,-2.777264453E-3,-1.325964928E-3,-1.141144708E-1,1.141559627E-1
8.169234750E0,-1.447296236E-4,-9.749596938E-4,-1.182463616E-1,1.182504695E-1
8.179191750E0,-2.724076621E-3,1.589303836E-3,-1.149511561E-1,1.149944119E-1
8.189147750E0,7.769148797E-4,-8.267164230E-4,-1.139580682E-1,1.139637151E-1
8.199104750E0,1.932454063E-3,-1.066068187E-3,-1.076250002E-1,1.076476267E-1
8.209061750E0,-2.143201418E-4,3.312928602E-4,-1.079706773E-1,1.079713983E-1
8.219017750E0,-1.593098277E-3,4.292363301E-4,-1.090418249E-1,1.090543066E-1
8.228974750E0,1.957161818E-3,-3.792988136E-4,-1.136256605E-1,1.136431480E-1
8.238931750E0,-2.071216004E-4,-2.226382494E-4,-1.146446317E-1,1.146450350E-1
8.248888750E0,-1.426583040E-3,-6.154552102E-4,-1.133221015E-1,1.133327518E-1
8.258844750E0,1.613772241E-3,-3.129027784E-3,-1.099391282E-1,1.099954862E-1
8.268801750E0,-3.973273095E-3,6.217677146E-4,-1.062605083E-1,1.063365841E-1
8.278758750E0,-1.555971918E-3,-1.411562786E-3,-1.048002541E-1,1.048213090E-1
8.288714750E0,-7.226687158E-4,-2.346332185E-3,-1.091984659E-1,1.092260614E-1
8.298671750E0,8.393960888E-4,-3.555229865E-3,-1.133081689E-1,1.133670384E-1
8.308628750E0,-6.394572556E-4,-2.041645348E-5,-1.158996895E-1,1.159014553E-1
8.318585750E0,-9.689257713E-4,7.183235139E-4,-1.157631129E-1,1.157693963E-1
8.328541750E0,-2.816626802E-3,5.546305329E-5,-1.126139238E-1,1.126491558E-1
8.338498750E0,-8.334277663E-5,3.633504733E-3,-1.048330888E-1,1.048960715E-1
8.348455750E0,1.006689155E-3,-1.374569722E-3,-1.032647565E-1,1.032788110E-1
8.358411750E0,2.351519652E-5,1.493248157E-3,-1.019350365E-1,1.019459759E-1
8.368368750E0,3.865657607E-3,1.097358763E-4,-1.068706736E-1,1.069406201E-1
8.378325750E0,-5.311468849E-4,-2.516210079E-4,-1.128847227E-1,1.128862527E-1
8.388282750E0,-4.272314254E-5,-1.650579274E-3,-1.154413596E-1,1.154531669E-1
8.398238750E0,6.345704314E-4,-2.977866679E-4,-1.169167086E-1,1.169188099E-1
8.408195750E0,-1.281307545E-3,1.692660153E-3,-1.150224060E-1,1.150419955E-1
8.418152750E0,1.171682496E-3,-1.483833417E-3,-1.101425216E-1,1.101587475E-1
8.428108750E0,-1.706299372E-6,-1.294483431E-3,-1.098346561E-1,1.098422841E-1
8.438065750E0,2.740016789E-4,1.201066189E-3,-1.092055663E-1,1.092125147E-1
8.448022750E0,-9.744880954E-4,-2.338448539E-4,-1.107182428E-1,1.107227782E-1
8.457979750E0,-2.062103478E-3,2.527726814E-3,-1.100391001E-1,1.100874435E-1
8.467935750E0,1.055126544E-3,-6.789853796E-4,-1.099168584E-1,1.099240195E-1
8.477892750E0,4.074491444E-4,6.903372705E-4,-1.128641069E-1,1.128669536E-1
8.487849750E0,6.252957392E-4,2.277314663E-3,-1.129850149E-1,1.130096932E-1
8.497805750E0,9.307401488E-4,-1.164346933E-3,-1.137283742E-1,1.137381426E-1
8.507762750E0,-7.475840393E-4,-1.629334874E-3,-1.109568253E-1,1.109713057E-1
8.517719750E0,4.487804254E-4,-3.446638584E-4,-1.137439311E-1,1.137453386E-1
8.527676625E0,6.676922785E-4,5.195317790E-4,-1.125969067E-1,1.126000849E-1
8.537632625E0,3.080533352E-3,4.921657965E-4,-1.103219017E-1,1.103659998E-1
8.547589625E0,2.165696933E-4,7.203985006E-4,-1.103605181E-1,1.103630818E-1
8.557546625E0,-3.849639324E-4,-1.128890552E-3,-1.124121025E-1,1.124184299E-1
8.567502625E0,1.251548529E-3,1.282867976E-3,-1.128278226E-1,1.128420563E-1
8.577459625E0,2.594753169E-3,4.772879183E-4,-1.119319424E-1,1.119630309E-1
8.587416625E0,-2.400804544E-3,-1.589413732E-4,-1.128693745E-1,1.128950168E-1
8.597373625E0,-1.026213868E-4,9.503178298E-4,-1.101643071E-1,1.101684537E-1
8.607329625E0,5.469236057E-4,4.933187738E-4,-1.123366430E-1,1.123390576E-1
8.617286625E0,-6.926510250E-4,-6.587244570E-4,-1.120197028E-1,1.120237809E-1
8.627243625E0,1.924703596E-3,9.434325621E-4,-1.095424369E-1,1.095634064E-1
8.637199625E0,1.373570529E-3,6.814925000E-4,-1.102123111E-1,1.102229770E-1
8.647156625E0,3.132055979E-3,-1.848244108E-3,-1.098660976E-1,1.099262715E-1
8.657113625E0,1.608450082E-3,-8.487300947E-4,-1.111665741E-1,1.111814492E-1
8.667070625E0,-1.092887251E-4,-1.915859058E-3,-1.151240245E-1,1.151400168E-1
8.677026625E0,-5.818344653E-5,2.672094852E-4,-1.157135144E-1,1.157138375E-1
8.686983625E0,1.136776875E-3,1.554004848E-5,-1.147811487E-1,1.147867789E-1
8.696940625E0,8.343150257E-4,1.698611304E-3,-1.126064211E-1,1.126223221E-1
8.706896625E0,6.582800997E-4,-7.799929008E-4,-1.083751917E-1,1.083799977E-1
8.716853625E0,3.138669999E-4,-2.851057798E-4,-1.071066111E-1,1.071074505E-1
8.726810625E0,-4.525907570E-4,1.310660504E-3,-1.050687581E-1,1.050779073E-1
8.736767625E0,6.655137986E-4,1.887108199E-3,-1.091067046E-1,1.091250525E-1
8.746723625E0,9.850930655E-4,4.482017830E-4,-1.136266217E-1,1.136317757E-1
8.756680625E0,-9.922122117E-4,2.141680568E-3,-1.142885685E-1,1.143129396E-1
8.766637625E0,3.843756858E-4,3.975769505E-4,-1.147239953E-1,1.147253281E-1
8.776594625E0,-3.697007196E-4,1.521240920E-3,-1.104508191E-1,1.104619133E-1
8.786550625E0,-1.506337780E-3,-1.593586057E-5,-1.109621450E-1,1.109723702E-1
8.796507625E0,-1.455369638E-3,1.189453527E-3,-1.089093536E-1,1.089255719E-1
8.806464625E0,-1.733237877E-4,-7.959334180E-4,-1.097530425E-1,1.097560653E-1
8.816420625E0,8.672569529E-4,2.656445839E-3,-1.097903028E-1,1.098258596E-1
8.826377625E0,-7.177365478E-5,-1.044815406E-3,-1.058975533E-1,1.059027317E-1
8.836334625E0,-6.624974776E-4,1.528837718E-3,-1.054906994E-1,1.055038573E-1
8.846291625E0,-3.668866120E-4,-8.179396391E-4,-1.095211282E-1,1.095247970E-1
8.856247625E0,-7.768523647E-4,1.357763074E-3,-1.107272282E-1,1.107382774E-1
8.866204625E0,-4.301087465E-4,1.322343014E-3,-1.112302989E-1,1.112389903E-1
8.876161625E0,2.138683572E-3,1.288683154E-3,-1.159669682E-1,1.159938464E-1
8.886117625E0,5.756743485E-4,-3.353124484E-4,-1.132689193E-1,1.132708785E-1
8.896074625E0,9.699790389E-4,8.571529761E-4,-1.109724194E-1,1.109799686E-1
8.906031625E0,-4.521792289E-5,-7.511293516E-4,-1.107654870E-1,1.107680430E-1
8.915988625E0,2.251907717E-3,-1.992290840E-3,-1.077005193E-1,1.077424808E-1
8.925944625E0,1.972275786E-3,-2.514803782E-3,-1.096384972E-1,1.096850682E-1
8.935901625E0,-1.083594048E-3,1.101940870E-5,-1.106734648E-1,1.106787699E-1
8.945858625E0,-3.751931945E-4,-6.686197594E-4,-1.135334298E-1,1.135360185E-1
8.955814625E0,-1.922994852E-4,4.813475534E-4,-1.140566468E-1,1.140578246E-1
8.965771625E0,1.161385328E-3,-1.317617483E-3,-1.125636771E-1,1.125773793E-1
8.975728625E0,1.990003511E-5,9.602792561E-4,-1.063430905E-1,1.063474280E-1
8.985685625E0,4.942090018E-4,-5.052583292E-4,-1.049776822E-1,1.049800614E-1
8.995641625E0,2.136162366E-4,2.598399296E-4,-1.061972231E-1,1.061977558E-1
9.005598625E0,-1.624231227E-3,3.986246884E-5,-1.105871797E-1,1.105991140E-1
9.015555625E0,8.646113565E-4,1.602542587E-3,-1.118744984E-1,1.118893163E-1
9.025512625E0,-9.455392137E-4,-1.282459125E-4,-1.125085950E-1,1.125126412E-1
9.035468625E0,-3.722654656E-4,-6.114169955E-4,-1.105759665E-1,1.105782835E-1
9.045425625E0,3.771480988E-4,5.073770881E-4,-1.090382636E-1,1.090400963E-1
9.055382625E0,7.533896132E-4,2.802737057E-3,-1.057156175E-1,1.057554477E-1
9.065338625E0,1.762825996E-4,1.538268290E-3,-1.066650376E-1,1.066762747E-1
9.075295625E0,9.434520034E-4,-4.375679418E-4,-1.090618819E-1,1.090668403E-1
9.085252625E0,-1.301060198E-3,8.045304567E-4,-1.109103784E-1,1.109209271E-1
9.095209625E0,-2.881995402E-3,1.988914795E-3,-1.105821580E-1,1.106375856E-1
9.105165625E0,1.142616384E-6,1.132708043E-3,-1.116221249E-1,1.116278720E-1
9.115122625E0,2.336978447E-3,-1.367973164E-4,-1.095516384E-1,1.095766474E-1
9.125079625E0,-1.136050094E-3,2.237940207E-4,-1.072895452E-1,1.072957931E-1
9.135035625E0,3.197732149E-3,3.892714158E-4,-1.074788272E-1,1.075270911E-1
9.144992625E0,7.729239878E-4,-1.706901938E-3,-1.082391590E-1,1.082553761E-1
9.154949625E0,1.412733691E-4,-3.177069128E-3,-1.069013327E-1,1.069486263E-1
9.164906625E0,-5.873675691E-4,1.598778181E-3,-1.124407053E-1,1.124536051E-1
9.174862625E0,-2.666508313E-3,-4.945974797E-5,-1.142059714E-1,1.142371070E-1
9.184819625E0,1.945021562E-3,-1.178906299E-3,-1.133644134E-1,1.133872266E-1
9.194776625E0,7.312804228E-4,6.275242195E-4,-1.125788987E-1,1.125830226E-1
9.204733625E0,2.340894891E-3,7.486976683E-4,-1.109615564E-1,1.109887712E-1
9.214689625E0,-1.687648823E-3,-1.097717322E-3,-1.083837748E-1,1.084024712E-1
9.224646625E0,1.390698948E-3,-1.522757113E-3,-1.078569964E-1,1.078767097E-1
9.234603625E0,2.667802386E-3,7.095420733E-4,-1.097393259E-1,1.097740419E-1
9.244559625E0,-8.036282379E-4,1.678550616E-4,-1.074125245E-1,1.074156619E-1
9.254516625E0,-4.864709917E-4,3.363657743E-5,-1.090139747E-1,1.090150653E-1
9.264473625E0,-3.117675660E-4,6.053503603E-5,-1.086358055E-1,1.086362698E-1
9.274430625E0,-5.603745813E-4,-3.242800012E-4,-1.132323444E-1,1.132341953E-1
9.284386625E0,1.181332744E-3,-6.071077660E-4,-1.176968664E-1,1.177043605E-1
9.294343625E0,1.091943239E-3,3.101111390E-3,-1.142161712E-1,1.142634806E-1
9.304300625E0,1.262119156E-3,2.978676930E-4,-1.112065315E-1,1.112140923E-1
9.314256625E0,-5.732487189E-4,9.974846616E-4,-1.045217514E-1,1.045280829E-1
9.324213625E0,1.952493330E-3,-5.575353280E-4,-1.036466360E-1,1.036665242E-1
9.334170625E0,6.497634458E-4,-5.519948900E-6,-1.075377166E-1,1.075396797E-1
9.344127625E0,1.149372431E-3,-1.325649209E-3,-1.112158075E-1,1.112296464E-1
9.354083625E0,5.550658680E-4,-9.928261861E-4,-1.158294901E-1,1.158350749E-1
9.364040625E0,-1.274792012E-3,1.156345010E-3,-1.153863370E-1,1.153991725E-1
9.373997625E0,-1.650820486E-3,-2.725450322E-4,-1.133647338E-1,1.133770803E-1
9.383954625E0,-7.440140471E-4,-3.351299092E-4,-1.100432426E-1,1.100462680E-1
9.393910625E0,6.712826435E-4,-6.720945239E-4,-1.079584956E-1,1.079626746E-1
9.403867625E0,-1.354317646E-3,-3.453437239E-5,-1.072309166E-1,1.072394743E-1
9.413824625E0,8.487825980E-4,-1.877056435E-3,-1.080093831E-1,1.080290267E-1
9.423780625E0,-6.545718061E-4,2.437264659E-3,-1.074996516E-1,1.075292696E-1
9.433737625E0,1.084002899E-3,-1.229484566E-3,-1.072062701E-1,1.072187999E-1
9.443694625E0,-1.607586164E-4,-2.372780815E-3,-1.087770015E-1,1.088029962E-1
9.453651625E0,5.779174389E-4,-2.543045208E-3,-1.124262512E-1,1.124564939E-1
9.463607625E0,-5.777913611E-5,-1.186696813E-3,-1.119024083E-1,1.119087154E-1
9.473564625E0,3.265285864E-3,1.503000967E-3,-1.120950803E-1,1.121527001E-1
9.483521625E0,-9.869574569E-6,5.354741588E-4,-1.126524806E-1,1.126537537E-1
9.493478625E0,8.364049718E-4,7.952982560E-4,-1.145504564E-1,1.145562706E-1
9.503434625E0,-1.014758367E-3,-7.171109319E-4,-1.104297489E-1,1.104367395E-1
9.513391625E0,2.408256754E-3,1.139445230E-4,-1.118135676E-1,1.118395573E-1
9.523348667E0,-1.421102788E-3,1.731015742E-3,-1.114180908E-1,1.114405981E-1
9.533304667E0,-1.751220552E-4,5.783140659E-4,-1.118290797E-1,1.118307121E-1
9.543261667E0,-1.510164700E-3,-7.870886475E-4,-1.113739461E-1,1.113869650E-1
9.553218667E0,3.050001804E-3,7.539903745E-4,-1.079965755E-1,1.080422664E-1
9.563175667E0,-2.366054105E-4,-1.079595648E-3,-1.096152514E-1,1.096208231E-1
9.573131667E0,-1.321908785E-4,-1.584950835E-3,-1.119957194E-1,1.120070118E-1
9.583088667E0,3.470267169E-3,2.291947603E-4,-1.126987934E-1,1.127524426E-1
9.593045667E0,5.641113385E-4,1.439722255E-4,-1.134679466E-1,1.134694402E-1
9.603002667E0,-1.338983653E-3,1.337069087E-3,-1.134327948E-1,1.134485768E-1
9.612958667E0,-2.016082872E-4,2.028802410E-4,-1.121347845E-1,1.121351492E-1
9.622915667E0,-2.863171510E-3,2.510836348E-4,-1.095999777E-1,1.096376574E-1
9.632872667E0,9.066318162E-4,1.465762034E-3,-1.065135300E-1,1.065274731E-1
9.642828667E0,-3.431895748E-4,5.874512717E-4,-1.049499884E-1,1.049521936E-1
9.652785667E0,2.155510709E-3,1.582605764E-3,-1.043372676E-1,1.043715300E-1
9.662742667E0,2.455116482E-3,1.635336317E-3,-1.093653142E-1,1.094050907E-1
9.672699667E0,1.751202391E-3,-5.623083562E-4,-1.137156114E-1,1.137304848E-1
9.682655667E0,7.713935338E-5,-3.063781187E-4,-1.159550622E-1,1.159554926E-1
9.692612667E0,1.338309492E-3,1.273200847E-3,-1.148304343E-1,1.148452905E-1
9.702569667E0,-1.602352946E-3,-2.708993852E-4,-1.107499301E-1,1.107618524E-1
9.712526667E0,2.698527183E-3,-1.222478226E-3,-1.055450663E-1,1.055866351E-1
9.722482667E0,-2.009941498E-3,1.018571667E-3,-1.071323082E-1,1.071560022E-1
9.732439667E0,1.254204311E-3,1.167440787E-3,-1.069519594E-1,1.069656841E-1
9.742396667E0,5.029266467E-4,1.540283673E-3,-1.095743775E-1,1.095863569E-1
9.752352667E0,-2.214835025E-3,-3.235349432E-4,-1.114903092E-1,1.115127761E-1
9.762309667E0,6.722979015E-4,-2.114158124E-4,-1.140962243E-1,1.140984009E-1
9.772266667E0,-2.623097738E-3,1.868610270E-3,-1.146176532E-1,1.146628919E-1
9.782223667E0,1.142345602E-3,-2.193775028E-3,-1.093456596E-1,1.093736297E-1
9.792179667E0,3.681020462E-4,-2.092077397E-3,-1.067135185E-1,1.067346585E-1
9.802136667E0,7.808919763E-4,-8.590333164E-4,-1.125458404E-1,1.125518278E-1
9.812093667E0,-1.343172975E-3,1.132517122E-3,-1.127177551E-1,1.127314465E-1
9.822050667E0,-6.201246288E-4,-2.685720101E-4,-1.164182201E-1,1.164201815E-1
9.832006667E0,-5.782089429E-4,2.699485049E-4,-1.141667664E-1,1.141685497E-1
9.841963667E0,-6.716859061E-4,6.568338722E-5,-1.098609716E-1,1.098630445E-1
9.851920667E0,2.077542013E-3,-4.290435463E-4,-1.076859832E-1,1.077068764E-1
9.861876667E0,1.231189352E-3,1.126434654E-4,-1.076609641E-1,1.076680626E-1
9.871833667E0,1.307276427E-3,-5.059167743E-4,-1.123150736E-1,1.123238206E-1
9.881790667E0,-1.108568395E-4,7.215337828E-4,-1.136983186E-1,1.137006621E-1
9.891747667E0,-1.433021855E-3,-2.787094563E-4,-1.172203720E-1,1.172294623E-1
9.901703667E0,4.777962458E-4,-8.832477033E-4,-1.162722856E-1,1.162766219E-1
9.911660667E0,4.043125082E-4,-1.712430269E-3,-1.111017466E-1,1.111156783E-1
9.921617667E0,5.228231894E-4,-6.266599521E-4,-1.059495956E-1,1.059527387E-1
9.931574667E0,-1.220015809E-3,1.463312656E-4,-1.052397713E-1,1.052469444E-1
9.941530667E0,-5.180063890E-4,-4.345048219E-4,-1.058866531E-1,1.058888116E-1
9.951487667E0,-1.067277277E-3,3.920923918E-4,-1.123846248E-1,1.123903764E-1
9.961444667E0,2.461869735E-5,6.157979369E-4,-1.161577925E-1,1.161594274E-1
9.971400667E0,-1.258038566E-3,5.252035335E-4,-1.163598001E-1,1.163677858E-1
9.981357667E0,-5.368544953E-4,-5.946559832E-4,-1.115940735E-1,1.115969492E-1
9.991314667E0,-4.516277695E-4,6.903037429E-4,-1.066782475E-1,1.066814368E-1
1.000127167E1,6.330776960E-4,1.246482134E-4,-1.067586839E-1,1.067606337E-1
1.001122767E1,-1.528420602E-3,-9.532226250E-4,-1.063237637E-1,1.063390212E-1
1.002118467E1,-6.791384658E-4,-6.711939350E-4,-1.075267047E-1,1.075309441E-1
1.003114167E1,1.260993653E-3,2.288659103E-3,-1.127456874E-1,1.127759641E-1
1.004109867E1,-1.593115972E-3,-2.169738524E-3,-1.131259874E-1,1.131580081E-1
1.005105467E1,-1.330365194E-4,-2.319347113E-4,-1.099733263E-1,1.099736514E-1
1.006101167E1,9.862901643E-4,6.580725312E-5,-1.082151085E-1,1.082196230E-1
1.007096867E1,-1.760650310E-3,-4.631010816E-4,-1.091240793E-1,1.091392645E-1
1.008092567E1,2.168843988E-3,-5.246205255E-4,-1.070073992E-1,1.070306619E-1
1.009088167E1,4.353665281E-5,-3.605782986E-4,-1.101931259E-1,1.101937245E-1
1.010083867E1,-7.434274303E-4,-1.266052946E-3,-1.125297844E-1,1.125393618E-1
1.011079567E1,-8.203185862E-4,-9.754355997E-4,-1.121537536E-1,1.121609952E-1
1.012075167E1,-1.784116612E-3,3.177206963E-5,-1.160835102E-1,1.160972240E-1
1.013070867E1,-2.663913183E-3,3.517316654E-4,-1.163702309E-1,1.164012491E-1
1.014066567E1,-1.082794508E-3,8.478788659E-4,-1.159182936E-1,1.159264514E-1
1.015062267E1,6.905830815E-4,1.584213227E-3,-1.105656847E-1,1.105791901E-1
1.016057867E1,-4.242161522E-4,-4.946505651E-4,-1.084886864E-1,1.084906434E-1
1.017053567E1,1.621042727E-3,1.320857555E-3,-1.062605828E-1,1.062811550E-1
1.018049267E1,-8.870661259E-5,4.481393844E-4,-1.117821112E-1,1.117830447E-1
1.019044967E1,-1.678561675E-3,7.468089461E-5,-1.133775935E-1,1.133900430E-1
1.020040567E1,-2.909474541E-3,7.015885785E-4,-1.139802635E-1,1.140195498E-1
1.021036267E1,2.461540047E-3,-4.001352936E-4,-1.115218103E-1,1.115496905E-1
1.022031967E1,1.003814396E-4,-1.649689861E-3,-1.073760688E-1,1.073887876E-1
1.023027667E1,-5.342799705E-4,2.267714590E-4,-1.041473821E-1,1.041489994E-1
1.024023267E1,5.055021029E-5,-4.993099719E-5,-1.047830805E-1,1.047831046E-1
1.025018967E1,-2.883018460E-3,-4.950072616E-4,-1.044992134E-1,1.045401474E-1
1.026014667E1,-2.671030816E-3,1.381190494E-3,-1.104636267E-1,1.105045470E-1
1.027010267E1,8.154287934E-4,-7.679825649E-4,-1.189741120E-1,1.189793849E-1
1.028005967E1,-2.569449134E-3,1.379057765E-3,-1.157088131E-1,1.157455541E-1
1.029001667E1,-2.672503470E-3,-3.393093124E-3,-1.121242568E-1,1.122074165E-1
1.029997367E1,-7.920453791E-4,-1.574687660E-3,-1.075212434E-1,1.075356906E-1
1.030992967E1,5.961036077E-4,1.395614818E-3,-1.066355780E-1,1.066463763E-1
1.031988667E1,-6.031178636E-4,8.555259556E-4,-1.050014645E-1,1.050066818E-1
1.032984367E1,-2.276925370E-4,-9.647039697E-4,-1.088420749E-1,1.088465882E-1
1.033980067E1,2.690567635E-5,5.431780592E-4,-1.096713841E-1,1.096727325E-1
1.034975667E1,-8.772115689E-5,-3.446321934E-4,-1.113813668E-1,1.113819346E-1
1.035971367E1,4.891195567E-4,7.877442986E-4,-1.082204580E-1,1.082244303E-1
1.036967067E1,2.061307896E-4,3.266222775E-4,-1.057743207E-1,1.057750258E-1
1.037962667E1,1.331791282E-5,3.838799894E-4,-1.062773913E-1,1.062780854E-1
1.038958367E1,-8.180157747E-4,1.284013502E-3,-1.114193723E-1,1.114297732E-1
1.039954067E1,-2.600835869E-4,-1.694998704E-3,-1.096931174E-1,1.097065207E-1
1.040949767E1,-1.508696005E-5,1.396942884E-3,-1.119749248E-1,1.119836393E-1
1.041945367E1,8.208792424E-4,-9.399810806E-4,-1.129432470E-1,1.129501414E-1
1.042941067E1,1.246422529E-3,1.575683244E-3,-1.112092212E-1,1.112273672E-1
1.043936767E1,1.601191470E-4,2.744011581E-3,-1.119743511E-1,1.120080825E-1
1.044932467E1,8.084705332E-4,-1.239247620E-3,-1.105497777E-1,1.105596794E-1
1.045928067E1,9.410959901E-4,-2.956902608E-4,-1.068543792E-1,1.068589324E-1
1.046923767E1,1.601101365E-3,-7.718047127E-4,-1.100467965E-1,1.100611495E-1
1.047919467E1,2.622690052E-3,-2.153452486E-3,-1.117264554E-1,1.117779795E-1
1.048915167E1,-3.957515582E-3,1.374706626E-4,-1.114765778E-1,1.115468880E-1
1.049910767E1,-5.518540274E-5,-2.604722977E-5,-1.115498170E-1,1.115498337E-1
1.050906467E1,5.340034259E-4,1.428315416E-3,-1.106251776E-1,1.106356867E-1
1.051902167E1,-4.553609760E-4,2.394510433E-3,-1.057529300E-1,1.057810155E-1
1.052897854E1,-5.322267534E-4,-1.419559121E-3,-1.076259464E-1,1.076366237E-1
1.053893454E1,-2.169876825E-5,-7.942495868E-4,-1.086344868E-1,1.086373924E-1
1.054889154E1,3.719348460E-4,-1.765212044E-3,-1.101111695E-1,1.101259459E-1
1.055884854E1,-9.734941414E-4,-7.990179583E-4,-1.117080003E-1,1.117150995E-1
1.056880454E1,2.931336407E-3,7.227817550E-4,-1.119507328E-1,1.119914359E-1
1.057876154E1,5.134526291E-4,-6.625950336E-4,-1.106572375E-1,1.106604124E-1
1.058871854E1,-4.047102993E-4,7.172962651E-4,-1.077958569E-1,1.077990031E-1
1.059867554E1,2.273630816E-3,2.133565955E-3,-1.119083092E-1,1.119517359E-1
1.060863154E1,-6.892244564E-4,-1.064498909E-3,-1.110474467E-1,1.110546875E-1
1.061858854E1,-1.403470524E-4,-3.451798111E-4,-1.119460016E-1,1.119466218E-1
1.062854554E1,9.232978337E-4,-3.332085907E-4,-1.119151711E-1,1.119194757E-1
1.063850254E1,6.096635479E-5,1.045510173E-3,-1.101457700E-1,1.101507488E-1
1.064845854E1,1.107676420E-3,1.486316323E-4,-1.085860804E-1,1.085918316E-1
1.065841554E1,-6.034045946E-4,-4.721516743E-4,-1.130106598E-1,1.130132570E-1
1.066837254E1,7.248019683E-4,1.256359741E-3,-1.131905392E-1,1.131998319E-1
1.067832954E1,-2.126112115E-3,-7.583219558E-4,-1.125031784E-1,1.125258217E-1
1.068828554E1,9.558193851E-4,-1.979814842E-4,-1.092155725E-1,1.092199343E-1
1.069824254E1,-6.039941218E-4,-5.292780697E-4,-1.060104519E-1,1.060134938E-1
1.070819954E1,1.867749845E-3,2.578998916E-3,-1.033581793E-1,1.034072191E-1
1.071815654E1,-1.040688483E-3,-1.276992261E-3,-1.015450954E-1,1.015584568E-1
1.072811254E1,-1.586098457E-3,3.059282899E-4,-1.073342189E-1,1.073463733E-1
1.073806954E1,-1.402606489E-3,-8.155293763E-4,-1.119263098E-1,1.119380686E-1
1.074802654E1,1.852647401E-3,-2.285685390E-3,-1.128945723E-1,1.129329054E-1
1.075798254E1,-6.158365868E-4,-1.606579870E-3,-1.153944805E-1,1.154073069E-1
1.076793954E1,-1.425403636E-3,-2.257891931E-3,-1.131714061E-1,1.132029019E-1
1.077789654E1,8.816928021E-4,-2.546044998E-3,-1.139887348E-1,1.140205744E-1
1.078785354E1,-1.707486925E-3,1.518649049E-3,-1.104969755E-1,1.105206017E-1
1.079780954E1,5.604610778E-4,-4.507582635E-4,-1.063949093E-1,1.063973403E-1
1.080776654E1,4.741004668E-3,3.967862576E-4,-1.058602408E-1,1.059670946E-1
1.081772354E1,1.152395387E-3,-5.755331367E-4,-1.059814170E-1,1.059892448E-1
1.082768054E1,-4.567687865E-4,2.831924707E-3,-1.109393686E-1,1.109764477E-1
1.083763654E1,4.734733957E-4,2.558950335E-3,-1.111095473E-1,1.111400194E-1
1.084759354E1,8.295732550E-4,-1.864398830E-3,-1.161760166E-1,1.161939371E-1
1.085755054E1,-1.259676646E-3,-1.212723553E-3,-1.127136424E-1,1.127272047E-1
1.086750754E1,4.953937605E-5,-1.723086461E-4,-1.104310006E-1,1.104311461E-1
1.087746354E1,-2.287608804E-4,-9.241327643E-5,-1.109559089E-1,1.109561832E-1
1.088742054E1,-2.510383725E-3,-2.049943432E-4,-1.069345400E-1,1.069641991E-1
1.089737754E1,9.906077757E-4,-1.067059115E-3,-1.083292365E-1,1.083390207E-1
1.090733454E1,1.942358911E-3,-8.669905365E-4,-1.104431078E-1,1.104635890E-1
1.091729054E1,-1.858238364E-3,-6.779059768E-4,-1.113214195E-1,1.113389916E-1
1.092724754E1,5.068280152E-4,-1.342087053E-3,-1.145798862E-1,1.145888668E-1
1.093720454E1,1.348120626E-3,1.245439984E-3,-1.140970588E-1,1.141118196E-1
1.094716154E1,6.880424917E-4,1.903273165E-3,-1.091042161E-1,1.091229848E-1
1.095711754E1,-9.306264110E-5,7.740966976E-5,-1.092331111E-1,1.092331782E-1
1.096707454E1,5.361235701E-3,1.224919222E-3,-1.126422361E-1,1.127764010E-1
1.097703154E1,-1.084945165E-3,-7.310602814E-5,-1.141546518E-1,1.141598308E-1
1.098698754E1,-1.440503867E-3,2.720691264E-3,-1.164117083E-1,1.164524068E-1
1.099694454E1,1.479119761E-3,-3.247719258E-3,-1.123945937E-1,1.124512346E-1
1.100690154E1,-4.116760101E-4,-7.692957297E-4,-1.075000539E-1,1.075035948E-1
1.101685854E1,-1.301970799E-3,-2.166655846E-3,-1.059628725E-1,1.059930180E-1
1.102681454E1,-1.031529391E-3,6.582988426E-4,-1.046645492E-1,1.046717024E-1
1.103677154E1,8.790222928E-4,-9.971214458E-4,-1.089011058E-1,1.089092181E-1
1.104672854E1,2.110964851E-4,-9.064953774E-4,-1.173287556E-1,1.173324472E-1
1.105668554E1,-7.841266925E-4,-2.012506127E-3,-1.143279076E-1,1.143483077E-1
1.106664154E1,-2.407701220E-3,8.556619287E-5,-1.106564477E-1,1.106826715E-1
1.107659854E1,2.308490686E-3,-4.044547677E-4,-1.045878977E-1,1.046141532E-1
1.108655554E1,1.365669887E-3,1.488057896E-4,-1.076058373E-1,1.076146060E-1
1.109651254E1,-1.020256081E-3,-1.209139824E-3,-1.118671596E-1,1.118783462E-1
1.110646854E1,-1.543639228E-4,7.809428498E-4,-1.122458279E-1,1.122486507E-1
1.111642554E1,1.383877941E-3,-2.051595598E-3,-1.136005744E-1,1.136275260E-1
1.112638254E1,-4.916719627E-5,2.664342523E-3,-1.130365655E-1,1.130679719E-1
1.113633954E1,1.368699712E-3,1.294678077E-3,-1.081672385E-1,1.081836449E-1
1.114629554E1,-7.160505047E-4,5.120476708E-4,-1.084345579E-1,1.084381311E-1
1.115625254E1,-1.667065197E-3,-2.224350348E-3,-1.108186170E-1,1.108534741E-1
1.116620954E1,-7.348404033E-4,-3.002407029E-4,-1.137497276E-1,1.137524974E-1
1.117616654E1,-2.021679655E-3,7.463814691E-4,-1.143971458E-1,1.144174429E-1
1.118612254E1,2.236254979E-3,1.467003487E-3,-1.100695133E-1,1.101020013E-1
1.119607954E1,-1.239436679E-3,-6.550038233E-4,-1.089227572E-1,1.089317781E-1
1.120603654E1,-9.956876747E-4,7.674470544E-5,-1.055786610E-1,1.055833838E-1
1.121599354E1,-4.441470373E-4,-1.717694104E-3,-1.071597785E-1,1.071744646E-1
1.122594954E1,-3.912904067E-4,-1.251554117E-3,-1.085603237E-1,1.085682430E-1
1.123590654E1,-3.484134795E-4,1.278448850E-3,-1.143497676E-1,1.143574447E-1
1.124586354E1,1.387772500E-3,-1.078650355E-3,-1.160890013E-1,1.161023067E-1
1.125582054E1,-6.064025220E-4,7.083304226E-4,-1.135470197E-1,1.135508482E-1
1.126577654E1,4.196224734E-3,5.532046780E-4,-1.095139235E-1,1.095956832E-1
1.127573354E1,1.934402157E-3,3.240334801E-3,-1.095064729E-1,1.095714803E-1
1.128569054E1,-9.626374813E-4,3.493204713E-4,-1.083294004E-1,1.083342406E-1
1.129564654E1,-5.429232260E-4,1.987697557E-3,-1.065325588E-1,1.065524837E-1
1.130560354E1,-2.223049523E-4,5.389191210E-5,-1.110662147E-1,1.110664503E-1
1.131556054E1,6.318592932E-5,2.360988408E-3,-1.129871532E-1,1.130118359E-1
1.132551754E1,6.375876837E-4,6.034569815E-4,-1.130809709E-1,1.130843785E-1
1.133547354E1,-2.268719953E-3,-2.897679806E-4,-1.095802486E-1,1.096041146E-1
1.134543054E1,2.461080439E-3,1.294374466E-3,-1.106322333E-1,1.106671739E-1
1.135538754E1,2.830460668E-3,1.318076625E-3,-1.105099916E-1,1.105540912E-1
1.136534454E1,1.855190261E-3,2.402178943E-3,-1.102911383E-1,1.103328935E-1
1.137530054E1,-1.851930050E-3,-2.178391442E-4,-1.083811224E-1,1.083971622E-1
1.138525754E1,9.240207728E-4,5.010953173E-4,-1.140783951E-1,1.140832377E-1
1.139521454E1,-1.455047168E-4,2.736616880E-4,-1.145164818E-1,1.145169012E-1
1.140517154E1,-3.976785811E-4,1.346400008E-3,-1.162512600E-1,1.162597368E-1
1.141512754E1,-1.257879660E-3,3.589000553E-4,-1.106319875E-1,1.106397203E-1
1.142508454E1,-3.923826152E-4,-1.015448943E-4,-1.067493707E-1,1.067501401E-1
1.143504154E1,-7.974493783E-4,-3.502843902E-4,-1.037360057E-1,1.037396622E-1
1.144499854E1,-4.936462501E-4,-1.175773330E-3,-1.064789742E-1,1.064866099E-1
1.145495454E1,-6.933833938E-4,1.570744440E-3,-1.112785190E-1,1.112917644E-1
1.146491154E1,-3.854490351E-4,1.019402407E-3,-1.145893484E-1,1.145945310E-1
1.147486854E1,9.312096518E-5,4.923632368E-4,-1.167092249E-1,1.167103006E-1
1.148482554E1,-8.047595620E-4,2.541454509E-3,-1.139709651E-1,1.140021382E-1
1.149478154E1,-2.058309503E-3,1.657552086E-3,-1.102380082E-1,1.102696811E-1
1.150473854E1,1.509971917E-4,1.067481004E-3,-1.082315445E-1,1.082369139E-1
1.151469554E1,-1.273031812E-4,-3.376044333E-6,-1.103189364E-1,1.103190099E-1
1.152465275E1,6.938504521E-5,9.040581062E-4,-1.063320562E-1,1.063359220E-1
1.153460875E1,9.745935095E-4,1.059054397E-3,-1.132501513E-1,1.132592963E-1
1.154456575E1,4.812580883E-4,6.033005193E-4,-1.169291288E-1,1.169316755E-1
1.155452275E1,-3.592786379E-5,3.212718293E-4,-1.142505184E-1,1.142509757E-1
1.156447975E1,-5.477257073E-4,6.553037092E-4,-1.126200408E-1,1.126232792E-1
1.157443575E1,-2.807950368E-3,-1.824631356E-3,-1.087949425E-1,1.088464670E-1
1.158439275E1,2.014891943E-3,-6.205905229E-4,-1.075722128E-1,1.075928710E-1
1.159434975E1,-1.792363008E-3,-6.320420653E-4,-1.084862128E-1,1.085028590E-1
1.160430675E1,-1.550591085E-3,-1.187918708E-3,-1.100314483E-1,1.100487851E-1
1.161426275E1,-2.685896819E-3,-7.772594690E-4,-1.104871109E-1,1.105224857E-1
1.162421975E1,-2.036592923E-3,2.223933116E-4,-1.130705103E-1,1.130890688E-1
1.163417675E1,1.230839407E-3,-1.455398276E-3,-1.109426469E-1,1.109590197E-1
1.164413375E1,2.866155119E-4,3.093946725E-4,-1.119178608E-1,1.119186555E-1
1.165408975E1,-2.869496820E-3,2.710456029E-4,-1.103942618E-1,1.104318818E-1
1.166404675E1,1.215963624E-3,-3.739828244E-4,-1.144018173E-1,1.144088906E-1
1.167400375E1,-3.876000410E-3,-1.884793863E-3,-1.162700281E-1,1.163498829E-1
1.168396075E1,-9.374965448E-4,3.454964608E-4,-1.157018766E-1,1.157061905E-1
1.169391675E1,-3.872874659E-4,-1.642331481E-4,-1.090349182E-1,1.090357297E-1
1.170387375E1,9.221187793E-4,-3.741607070E-4,-1.071796119E-1,1.071842316E-1
1.171383075E1,-6.153241266E-4,-1.848097891E-4,-1.067974493E-1,1.067993818E-1
1.172378775E1,2.281116555E-3,-3.187988885E-3,-1.113963872E-1,1.114653392E-1
1.173374375E1,5.340829375E-4,5.723955110E-4,-1.136768535E-1,1.136795492E-1
1.174370075E1,2.399837831E-3,1.067136414E-3,-1.175425574E-1,1.175718963E-1
1.175365775E1,-6.734500639E-4,8.836453781E-4,-1.195758805E-1,1.195810418E-1
1.176361475E1,-7.862785133E-4,1.816404983E-4,-1.166774184E-1,1.166802090E-1
1.177357075E1,2.880894113E-3,6.636725739E-4,-1.123977229E-1,1.124365960E-1
1.178352775E1,9.014366660E-4,6.898120046E-5,-1.098041087E-1,1.098078305E-1
1.179348475E1,2.090147464E-4,-1.230323687E-4,-1.074496061E-1,1.074498798E-1
1.180344175E1,9.349073516E-4,1.659959555E-3,-1.073919162E-1,1.074088134E-1
1.181339775E1,7.071159780E-5,8.721956983E-4,-1.096825078E-1,1.096859984E-1
1.182335475E1,1.432127669E-3,1.639034599E-5,-1.131438091E-1,1.131528736E-1
1.183331175E1,-2.101354534E-3,-1.200940460E-3,-1.137637869E-1,1.137895300E-1
1.184326875E1,-2.746373881E-3,-3.118747845E-4,-1.121820062E-1,1.122160521E-1
1.185322475E1,-2.991951769E-4,-7.763300091E-4,-1.108072847E-1,1.108104081E-1
1.186318175E1,2.352879383E-4,-7.641855627E-4,-1.087470502E-1,1.087499897E-1
1.187313875E1,-4.619277315E-4,-2.272600308E-3,-1.081161499E-1,1.081410189E-1
1.188309575E1,2.713366412E-3,5.877064541E-4,-1.081507802E-1,1.081864086E-1
1.189305175E1,1.719208201E-3,-1.972390339E-3,-1.107367054E-1,1.107676122E-1
1.190300875E1,-1.307036728E-4,-1.612780616E-4,-1.138329357E-1,1.138331250E-1
1.191296575E1,3.380940529E-3,1.460509375E-4,-1.165315211E-1,1.165806480E-1
1.192292275E1,1.498565427E-3,-2.109620720E-3,-1.145003214E-1,1.145295587E-1
1.193287875E1,6.942907930E-4,-8.661905304E-4,-1.111351550E-1,1.111406991E-1
1.194283575E1,3.703526454E-4,-5.632713437E-4,-1.073640734E-1,1.073661897E-1
1.195279275E1,-2.622507745E-3,-2.524806187E-4,-1.072964296E-1,1.073287710E-1
1.196274975E1,-4.665799206E-4,9.986916557E-4,-1.116333753E-1,1.116388174E-1
1.197270575E1,4.804402124E-4,-2.601845190E-4,-1.133583039E-1,1.133596206E-1
1.198266275E1,-3.004418686E-4,-8.890805766E-4,-1.146502197E-1,1.146540606E-1
1.199261975E1,-2.154870890E-4,-1.884037629E-3,-1.114432365E-1,1.114593692E-1
1.200257675E1,7.585537387E-4,-2.311177552E-3,-1.057016030E-1,1.057295882E-1
1.201253275E1,1.786267618E-3,-2.395599149E-3,-1.045364663E-1,1.045791683E-1
1.202248975E1,-2.029854804E-4,9.021898732E-4,-1.055570245E-1,1.055610751E-1
1.203244675E1,1.244708896E-3,1.482479274E-5,-1.101722792E-1,1.101793112E-1
1.204240375E1,-5.430728197E-5,7.257526740E-4,-1.171193942E-1,1.171216554E-1
1.205235975E1,-1.339548966E-3,-2.075626515E-3,-1.210760549E-1,1.211012538E-1
1.206231675E1,-3.707735799E-3,-7.597533986E-4,-1.142730266E-1,1.143356862E-1
1.207227375E1,-2.144672908E-4,1.028450206E-4,-1.089147478E-1,1.089150075E-1
1.208223075E1,-1.817123266E-4,-3.422303125E-4,-1.020083502E-1,1.020090861E-1
1.209218675E1,1.214849413E-3,1.231963746E-3,-1.007177830E-1,1.007326432E-1
1.210214375E1,2.223956399E-3,-6.334148347E-4,-1.070844010E-1,1.071093652E-1
1.211210075E1,1.756038982E-3,-2.081641927E-3,-1.165950745E-1,1.166268765E-1
1.212205775E1,-1.696983818E-3,3.604246303E-4,-1.176011711E-1,1.176139665E-1
1.213201375E1,-5.582161248E-4,-1.553854905E-3,-1.129094809E-1,1.129215522E-1
1.214197075E1,9.678478818E-5,6.790859625E-4,-1.090938896E-1,1.090960461E-1
1.215192775E1,6.469939253E-4,1.658946276E-4,-1.045774370E-1,1.045795700E-1
1.216188475E1,9.084311314E-4,-1.206599176E-3,-1.078772321E-1,1.078878044E-1
1.217184075E1,1.230649650E-4,3.785146400E-4,-1.126477569E-1,1.126484601E-1
1.218179775E1,-3.737844061E-3,1.383329742E-3,-1.181135774E-1,1.181808032E-1
1.219175475E1,7.229506155E-4,1.439522952E-3,-1.149840951E-1,1.149953782E-1
1.220171175E1,9.054184193E-4,-5.393475294E-5,-1.095470488E-1,1.095508037E-1
1.221166775E1,2.401582431E-3,1.089626923E-3,-1.027767658E-1,1.028105952E-1
1.222162475E1,9.230357828E-4,-1.033998094E-3,-1.053234190E-1,1.053325388E-1
1.223158175E1,-1.164349960E-3,-1.037726179E-3,-1.092073768E-1,1.092185137E-1
1.224153875E1,-4.209822509E-4,-1.094511710E-3,-1.168199405E-1,1.168258263E-1
1.225149475E1,1.033370034E-3,-7.292348891E-5,-1.189169139E-1,1.189214261E-1
1.226145175E1,1.556854811E-3,-7.982468233E-4,-1.168462783E-1,1.168593760E-1
1.227140875E1,-4.418476019E-4,-7.476471364E-4,-1.114837378E-1,1.114871204E-1
1.228136575E1,1.724184724E-3,1.995581202E-3,-1.094594374E-1,1.094912033E-1
1.229132175E1,-1.777872094E-3,-3.215425648E-3,-1.077142656E-1,1.077769122E-1
1.230127875E1,8.737214375E-5,9.250305593E-4,-1.081482768E-1,1.081522681E-1
1.231123575E1,-6.479265867E-4,-5.322508514E-4,-1.111786887E-1,1.111818507E-1
1.232119275E1,-2.618384548E-3,-1.836249605E-3,-1.167293340E-1,1.167731355E-1
1.233114875E1,-9.653605521E-4,4.093283787E-4,-1.156339720E-1,1.156387260E-1
1.234110575E1,9.818909457E-4,2.111662179E-4,-1.129142419E-1,1.129187084E-1
1.235106275E1,3.310292726E-3,-1.170215197E-3,-1.108116731E-1,1.108672825E-1
1.236101975E1,5.826497800E-4,-4.698317498E-4,-1.061372533E-1,1.061398925E-1
1.237097575E1,-1.823516330E-3,-7.728999481E-4,-1.093365103E-1,1.093544470E-1
1.238093275E1,1.286498038E-3,-1.878991723E-3,-1.128256395E-1,1.128486182E-1
1.239088975E1,1.540030935E-3,1.092829742E-3,-1.140778586E-1,1.140934871E-1
1.240084675E1,-5.599474534E-4,1.285378821E-3,-1.130742654E-1,1.130829573E-1
1.241080275E1,3.833442461E-4,1.345566474E-3,-1.108997986E-1,1.109086238E-1
1.242075975E1,1.699886867E-3,1.252098009E-4,-1.060758233E-1,1.060895168E-1
1.243071675E1,4.819442984E-5,-5.322229117E-5,-1.048454344E-1,1.048454590E-1
1.244067375E1,1.743374043E-3,-4.525966942E-4,-1.072568968E-1,1.072720192E-1
1.245062975E1,9.169952245E-4,1.403360628E-3,-1.099778488E-1,1.099906248E-1
1.246058675E1,-5.615700502E-4,-8.037891239E-4,-1.161104292E-1,1.161145693E-1
1.247054375E1,1.020880183E-3,-2.391299233E-3,-1.156278625E-1,1.156570927E-1
1.248050075E1,-1.300742966E-3,3.729332238E-4,-1.104529947E-1,1.104612830E-1
1.249045675E1,-2.402226441E-3,-1.006584615E-3,-1.047208011E-1,1.047531865E-1
1.250041375E1,2.194350818E-3,-5.821250379E-4,-1.040836871E-1,1.041084433E-1
1.251037075E1,-4.946429981E-4,-4.521626979E-4,-1.047841012E-1,1.047862443E-1
1.252032775E1,3.077923320E-3,-9.112888947E-4,-1.077102572E-1,1.077580789E-1
1.253028425E1,4.275454558E-4,-4.670731723E-4,-1.145543158E-1,1.145560658E-1
1.254024025E1,-3.031038214E-4,3.645727411E-4,-1.157965884E-1,1.157975590E-1
1.255019725E1,-1.610982232E-3,-2.993531525E-4,-1.137249172E-1,1.137367208E-1
1.256015425E1,7.785018533E-5,-1.241397113E-4,-1.120990813E-1,1.120991770E-1
1.257011125E1,-3.386681201E-4,1.965053380E-4,-1.065285504E-1,1.065292700E-1
1.258006725E1,-2.789131831E-4,2.738786861E-4,-1.035712734E-1,1.035720111E-1
1.259002425E1,-1.788659254E-3,1.078952104E-3,-1.005432606E-1,1.005649575E-1
1.259998125E1,1.417798921E-5,-1.230072230E-3,-1.037161872E-1,1.037234822E-1
1.260993825E1,-9.331083857E-4,-9.829308838E-4,-1.119741127E-1,1.119823145E-1
1.261989425E1,-5.207546055E-4,-1.556497067E-3,-1.181680933E-1,1.181794912E-1
1.262985125E1,-1.586551778E-3,5.423398688E-4,-1.163883060E-1,1.164003825E-1
1.263980825E1,2.404464409E-3,1.105239615E-3,-1.139937565E-1,1.140244689E-1
1.264976525E1,2.888360526E-3,-9.552482516E-4,-1.060839072E-1,1.061275199E-1
1.265972125E1,-5.285685183E-4,-1.334995963E-3,-1.049238816E-1,1.049337054E-1
1.266967825E1,-4.851589911E-4,1.211785711E-3,-1.070541441E-1,1.070621015E-1
1.267963525E1,3.880173317E-4,9.797280654E-4,-1.110895202E-1,1.110945179E-1
1.268959225E1,1.814140123E-3,1.885024831E-4,-1.152408570E-1,1.152552895E-1
1.269954825E1,1.782687381E-3,-1.295024529E-3,-1.134798303E-1,1.135012201E-1
1.270950525E1,6.574741565E-5,-2.041508444E-3,-1.090163738E-1,1.090355072E-1
1.271946225E1,2.205501311E-3,1.264931634E-3,-1.061740220E-1,1.062044595E-1
1.272941925E1,-1.673925668E-3,4.784995690E-4,-1.046512276E-1,1.046657080E-1
1.273937525E1,-1.093969913E-3,-1.403763890E-4,-1.059170291E-1,1.059227715E-1
1.274933225E1,-4.593386548E-4,1.020495780E-3,-1.149198487E-1,1.149252976E-1
1.275928925E1,2.348407637E-3,-6.410758942E-5,-1.167458966E-1,1.167695316E-1
1.276924625E1,4.836621811E-4,5.185920745E-4,-1.192247644E-1,1.192268733E-1
1.277920225E1,-8.020974929E-4,1.008337364E-3,-1.122111529E-1,1.122185499E-1
1.278915925E1,-2.551975194E-5,2.195090055E-4,-1.079756618E-1,1.079758879E-1
1.279911625E1,-2.431706525E-3,3.761388361E-4,-1.058619469E-1,1.058905401E-1
1.280907325E1,1.499617938E-4,-6.822012365E-4,-1.037710980E-1,1.037734487E-1
1.281903025E1,1.522202976E-3,1.189308241E-3,-1.085923985E-1,1.086095786E-1
1.282898625E1,-1.505811233E-3,-4.562586546E-4,-1.134185791E-1,1.134294923E-1
1.283894325E1,4.254109226E-4,1.058066264E-3,-1.153124943E-1,1.153181331E-1
1.284890025E1,1.299194060E-3,-4.634633660E-5,-1.154696196E-1,1.154769376E-1
1.285885725E1,1.234828378E-3,3.823600709E-4,-1.108576283E-1,1.108651647E-1
1.286881325E1,-1.390782185E-3,8.721156046E-4,-1.036628336E-1,1.036758310E-1
1.287877025E1,1.131842495E-3,-6.716763601E-4,-1.042125598E-1,1.042208704E-1
1.288872725E1,-1.586712315E-3,-1.714037731E-3,-1.046418622E-1,1.046679268E-1
1.289868425E1,6.047258503E-4,6.798170507E-4,-1.060522944E-1,1.060561973E-1
1.290864025E1,-1.709028613E-3,2.939244732E-4,-1.106712818E-1,1.106848670E-1
1.291859725E1,1.077034511E-3,-1.042184420E-3,-1.172494814E-1,1.172590595E-1
1.292855425E1,-4.630716285E-4,5.365367979E-4,-1.133364961E-1,1.133387120E-1
1.293851125E1,-3.223456675E-3,-3.395108506E-4,-1.115156263E-1,1.115627216E-1
1.294846725E1,5.941849668E-4,-2.392008901E-3,-1.115838066E-1,1.116110239E-1
1.295842425E1,2.408037428E-3,-1.118732616E-3,-1.075320765E-1,1.075648534E-1
1.296838125E1,-1.128906850E-3,-7.759844884E-4,-1.102743372E-1,1.102828456E-1
1.297833825E1,6.228284328E-4,-8.073672652E-4,-1.142815873E-1,1.142861363E-1
1.298829425E1,1.127231168E-3,-1.337868161E-3,-1.202904806E-1,1.203032013E-1
1.299825125E1,-3.890665714E-3,-8.412282914E-4,-1.128965840E-1,1.129667368E-1
1.300820825E1,-1.959074987E-3,-5.131261423E-4,-1.082581580E-1,1.082770984E-1
1.301816525E1,-1.434605103E-3,-1.628845930E-4,-1.023088321E-1,1.023190195E-1
1.302812225E1,-1.054571941E-3,-1.429114491E-4,-1.032832786E-1,1.032887612E-1
1.303807825E1,-1.630119979E-3,9.335279465E-4,-1.083772033E-1,1.083934821E-1
1.304803525E1,-4.873574944E-4,-1.371970400E-3,-1.170758903E-1,1.170849431E-1
1.305799225E1,-1.932676416E-3,-2.126308158E-3,-1.193068102E-1,1.193414068E-1
1.306794925E1,-2.070628107E-3,1.288663596E-3,-1.126947179E-1,1.127211054E-1
1.307790525E1,1.134939608E-3,-8.194614202E-5,-1.043790206E-1,1.043852229E-1
1.308786225E1,2.150837099E-4,-1.283031888E-3,-1.006306261E-1,1.006390349E-1
1.309781925E1,-6.717200158E-4,6.813686341E-4,-1.045493856E-1,1.045537637E-1
1.310777625E1,-5.718515022E-4,-4.780571908E-5,-1.069440991E-1,1.069456386E-1
1.311773225E1,-2.561280970E-3,-1.098342240E-3,-1.134794056E-1,1.135136204E-1
1.312768925E1,1.085119206E-3,4.090061411E-4,-1.167803928E-1,1.167861504E-1
1.313764625E1,1.075125067E-3,2.576243132E-3,-1.161952019E-1,1.162287308E-1
1.314760325E1,3.228024580E-3,-2.170308493E-3,-1.114712879E-1,1.115391340E-1
1.315755925E1,-3.202303778E-4,2.051424235E-4,-1.077202708E-1,1.077209421E-1
1.316751625E1,-6.435380783E-4,-1.996758394E-3,-1.027782410E-1,1.027996499E-1
1.317747325E1,1.049075741E-3,2.805107273E-3,-1.041555703E-1,1.041986181E-1
1.318743025E1,1.014454640E-3,5.699135363E-5,-1.092725694E-1,1.092772931E-1
1.319738625E1,-5.838279612E-4,4.451237619E-4,-1.134302765E-1,1.134326524E-1
1.320734325E1,-4.416151205E-4,-2.813870087E-4,-1.175672337E-1,1.175683999E-1
1.321730025E1,1.241050661E-3,-5.144588649E-4,-1.147183850E-1,1.147262513E-1
1.322725725E1,8.032270125E-4,-1.999170519E-3,-1.101981997E-1,1.102192591E-1
1.323721425E1,2.377590630E-3,1.453307457E-3,-1.039383262E-1,1.039756736E-1
1.324717025E1,2.033859491E-4,7.811263204E-4,-1.028672084E-1,1.028703752E-1
1.325712725E1,1.807284774E-3,-2.057841048E-4,-1.102996469E-1,1.103146442E-1
1.326708425E1,3.299210221E-7,4.719896242E-4,-1.166528836E-1,1.166538384E-1
1.327704125E1,1.890851418E-4,-1.227791421E-3,-1.141806617E-1,1.141874194E-1
1.328699725E1,-2.706303494E-3,-1.340443268E-3,-1.117590517E-1,1.117998502E-1
1.329695425E1,9.412838263E-4,2.290285192E-3,-1.087101549E-1,1.087383520E-1
1.330691125E1,-5.183947505E-4,3.973105922E-4,-1.076105312E-1,1.076125132E-1
1.331686825E1,-4.677004181E-4,-2.123187296E-3,-1.089443862E-1,1.089660771E-1
1.332682425E1,-3.432597732E-3,1.602070406E-4,-1.116717309E-1,1.117245894E-1
1.333678125E1,6.095260615E-4,-4.130797461E-4,-1.131771579E-1,1.131795531E-1
1.334673825E1,1.741369488E-3,1.375499181E-3,-1.179751083E-1,1.179959768E-1
1.335669525E1,2.262307797E-3,2.475432120E-3,-1.156943738E-1,1.157429650E-1
1.336665125E1,-6.389397895E-4,-7.784180343E-4,-1.091059819E-1,1.091106295E-1
1.337660825E1,1.709153876E-3,-7.438277826E-4,-1.039865687E-1,1.040032738E-1
1.338656525E1,-4.504035460E-4,1.022913493E-3,-1.022350118E-1,1.022411211E-1
1.339652225E1,2.122201025E-3,8.494621143E-4,-1.042412221E-1,1.042662827E-1
1.340647925E1,5.043307901E-4,-1.225139946E-3,-1.101062968E-1,1.101142676E-1
1.341643525E1,-6.481807213E-4,1.857586205E-3,-1.133508310E-1,1.133679040E-1
1.342639225E1,1.164366608E-3,1.172887161E-3,-1.177564934E-1,1.177680905E-1
1.343634925E1,1.999876928E-3,-5.973093212E-4,-1.172914505E-1,1.173100194E-1
1.344630625E1,4.286120529E-4,-1.062297262E-3,-1.117773727E-1,1.117832421E-1
1.345626225E1,3.679335932E-4,-8.857399225E-4,-1.077434272E-1,1.077476961E-1
1.346621925E1,-1.985768089E-3,1.583542675E-3,-1.076795086E-1,1.077094585E-1
1.347617625E1,2.594977152E-3,-1.662163064E-3,-1.130880713E-1,1.131300516E-1
1.348613325E1,-2.786738798E-3,6.808852777E-4,-1.140673161E-1,1.141033834E-1
1.349608925E1,4.441941273E-4,3.718938679E-4,-1.144787148E-1,1.144801806E-1
1.350604625E1,-2.771039959E-3,-1.231861301E-3,-1.143993512E-1,1.144395373E-1
1.351600325E1,-2.798853209E-3,4.271501675E-4,-1.094069406E-1,1.094435685E-1
1.352596025E1,-1.040005591E-4,1.882300712E-3,-1.062098145E-1,1.062265437E-1
1.353591725E1,3.703588154E-4,7.882425562E-4,-1.059007868E-1,1.059043679E-1
1.354587325E1,-4.443021026E-4,-3.944672644E-4,-1.126851961E-1,1.126867624E-1
1.355583025E1,1.310209627E-3,1.162867993E-3,-1.150632426E-1,1.150765776E-1
1.356578725E1,-5.859610392E-4,-5.924208090E-4,-1.132008955E-1,1.132039622E-1
1.357574425E1,-2.817393979E-4,-1.726273447E-3,-1.134486422E-1,1.134621250E-1
1.358570025E1,1.523557585E-4,-3.406312317E-4,-1.091899797E-1,1.091906173E-1
1.359565725E1,-1.458943821E-3,-2.031916752E-3,-1.068177596E-1,1.068470447E-1
1.360561425E1,3.258046927E-3,1.813155599E-3,-1.078159139E-1,1.078803675E-1
1.361557125E1,7.861836348E-4,1.784851775E-3,-1.111238077E-1,1.111409215E-1
1.362552725E1,9.076237911E-4,-1.014396548E-3,-1.169681177E-1,1.169760374E-1
1.363548425E1,2.232876373E-3,1.534892246E-3,-1.100135371E-1,1.100468990E-1
1.364544125E1,3.204604145E-4,-1.284596510E-3,-1.103938371E-1,1.104017760E-1
1.365539825E1,3.485025372E-4,5.575241521E-4,-1.067238376E-1,1.067258628E-1
1.366535525E1,2.351732459E-3,4.275618121E-4,-1.078602150E-1,1.078866972E-1
1.367531125E1,1.134135644E-3,-1.446725801E-4,-1.084955558E-1,1.085015798E-1
1.368526825E1,-3.760754131E-3,-9.369626641E-4,-1.120740399E-1,1.121410343E-1
1.369522525E1,-3.604944795E-4,-1.160562038E-3,-1.102913842E-1,1.102980792E-1
1.370518225E1,2.901158296E-4,-1.572819427E-3,-1.120906100E-1,1.121020195E-1
1.371513825E1,1.622946118E-3,7.242430001E-4,-1.095312089E-1,1.095456261E-1
1.372509525E1,7.504945970E-4,7.583312690E-4,-1.067548692E-1,1.067602005E-1
1.373505225E1,6.597745232E-5,3.318898380E-4,-1.103150025E-1,1.103155215E-1
1.374500925E1,-4.677199759E-4,-1.276659779E-3,-1.172655821E-1,1.172734640E-1
1.375496525E1,-1.320722746E-3,9.729396552E-4,-1.194229871E-1,1.194342529E-1
1.376492225E1,-1.112996368E-3,-9.895442054E-4,-1.173404008E-1,1.173498514E-1
1.377487925E1,8.041112451E-4,7.184511051E-4,-1.102848947E-1,1.102901662E-1
1.378483625E1,-8.033728227E-4,1.124316826E-3,-1.057039946E-1,1.057130265E-1
1.379479225E1,2.083773259E-3,1.855743118E-3,-1.043099314E-1,1.043472457E-1
1.380474925E1,-9.431755170E-4,-1.618675888E-4,-1.049035490E-1,1.049079137E-1
1.381470625E1,1.286807004E-3,-2.281647176E-4,-1.127741411E-1,1.127817132E-1
1.382466325E1,-1.263169688E-3,-2.119196579E-4,-1.172479838E-1,1.172549795E-1
1.383462025E1,4.810499377E-4,-9.986292571E-5,-1.145429760E-1,1.145440297E-1
1.384457625E1,-1.069974969E-3,-1.201346517E-3,-1.086422130E-1,1.086541234E-1
1.385453325E1,2.836688422E-3,-7.670354098E-4,-1.047229320E-1,1.047641524E-1
1.386449025E1,6.180088967E-4,1.736601815E-3,-1.058992520E-1,1.059152930E-1
1.387444725E1,-1.426315750E-3,2.304501832E-4,-1.110310778E-1,1.110404779E-1
1.388440325E1,-8.782370714E-4,1.501576975E-3,-1.117155105E-1,1.117290531E-1
1.389436025E1,1.861512428E-4,-1.254185103E-3,-1.111373529E-1,1.111445853E-1
1.390431725E1,1.473256969E-3,1.525888219E-3,-1.089727357E-1,1.089933757E-1
1.391427425E1,2.066602465E-3,-1.013744622E-5,-1.067764312E-1,1.067964288E-1
1.392423125E1,2.160612028E-3,6.762705743E-5,-1.059596390E-1,1.059816866E-1
1.393418725E1,-1.564335544E-3,8.128928021E-4,-1.132358611E-1,1.132495835E-1
1.394414425E1,1.920192735E-4,3.990381956E-4,-1.185752302E-1,1.185760572E-1
1.395410125E1,-4.765447229E-4,1.795228571E-3,-1.191960648E-1,1.192105356E-1
1.396405825E1,-4.962522071E-4,3.605838865E-4,-1.133056879E-1,1.133073484E-1
1.397401425E1,-2.790227300E-4,2.129320055E-4,-1.090153754E-1,1.090159404E-1
1.398397125E1,-1.623762073E-4,-4.728315398E-4,-1.060653925E-1,1.060665707E-1
1.399392825E1,5.352218868E-4,-9.553628042E-4,-1.077985242E-1,1.078040862E-1
1.400388525E1,-1.232584356E-3,6.302837282E-4,-1.106694117E-1,1.106780701E-1
1.401384225E1,6.187281106E-4,2.187937498E-4,-1.117184311E-1,1.117203587E-1
1.402379825E1,1.385718468E-3,-6.768275052E-4,-1.130326986E-1,1.130432186E-1
1.403375525E1,8.888471639E-4,-3.917319700E-4,-1.136554554E-1,1.136596061E-1
1.404371225E1,1.113351667E-3,1.049470156E-4,-1.116690040E-1,1.116746033E-1
1.405366925E1,-5.978030385E-4,1.051068306E-3,-1.151705980E-1,1.151769455E-1
1.406362525E1,1.509023597E-3,1.533171162E-4,-1.138731092E-1,1.138832106E-1
1.407358225E1,-2.236540895E-3,2.869768068E-4,-1.109668165E-1,1.109897241E-1
1.408353925E1,-3.910337575E-3,4.717996344E-4,-1.087161824E-1,1.087875069E-1
1.409349625E1,-4.989376757E-4,-5.068881437E-4,-1.117606685E-1,1.117629316E-1
1.410345225E1,-1.218790072E-3,4.979232326E-4,-1.141287535E-1,1.141363472E-1
1.411340925E1,8.955637459E-4,-8.401107043E-4,-1.132065877E-1,1.132132471E-1
1.412336625E1,-8.269689279E-4,-1.842524856E-3,-1.128585115E-1,1.128765804E-1
1.413332325E1,1.296357485E-3,6.682286039E-4,-1.104984730E-1,1.105080975E-1
1.414328025E1,1.050814055E-3,-2.361806110E-4,-1.118138060E-1,1.118189930E-1
1.415323625E1,1.276991679E-3,-9.399428964E-4,-1.117614359E-1,1.117726834E-1
1.416319325E1,-1.120385830E-3,8.020307869E-4,-1.075296775E-1,1.075385050E-1
1.417315025E1,2.145300154E-3,2.033120021E-3,-1.068487242E-1,1.068895961E-1
1.418310725E1,-7.183968555E-4,2.530598082E-3,-1.080633849E-1,1.080953985E-1
1.419306325E1,2.306907205E-3,-3.441823646E-3,-1.079930887E-1,1.080725459E-1
1.420302025E1,1.339647104E-3,-5.528256297E-4,-1.056827977E-1,1.056927339E-1
1.421297725E1,8.397472557E-4,-1.214770600E-4,-1.100652888E-1,1.100685593E-1
1.422293425E1,1.409930061E-3,1.150715165E-3,-1.133729368E-1,1.133875428E-1
1.423289125E1,-1.949913567E-4,-1.674821600E-3,-1.143251956E-1,1.143376289E-1
1.424284725E1,-1.376635861E-3,-3.232237883E-3,-1.114774793E-1,1.115328243E-1
1.425280425E1,-1.322485507E-3,-1.038218848E-3,-1.084371507E-1,1.084501845E-1
1.426276125E1,-1.337665366E-3,-1.330368221E-3,-1.062197983E-1,1.062365511E-1
1.427271825E1,1.489769435E-3,1.339544542E-3,-1.063810587E-1,1.063999222E-1
1.428267425E1,1.839708770E-3,1.419172622E-3,-1.104325280E-1,1.104569681E-1
1.429263125E1,1.084000571E-3,5.241315812E-4,-1.150103658E-1,1.150166685E-1
1.430258825E1,-2.006331459E-3,-1.891887747E-3,-1.154042482E-1,1.154371912E-1
1.431254525E1,-9.943343466E-4,6.449334323E-4,-1.100970432E-1,1.101034221E-1
1.432250225E1,7.636183291E-4,-2.461597323E-4,-1.083524078E-1,1.083553782E-1
1.433245825E1,-4.986695712E-4,4.886193201E-4,-1.094611958E-1,1.094634222E-1
1.434241525E1,3.870977671E-4,-2.408899367E-3,-1.108718663E-1,1.108987078E-1
1.435237225E1,-2.960532904E-3,8.502630517E-4,-1.124489382E-1,1.124911170E-1
1.436232925E1,2.483767457E-3,-1.706904732E-3,-1.122745052E-1,1.123149462E-1
1.437228525E1,9.307466680E-4,6.966115907E-4,-1.101387590E-1,1.101448945E-1
1.438224225E1,-2.867187373E-3,-1.790355891E-4,-1.084327400E-1,1.084707883E-1
1.439219925E1,2.860141452E-3,8.968254551E-4,-1.057780609E-1,1.058205219E-1
1.440215625E1,-3.769309260E-4,2.653979696E-3,-1.065008417E-1,1.065345717E-1
1.441211325E1,-1.510800794E-3,-9.344983846E-4,-1.067228168E-1,1.067376009E-1
1.442206925E1,1.390979509E-3,1.014713198E-4,-1.106975824E-1,1.107063678E-1
1.443202625E1,6.122709601E-4,2.826554701E-4,-1.134158224E-1,1.134178272E-1
1.444198325E1,-1.051672036E-3,-9.562475607E-4,-1.175780743E-1,1.175866659E-1
1.445194025E1,-2.432498615E-3,3.505758941E-4,-1.139161140E-1,1.139426214E-1
1.446189625E1,-3.660748480E-3,-3.052943386E-3,-1.089418605E-1,1.090460935E-1
1.447185325E1,-3.344636643E-3,-7.548267022E-4,-1.053038314E-1,1.053596377E-1
1.448181025E1,1.542796497E-3,-1.201955602E-4,-1.050412431E-1,1.050526412E-1
1.449176725E1,9.929965017E-4,-2.370693721E-3,-1.079338491E-1,1.079644479E-1
1.450172425E1,-5.079611437E-4,-1.312087290E-3,-1.121043637E-1,1.121131927E-1
1.451168025E1,-9.489195654E-4,8.938712999E-4,-1.153620854E-1,1.153694509E-1
1.452163725E1,-2.462660428E-3,9.279232472E-5,-1.161272079E-1,1.161533543E-1
1.453159437E1,-1.301839715E-3,-2.194223925E-4,-1.149130464E-1,1.149206298E-1
1.454155137E1,1.563455211E-3,-4.633683711E-4,-1.118080616E-1,1.118199523E-1
1.455150737E1,3.380341921E-3,7.872274145E-4,-1.093321666E-1,1.093872437E-1
1.456146437E1,-1.347641228E-4,-8.317083120E-4,-1.081063151E-1,1.081095984E-1
1.457142137E1,-2.107536420E-4,7.271058857E-4,-1.104620248E-1,1.104646189E-1
1.458137837E1,-1.001179917E-3,6.943484768E-4,-1.138841882E-1,1.138907056E-1
1.459133538E1,-1.544272527E-4,-2.960115671E-5,-1.135846227E-1,1.135847316E-1
1.460129137E1,-2.131824382E-3,-2.064350992E-4,-1.093179733E-1,1.093389527E-1
1.461124838E1,1.027964405E-3,-2.210355364E-3,-1.112570614E-1,1.112837638E-1
1.462120537E1,-1.307894127E-3,3.910204396E-4,-1.102911383E-1,1.102995860E-1
1.463116238E1,5.620443262E-4,7.261140272E-4,-1.097526178E-1,1.097564588E-1
1.464111837E1,1.074427273E-4,-1.748334616E-4,-1.126285642E-1,1.126287512E-1
1.465107538E1,1.000583521E-3,1.003751531E-3,-1.116098613E-1,1.116188596E-1
1.466103237E1,2.235757653E-3,-9.020064026E-4,-1.105717570E-1,1.105980364E-1
1.467098937E1,-6.459421711E-4,-1.605693251E-4,-1.088707447E-1,1.088727793E-1
1.468094637E1,-1.547422144E-3,1.166649163E-4,-1.087293327E-1,1.087404061E-1
1.469090237E1,6.282460527E-4,-5.044266582E-4,-1.098155305E-1,1.098184860E-1
1.470085937E1,1.699160784E-4,1.036478207E-3,-1.096381694E-1,1.096432002E-1
1.471081637E1,1.016200986E-4,4.842672497E-4,-1.099445671E-1,1.099456806E-1
1.472077338E1,-2.352697775E-4,-9.603612125E-5,-1.128847003E-1,1.128849863E-1
1.473072937E1,1.806717366E-3,1.465641893E-3,-1.116798148E-1,1.117040436E-1
1.474068638E1,1.696462510E-3,-6.553716958E-6,-1.087069288E-1,1.087201655E-1
1.475064337E1,1.626598183E-3,8.547781035E-4,-1.065337211E-1,1.065495669E-1
1.476060038E1,-1.180107240E-3,1.249724999E-3,-1.052109301E-1,1.052249699E-1
1.477055737E1,-4.945021356E-4,7.733823732E-4,-1.075517237E-1,1.075556411E-1
1.478051338E1,-2.052451251E-3,-1.259674318E-3,-1.143228114E-1,1.143481724E-1
1.479047037E1,2.866941504E-4,-5.975160748E-4,-1.183300614E-1,1.183319173E-1
1.480042738E1,2.637909492E-4,-1.651328988E-3,-1.165563986E-1,1.165683942E-1
1.481038437E1,3.032526467E-3,1.568840817E-4,-1.105523705E-1,1.105940661E-1
1.482034037E1,6.330183824E-4,6.761997938E-4,-1.069235429E-1,1.069275549E-1
1.483029737E1,-2.660714090E-4,2.109157853E-3,-1.071986407E-1,1.072197179E-1
1.484025437E1,6.039832952E-4,-6.663892418E-4,-1.089797616E-1,1.089834726E-1
1.485021138E1,1.150232507E-3,-1.308508217E-5,-1.118080989E-1,1.118140160E-1
1.486016837E1,1.320941141E-3,-1.445865259E-3,-1.126440689E-1,1.126610921E-1
1.487012438E1,2.167538041E-3,-4.435051233E-5,-1.114307866E-1,1.114518747E-1
1.488008137E1,-1.071398612E-3,-1.247776672E-4,-1.104984134E-1,1.105036779E-1
1.489003838E1,6.491462700E-4,1.571455970E-3,-1.105227247E-1,1.105358021E-1
1.489999537E1,-1.266325125E-4,-1.692248508E-3,-1.106918380E-1,1.107048451E-1
1.490995238E1,-8.007123834E-4,-1.061633229E-4,-1.091750041E-1,1.091779919E-1
1.491990837E1,2.078431193E-3,-1.081945375E-3,-1.098477170E-1,1.098727055E-1
1.492986538E1,-1.004631631E-4,7.211342454E-4,-1.082801521E-1,1.082826000E-1
1.493982237E1,-3.313592169E-4,-7.372125983E-4,-1.103052199E-1,1.103081811E-1
1.494977937E1,1.152422978E-3,5.946494639E-6,-1.122490168E-1,1.122549325E-1
1.495973537E1,-6.425476167E-4,2.991603687E-4,-1.139324009E-1,1.139346056E-1
1.496969237E1,-1.633047825E-3,-9.578438476E-4,-1.081970111E-1,1.082135736E-1
1.497964938E1,-5.850940943E-4,1.423022710E-3,-1.085498780E-1,1.085607818E-1
1.498960637E1,-9.032180533E-4,1.356611028E-4,-1.054920182E-1,1.054959720E-1
1.499956338E1,8.083955618E-4,-6.078938022E-4,-1.062273160E-1,1.062321312E-1
1.500951937E1,2.468690276E-3,-5.458099768E-4,-1.112149432E-1,1.112436782E-1
1.501947638E1,8.185956394E-4,-1.394293271E-3,-1.163567081E-1,1.163679409E-1
1.502943337E1,-1.606269274E-3,-1.489631832E-4,-1.179191545E-1,1.179301882E-1
1.503939038E1,1.122405636E-3,-1.750854775E-3,-1.130666062E-1,1.130857318E-1
1.504934637E1,-1.057014568E-3,6.884140894E-4,-1.074174717E-1,1.074248780E-1
1.505930338E1,-4.186547594E-4,-2.112965100E-3,-1.027358994E-1,1.027584786E-1
1.506926037E1,8.457663935E-4,1.627870835E-3,-1.026911885E-1,1.027075726E-1
1.507921737E1,-1.776115736E-3,-1.769606024E-5,-1.103917211E-1,1.104060098E-1
1.508917437E1,1.120529836E-3,-4.752315581E-4,-1.170502752E-1,1.170566032E-1
1.509913037E1,-2.259820467E-3,2.142922021E-3,-1.147807315E-1,1.148229734E-1
1.510908737E1,1.792422263E-3,-5.081435665E-4,-1.108312607E-1,1.108469185E-1
1.511904437E1,1.772182295E-3,-1.326266676E-3,-1.076951250E-1,1.077178703E-1
1.512900138E1,9.314268827E-4,4.468876868E-4,-1.059980392E-1,1.060030735E-1
1.513895837E1,-3.270775080E-3,-2.857474610E-4,-1.088207215E-1,1.088702395E-1
1.514891438E1,6.472297246E-4,1.442207024E-3,-1.094420776E-1,1.094534934E-1
1.515887137E1,3.504535183E-3,1.283749007E-3,-1.124477163E-1,1.125096382E-1
1.516882838E1,1.112360042E-3,-2.606306225E-5,-1.117838100E-1,1.117893474E-1
1.517878537E1,-8.389381692E-4,-1.934750006E-3,-1.082953364E-1,1.083158666E-1
1.518874138E1,-2.134516137E-3,1.222020015E-3,-1.073112115E-1,1.073393945E-1
1.519869837E1,-7.992070168E-4,-1.291205175E-3,-1.092068478E-1,1.092174050E-1
1.520865537E1,2.118806355E-3,1.702643931E-3,-1.141565964E-1,1.141889523E-1
1.521861237E1,-8.857719367E-4,-1.338952221E-3,-1.146769747E-1,1.146882118E-1
1.522856937E1,-4.419652978E-4,5.790116265E-4,-1.156881303E-1,1.156904234E-1
1.523852537E1,1.268583001E-3,-2.080420963E-3,-1.126630455E-1,1.126893929E-1
1.524848237E1,-5.156752886E-4,-1.030791551E-3,-1.077091545E-1,1.077153212E-1
1.525843938E1,1.289947890E-3,1.562061720E-3,-1.035841852E-1,1.036039933E-1
1.526839637E1,1.644187141E-3,2.533567138E-3,-1.047532111E-1,1.047967440E-1
1.527835338E1,3.004528116E-5,1.367102377E-3,-1.100531667E-1,1.100616617E-1
1.528830937E1,1.205852488E-3,2.541622147E-3,-1.156517044E-1,1.156859138E-1
1.529826638E1,-4.021666013E-3,7.980503142E-4,-1.186248511E-1,1.186956865E-1
1.530822337E1,-1.675135922E-3,1.567862928E-4,-1.170956641E-1,1.171077505E-1
1.531818037E1,-5.467546871E-4,-2.772956155E-3,-1.054496616E-1,1.054875318E-1
1.532813637E1,1.210387214E-3,2.355314791E-4,-1.018536836E-1,1.018611475E-1
1.533809337E1,-3.353115171E-4,1.494407654E-3,-1.019117460E-1,1.019232537E-1
1.534805037E1,-2.731366083E-3,7.367646322E-4,-1.095879525E-1,1.096244613E-1
1.535800737E1,-1.251447247E-3,-3.106566146E-4,-1.148263887E-1,1.148336282E-1
1.536796438E1,-1.220536884E-3,-2.025337890E-4,-1.164040193E-1,1.164105942E-1
1.537792037E1,1.853457652E-4,1.187102869E-3,-1.085724607E-1,1.085791084E-1
1.538787738E1,-1.258342760E-3,-4.652291536E-4,-1.015502885E-1,1.015591500E-1
1.539783437E1,1.133175916E-3,1.836541109E-3,-1.009068638E-1,1.009299368E-1
1.540779138E1,-4.822254414E-4,8.599571884E-4,-1.040176451E-1,1.040223176E-1
1.541774837E1,-2.380135702E-4,-7.211621851E-4,-1.139064953E-1,1.139090268E-1
1.542770438E1,1.460067811E-3,1.618172973E-5,-1.194080487E-1,1.194169760E-1
1.543766137E1,3.287987784E-5,-1.003808342E-3,-1.151611060E-1,1.151654855E-1
1.544761837E1,-1.552788541E-3,2.102144063E-4,-1.089945436E-1,1.090058066E-1
1.545757537E1,1.709317556E-3,3.248880617E-3,-1.029835269E-1,1.030489389E-1
1.546753137E1,2.168251667E-3,5.108816549E-4,-1.043619737E-1,1.043857455E-1
1.547748837E1,-1.244589221E-3,-6.145704538E-4,-1.071329936E-1,1.071419854E-1
1.548744537E1,-2.678228775E-4,1.176618971E-3,-1.134862825E-1,1.134926979E-1
1.549740238E1,2.643278567E-3,-2.309192903E-3,-1.168072447E-1,1.168599663E-1
1.550735937E1,1.851863577E-3,-2.817334607E-4,-1.164468676E-1,1.164619326E-1
1.551731538E1,1.314703957E-3,-5.380621180E-3,-1.120686308E-1,1.122054256E-1
1.552727237E1,-1.547512831E-3,-1.043771394E-3,-1.079665646E-1,1.079826992E-1
1.553722975E1,1.411791774E-3,1.043174416E-4,-1.103026867E-1,1.103117706E-1
1.554718675E1,5.670104292E-4,2.722069621E-4,-1.089897156E-1,1.089915304E-1
1.555714375E1,-1.311849803E-3,-7.938565686E-4,-1.133088320E-1,1.133192066E-1
1.556709975E1,-1.428034157E-4,1.271441579E-4,-1.146737188E-1,1.146738782E-1
1.557705675E1,1.218338264E-3,6.888052449E-4,-1.105460897E-1,1.105549490E-1
1.558701375E1,-2.104261890E-3,-9.198943153E-4,-1.046253741E-1,1.046505758E-1
1.559697075E1,-2.704005688E-3,1.713972539E-3,-1.035598442E-1,1.036093175E-1
1.560692775E1,1.826013206E-3,-5.804840475E-5,-1.052506268E-1,1.052664815E-1
1.561688375E1,3.316584509E-3,-1.011193730E-3,-1.098706797E-1,1.099253770E-1
1.562684075E1,2.194223460E-3,2.611129545E-3,-1.165824085E-1,1.166322880E-1
1.563679775E1,-4.700027639E-4,-1.211837865E-3,-1.215436086E-1,1.215505584E-1
1.564675475E1,-2.026268980E-3,7.777214050E-4,-1.111589670E-1,1.111801536E-1
1.565671075E1,3.057972062E-3,-1.852773130E-4,-1.071338654E-1,1.071776592E-1
1.566666775E1,2.425798448E-3,4.519661888E-4,-1.037598774E-1,1.037892139E-1
1.567662475E1,4.052580916E-4,1.042654738E-3,-1.075492948E-1,1.075551123E-1
1.568658175E1,2.350196475E-3,6.662681699E-6,-1.124977097E-1,1.125222563E-1
1.569653875E1,-2.170908265E-4,-1.119587570E-3,-1.165233478E-1,1.165289285E-1
