"Time (s)","Gyroscope x (rad/s)","Gyroscope y (rad/s)","Gyroscope z (rad/s)","Absolute (rad/s)"
4.270541667E-3,2.487998689E-3,-1.928692684E-3,-2.229598612E-1,2.229820838E-1
1.422654167E-2,1.600367134E-3,2.798670903E-4,-2.165333927E-1,2.165394875E-1
2.418254167E-2,2.038409468E-3,-8.192854002E-4,-2.151608616E-1,2.151720770E-1
3.413854167E-2,5.270655965E-4,-1.558578573E-3,-2.117379010E-1,2.117442931E-1
4.409454167E-2,3.986326978E-3,-2.393673174E-3,-2.148788124E-1,2.149291151E-1
5.405054167E-2,1.918914961E-3,-5.037659779E-3,-2.161254436E-1,2.161926632E-1
6.400654167E-2,1.876411843E-3,-3.839701414E-3,-2.190161943E-1,2.190578864E-1
7.396254167E-2,3.859667806E-3,-3.675384447E-3,-2.238807231E-1,2.239441530E-1
8.391854167E-2,3.664073069E-3,-9.235702455E-4,-2.222718149E-1,2.223039319E-1
9.387454167E-2,2.999678254E-4,-2.030912787E-3,-2.200952023E-1,2.201047766E-1
1.038305417E-1,1.452251920E-3,-2.970475703E-3,-2.186398655E-1,2.186648658E-1
1.137865417E-1,5.601722747E-3,-2.535315230E-3,-2.199496180E-1,2.200355462E-1
1.237425417E-1,1.626646146E-3,-4.962207749E-4,-2.198084891E-1,2.198150679E-1
1.336985417E-1,2.716411604E-3,-2.390260808E-3,-2.179685086E-1,2.179985389E-1
1.436545417E-1,4.524359480E-3,-8.840244263E-4,-2.154780626E-1,2.155273690E-1
1.536105417E-1,8.969684131E-6,-3.372482955E-3,-2.128508538E-1,2.128775697E-1
1.635665417E-1,1.171951182E-3,-3.966829740E-3,-2.113868147E-1,2.114272798E-1
1.735225417E-1,5.628861836E-4,-1.740694046E-3,-2.161232531E-1,2.161309959E-1
1.834785417E-1,4.373873584E-3,-2.962962724E-3,-2.232445180E-1,2.233070190E-1
1.934345417E-1,3.302749945E-3,-2.268943004E-3,-2.227643579E-1,2.228003937E-1
2.033905417E-1,3.324310062E-3,-2.615034580E-3,-2.173498720E-1,2.173910217E-1
2.133465417E-1,7.839207537E-4,-1.658161171E-3,-2.171810269E-1,2.171887716E-1
2.233025417E-1,2.820778638E-3,-4.209687002E-3,-2.169945538E-1,2.170537137E-1
2.332585417E-1,4.492711276E-3,5.243625492E-5,-2.161125094E-1,2.161592096E-1
2.432145417E-1,3.395435866E-3,-1.282391138E-3,-2.190800160E-1,2.191100795E-1
2.531705417E-1,4.033262841E-3,-1.195572317E-3,-2.170632035E-1,2.171039633E-1
2.631265417E-1,3.956909757E-3,-3.861282021E-3,-2.186075896E-1,2.186774905E-1
2.730835417E-1,2.082576975E-3,-3.384842537E-3,-2.192302346E-1,2.192662538E-1
2.830395417E-1,1.089109574E-3,-2.422591671E-3,-2.213571072E-1,2.213730426E-1
2.929955417E-1,3.249732079E-3,-2.287835814E-3,-2.185024768E-1,2.185386175E-1
3.029515417E-1,1.251825364E-3,-1.738068648E-3,-2.169244140E-1,2.169349888E-1
3.129075417E-1,2.434535185E-3,6.569121033E-4,-2.146839052E-1,2.146987137E-1
3.228635417E-1,3.894232213E-4,-2.868162468E-3,-2.179341614E-1,2.179533820E-1
3.328195417E-1,7.055404130E-4,-1.813284121E-3,-2.222197205E-1,2.222282384E-1
3.427755417E-1,4.479511175E-3,-3.475245088E-3,-2.278116494E-1,2.278821866E-1
3.527315417E-1,2.487733029E-3,-1.385462470E-3,-2.260180116E-1,2.260359482E-1
3.626875417E-1,3.798924852E-3,-1.614059322E-3,-2.224366516E-1,2.224749446E-1
3.726435417E-1,2.445240039E-3,-2.423660830E-3,-2.194800079E-1,2.195070094E-1
3.825995417E-1,3.281532321E-3,-4.746299237E-5,-2.161809057E-1,2.162058156E-1
3.925555417E-1,2.345165005E-3,-3.088792786E-3,-2.137395889E-1,2.137747700E-1
4.025115417E-1,2.746613231E-3,-1.114428043E-3,-2.143458575E-1,2.143663510E-1
4.124675417E-1,1.772961346E-3,9.412663057E-4,-2.182492465E-1,2.182584774E-1
4.224235417E-1,1.623883029E-3,-1.244820654E-3,-2.207234055E-1,2.207328890E-1
4.323795417E-1,5.029799417E-3,-1.276246272E-3,-2.202871740E-1,2.203482850E-1
4.423355417E-1,3.758524079E-3,-6.535788998E-4,-2.168672979E-1,2.169008496E-1
4.522915417E-1,1.459150808E-3,-1.448266208E-3,-2.184931487E-1,2.185028206E-1
4.622475417E-1,3.024545731E-3,-2.509322017E-3,-2.191056907E-1,2.191409325E-1
4.722035417E-1,3.439200111E-3,-1.137261279E-3,-2.179520130E-1,2.179821127E-1
4.821595417E-1,3.053853754E-3,-1.233593561E-3,-2.194152027E-1,2.194399211E-1
4.921155417E-1,2.093251562E-3,-9.726034477E-4,-2.192058712E-1,2.192180231E-1
5.020715417E-1,1.721109962E-3,-1.303798519E-3,-2.199145854E-1,2.199251849E-1
5.120275417E-1,3.723540809E-3,-2.197821625E-3,-2.209393680E-1,2.209816723E-1
5.219835417E-1,3.892092034E-3,-1.687382348E-3,-2.219575793E-1,2.219981140E-1
5.319395417E-1,1.558630378E-3,-2.114586532E-4,-2.169231325E-1,2.169288350E-1
5.418955417E-1,-5.606653867E-4,-2.208152786E-3,-2.115287185E-1,2.115409866E-1
5.518515417E-1,-8.922289126E-4,1.222531311E-3,-2.112227231E-1,2.112281454E-1
5.618075417E-1,2.027327428E-4,-4.965644330E-4,-2.135344595E-1,2.135351331E-1
5.717635417E-1,5.582318176E-3,-1.515223645E-3,-2.255120277E-1,2.255861982E-1
5.817195417E-1,3.719291184E-3,-7.963012904E-4,-2.252269387E-1,2.252590534E-1
5.916755417E-1,4.772571381E-3,-2.895404585E-3,-2.237547487E-1,2.238243695E-1
6.016325417E-1,2.589921467E-3,5.975551903E-5,-2.167477161E-1,2.167631973E-1
6.115885417E-1,3.265009727E-4,-1.355981454E-3,-2.148438245E-1,2.148483517E-1
6.215445417E-1,8.329380071E-4,-2.635872923E-3,-2.118754685E-1,2.118935010E-1
6.315005417E-1,1.548972214E-4,1.281370409E-3,-2.173533142E-1,2.173571464E-1
6.414565417E-1,1.495645498E-3,-2.634854056E-3,-2.150693387E-1,2.150906782E-1
6.514125417E-1,1.202431507E-3,-1.960009336E-3,-2.165023834E-1,2.165145941E-1
6.613685417E-1,1.657604473E-3,-1.976983622E-3,-2.176412046E-1,2.176564955E-1
6.713245417E-1,2.940449165E-3,-2.656621858E-3,-2.194276601E-1,2.194634409E-1
6.812805417E-1,1.945491415E-3,-1.650773920E-3,-2.173186392E-1,2.173336166E-1
6.912365417E-1,1.417386578E-3,-1.847036183E-4,-2.149862349E-1,2.149909866E-1
7.011925417E-1,-7.095442852E-4,-8.912691846E-4,-2.107564807E-1,2.107595596E-1
7.111485417E-1,7.935438771E-4,-1.502997242E-3,-2.140441537E-1,2.140509015E-1
7.211045417E-1,2.351890318E-3,-2.167190425E-3,-2.221841216E-1,2.222071376E-1
7.310605417E-1,5.031829234E-3,-2.784766257E-4,-2.318934649E-1,2.319482182E-1
7.410165417E-1,4.447652027E-3,-1.249941997E-3,-2.289563417E-1,2.290029484E-1
7.509725417E-1,4.174944479E-3,-2.140237018E-3,-2.250761241E-1,2.251250151E-1
7.609285417E-1,1.360081253E-3,-3.997022286E-4,-2.163730115E-1,2.163776552E-1
7.708845417E-1,1.242369530E-3,-1.577618532E-3,-2.113454938E-1,2.113550333E-1
7.808405417E-1,1.772413263E-3,-1.776129007E-3,-2.144549042E-1,2.144695830E-1
7.907965417E-1,-3.543870989E-4,1.472393982E-3,-2.170512080E-1,2.170564913E-1
8.007525417E-1,2.744415775E-3,-2.164389938E-3,-2.219192535E-1,2.219467762E-1
8.107085417E-1,4.410755821E-3,3.062244505E-4,-2.210473269E-1,2.210915405E-1
8.206645417E-1,4.261092283E-3,-2.187761478E-3,-2.202000767E-1,2.202521668E-1
8.306205417E-1,2.587561961E-3,-4.853053018E-3,-2.196637243E-1,2.197325633E-1
8.405765417E-1,2.552228048E-3,-2.607966773E-3,-2.148412764E-1,2.148722630E-1
8.505325417E-1,2.911222167E-3,-4.356863908E-3,-2.138673663E-1,2.139315495E-1
8.604885417E-1,6.665991968E-4,3.894511610E-4,-2.155439556E-1,2.155453382E-1
8.704445417E-1,1.569410786E-3,-3.231648356E-3,-2.241936326E-1,2.242224153E-1
8.804005417E-1,2.991178306E-3,2.141846344E-4,-2.293070108E-1,2.293266191E-1
8.903565417E-1,9.048579959E-4,-4.058857448E-3,-2.222174108E-1,2.222563177E-1
9.003125417E-1,1.466011861E-3,-1.482964493E-3,-2.167357355E-1,2.167457668E-1
9.102695417E-1,1.001822995E-3,-2.878993750E-3,-2.092439979E-1,2.092662011E-1
9.202251667E-1,-3.279753728E-4,-6.511509418E-4,-2.114450186E-1,2.114462756E-1
9.301811667E-1,2.089109737E-3,-1.666348428E-3,-2.158805132E-1,2.158970520E-1
9.401371667E-1,1.972243190E-3,-5.904166028E-4,-2.257929295E-1,2.258023148E-1
9.500931667E-1,5.711587612E-3,-2.403496765E-3,-2.297122926E-1,2.297958581E-1
9.600491667E-1,3.652057145E-3,-1.239588484E-3,-2.232872099E-1,2.233205145E-1
9.700051667E-1,5.371393636E-3,-1.749317162E-3,-2.206205875E-1,2.206928988E-1
9.799611667E-1,6.842450239E-5,-1.272064634E-3,-2.128260136E-1,2.128298261E-1
9.899171667E-1,1.573376823E-3,6.830506027E-5,-2.071777284E-1,2.071837140E-1
9.998731667E-1,1.584258280E-3,-3.184166737E-3,-2.092359960E-1,2.092662200E-1
1.009829167E0,-5.587874912E-4,-5.756011233E-4,-2.150808275E-1,2.150823236E-1
1.019785167E0,-6.736682262E-4,-2.076157369E-3,-2.226968557E-1,2.227075521E-1
1.029741167E0,2.956220414E-3,-3.179770894E-3,-2.280775011E-1,2.281188214E-1
1.039697167E0,4.386205226E-3,-2.681020647E-3,-2.230672240E-1,2.231264509E-1
1.049653167E0,3.783798078E-3,-4.354019649E-3,-2.173483521E-1,2.174248853E-1
1.059609167E0,1.025106525E-3,-6.727045402E-4,-2.149001807E-1,2.149036785E-1
1.069565167E0,-1.017005299E-3,-1.509202644E-3,-2.142503709E-1,2.142581000E-1
1.079521167E0,4.589052987E-4,-1.490036957E-3,-2.157771140E-1,2.157827466E-1
1.089477167E0,2.714070026E-3,-1.651158556E-3,-2.205428332E-1,2.205657131E-1
1.099433167E0,2.099887468E-3,-1.926451921E-3,-2.215892524E-1,2.216075755E-1
1.109389167E0,6.460679579E-4,-1.354767010E-4,-2.232289612E-1,2.232299373E-1
1.119345167E0,1.899869530E-3,-3.374411725E-3,-2.202491760E-1,2.202832170E-1
1.129301167E0,1.753395656E-3,1.103347167E-4,-2.184659243E-1,2.184729883E-1
1.139257167E0,1.408392098E-3,-1.499307342E-3,-2.173125148E-1,2.173222505E-1
1.149213167E0,1.684029237E-3,4.884758964E-4,-2.146605402E-1,2.146677016E-1
1.159169167E0,8.097226382E-4,-1.080375165E-3,-2.175526023E-1,2.175567917E-1
1.169125167E0,1.652879408E-3,-1.061732881E-3,-2.210442722E-1,2.210530017E-1
1.179081167E0,2.365039894E-3,-9.940937161E-5,-2.215518206E-1,2.215644658E-1
1.189037167E0,3.352007363E-3,-7.476219907E-4,-2.207922935E-1,2.208190023E-1
1.198993167E0,1.166154165E-3,-1.277232543E-3,-2.170182019E-1,2.170250935E-1
1.208949167E0,1.477614278E-4,-5.808165297E-4,-2.142538428E-1,2.142546810E-1
1.218905167E0,1.867844607E-3,-1.764313318E-3,-2.159930617E-1,2.160083432E-1
1.228862167E0,-5.159508437E-4,-1.331816427E-3,-2.195851356E-1,2.195897805E-1
1.238818167E0,2.964043524E-3,2.813227475E-4,-2.212170959E-1,2.212371311E-1
1.248774167E0,2.707314678E-3,-3.148029558E-3,-2.245425731E-1,2.245809582E-1
1.258730167E0,4.343310371E-3,-1.889552921E-3,-2.193083912E-1,2.193595341E-1
1.268686167E0,2.324367873E-3,-2.510069869E-3,-2.157783657E-1,2.158054824E-1
1.278642167E0,2.733970527E-3,-6.131697446E-4,-2.124804854E-1,2.124989583E-1
1.288598167E0,3.081513103E-3,-2.201478928E-3,-2.094482034E-1,2.094824388E-1
1.298554167E0,1.291867346E-3,-4.135749303E-3,-2.126706243E-1,2.127147568E-1
1.308510167E0,1.756056445E-3,-1.035564579E-3,-2.214686424E-1,2.214780253E-1
1.318466167E0,3.853509668E-3,-1.532873139E-3,-2.322845608E-1,2.323215798E-1
1.328422167E0,2.648695605E-3,-5.605528131E-4,-2.297705412E-1,2.297864909E-1
1.338378167E0,4.373924807E-3,-2.746283077E-3,-2.273528278E-1,2.274114808E-1
1.348334167E0,2.068426460E-3,-1.326018944E-3,-2.160999030E-1,2.161138700E-1
1.358290167E0,2.067779191E-3,-2.174672671E-3,-2.063559592E-1,2.063777769E-1
1.368246167E0,1.822235761E-3,-2.639926970E-3,-2.060212046E-1,2.060461756E-1
1.378202167E0,1.590979286E-3,-1.987308264E-3,-2.145993859E-1,2.146144846E-1
1.388158167E0,1.397101209E-3,-1.433636993E-3,-2.240458876E-1,2.240548302E-1
1.398114167E0,4.236637615E-3,-2.452475019E-3,-2.284362614E-1,2.284887071E-1
1.408070167E0,5.094974302E-3,-2.849818207E-3,-2.289305329E-1,2.290049544E-1
1.418026167E0,2.770672319E-3,-2.553657629E-3,-2.218857855E-1,2.219177766E-1
1.427982167E0,2.731790300E-3,-3.093481064E-3,-2.114861459E-1,2.115264102E-1
1.437938167E0,-9.159002220E-4,-1.266994514E-3,-2.089719027E-1,2.089777507E-1
1.447894167E0,1.645443263E-4,-2.441714518E-3,-2.138257921E-1,2.138397961E-1
1.457850167E0,1.655613421E-3,1.672944054E-4,-2.215216160E-1,2.215278659E-1
1.467806167E0,1.609540661E-3,-3.980578855E-3,-2.295638323E-1,2.296039824E-1
1.477762167E0,3.661420662E-3,-1.404637471E-3,-2.335666269E-1,2.335995467E-1
1.487718167E0,3.238244448E-3,-7.412442937E-4,-2.239941657E-1,2.240187981E-1
1.497674167E0,-1.229128800E-3,-5.843667313E-4,-2.153528780E-1,2.153571784E-1
1.507630167E0,8.081893320E-4,-1.571600325E-3,-2.083439678E-1,2.083514627E-1
1.517586167E0,-8.630355587E-4,-3.230127506E-3,-2.100928724E-1,2.101194745E-1
1.527542167E0,3.003607970E-3,-9.637773037E-4,-2.184410840E-1,2.184638591E-1
1.537498167E0,2.408358967E-3,-1.511545852E-3,-2.254482061E-1,2.254661362E-1
1.547454167E0,5.347955972E-3,-4.599747248E-3,-2.237760127E-1,2.238871639E-1
1.557410167E0,1.462091226E-3,-7.303431630E-4,-2.177708894E-1,2.177770222E-1
1.567366167E0,3.100734204E-3,-5.306061357E-4,-2.110189795E-1,2.110424266E-1
1.577323167E0,1.068384037E-3,-1.593031920E-3,-2.096727639E-1,2.096815374E-1
1.587279167E0,1.337097026E-3,-3.484408371E-3,-2.117415071E-1,2.117743959E-1
1.597235167E0,-3.060040530E-3,4.174802452E-4,-2.146317810E-1,2.146539996E-1
1.607191167E0,2.780538052E-3,-2.310927957E-3,-2.175146490E-1,2.175446950E-1
1.617147167E0,3.045197576E-3,-3.646746278E-3,-2.239493728E-1,2.239997624E-1
1.627103167E0,2.105368068E-3,-3.003592603E-3,-2.254189104E-1,2.254487509E-1
1.637059167E0,4.948804621E-3,-1.146791503E-3,-2.265111655E-1,2.265681220E-1
1.647015167E0,2.966347383E-3,-1.221093349E-3,-2.181853205E-1,2.182089007E-1
1.656971167E0,1.734622521E-3,-2.371413633E-3,-2.130950093E-1,2.131152635E-1
1.666927167E0,-2.039343119E-3,-2.113087103E-3,-2.139506787E-1,2.139708321E-1
1.676883167E0,2.830061130E-3,-4.308280535E-3,-2.219162583E-1,2.219761164E-1
1.686839167E0,4.164837301E-3,-6.259279326E-4,-2.265690714E-1,2.266082121E-1
1.696795167E0,1.770363073E-3,9.199790657E-4,-2.291306853E-1,2.291393714E-1
1.706751167E0,3.165326780E-3,3.471327946E-4,-2.254643142E-1,2.254867996E-1
1.716707167E0,1.751079806E-3,-7.985057309E-4,-2.211161852E-1,2.211245605E-1
1.726663167E0,1.033890527E-3,6.843423471E-4,-2.193507850E-1,2.193542891E-1
1.736619167E0,2.518163063E-3,-3.865631297E-4,-2.161690593E-1,2.161840715E-1
1.746575167E0,2.311235294E-3,-2.416424453E-3,-2.130188048E-1,2.130450471E-1
1.756531167E0,-1.319225994E-3,-3.108184785E-3,-2.108870000E-1,2.109140297E-1
1.766487167E0,7.644311991E-4,-7.060142234E-4,-2.104656845E-1,2.104682569E-1
1.776443167E0,2.300584223E-3,-1.979106106E-3,-2.194278836E-1,2.194488680E-1
1.786399167E0,5.036183167E-3,1.109428704E-4,-2.206015438E-1,2.206590505E-1
1.796355167E0,6.194648333E-3,-2.884492278E-4,-2.220227122E-1,2.221093011E-1
1.806311167E0,1.337042777E-3,-3.041625023E-4,-2.177105248E-1,2.177148429E-1
1.816267167E0,2.733835252E-3,-3.740417771E-3,-2.175988704E-1,2.176481863E-1
1.826223167E0,4.610936157E-4,-8.993567899E-4,-2.151594162E-1,2.151617899E-1
1.836179167E0,-1.082905103E-3,-2.780199982E-3,-2.172320038E-1,2.172524929E-1
1.846135167E0,2.573614940E-3,-3.359504044E-4,-2.162482291E-1,2.162638041E-1
1.856091167E0,1.122499467E-3,-9.521506727E-4,-2.163867503E-1,2.163917566E-1
1.866047167E0,1.940888935E-3,-3.425161354E-3,-2.194142193E-1,2.194495350E-1
1.876003167E0,1.403329661E-3,-8.526220918E-4,-2.238100171E-1,2.238160407E-1
1.885959167E0,3.085115924E-3,-4.231109284E-3,-2.227119952E-1,2.227735466E-1
1.895915167E0,1.573128975E-3,-1.767696813E-3,-2.206850499E-1,2.206977361E-1
1.905871167E0,-9.560750332E-4,-1.252109185E-3,-2.152173221E-1,2.152230880E-1
1.915827167E0,1.473913435E-3,-1.688931137E-3,-2.125433236E-1,2.125551442E-1
1.925783958E0,9.442107985E-4,-4.039436579E-3,-2.132394761E-1,2.132798226E-1
1.935739958E0,4.030799493E-3,-1.996195875E-3,-2.183567882E-1,2.184031114E-1
1.945695958E0,4.243319854E-3,3.284774721E-4,-2.209613621E-1,2.210023466E-1
1.955651958E0,5.080257542E-3,-1.118799672E-3,-2.246927321E-1,2.247529412E-1
1.965607958E0,2.478082897E-3,-2.529475838E-3,-2.245475948E-1,2.245755140E-1
1.975563958E0,3.011201741E-3,-2.559728920E-3,-2.194367051E-1,2.194722923E-1
1.985519958E0,2.393348375E-3,-1.391933300E-3,-2.159711421E-1,2.159888881E-1
1.995475958E0,4.812218249E-3,-3.418626264E-3,-2.175882757E-1,2.176683306E-1
2.005431958E0,1.546117361E-3,-2.106487751E-3,-2.150955498E-1,2.151114207E-1
2.015387958E0,1.767672948E-3,-1.855556853E-3,-2.201751173E-1,2.201900316E-1
2.025343958E0,2.283527283E-3,-6.163883954E-4,-2.219021767E-1,2.219147820E-1
2.035299958E0,3.131364472E-3,-1.144680195E-3,-2.213716805E-1,2.213967856E-1
2.045255958E0,2.764114412E-3,-4.711663350E-4,-2.160871774E-1,2.161053691E-1
2.055211958E0,1.532713650E-3,-1.131874509E-3,-2.124549448E-1,2.124634885E-1
2.065167958E0,9.582698694E-4,-2.475172281E-3,-2.162110806E-1,2.162273713E-1
2.075123958E0,2.032017801E-3,-2.255881205E-3,-2.150125504E-1,2.150339855E-1
2.085079958E0,2.941753715E-3,-1.151202247E-3,-2.169737071E-1,2.169967022E-1
2.095035958E0,1.387828961E-3,-1.856963150E-3,-2.194002122E-1,2.194124597E-1
2.104991958E0,3.482138738E-3,5.119182169E-4,-2.195392251E-1,2.195674354E-1
2.114947958E0,2.808828373E-3,-4.040063359E-3,-2.176980227E-1,2.177536239E-1
2.124903958E0,1.275577815E-4,-2.232841216E-3,-2.157640308E-1,2.157756215E-1
2.134859958E0,2.663229243E-4,-2.958046272E-3,-2.146020383E-1,2.146225892E-1
2.144815958E0,-3.557915334E-4,-3.785756417E-3,-2.153852731E-1,2.154188348E-1
2.154771958E0,1.425993629E-3,-2.170614898E-3,-2.137383372E-1,2.137541153E-1
2.164727958E0,-9.492796380E-4,-7.679285482E-4,-2.187570632E-1,2.187604707E-1
2.174683958E0,5.321328063E-4,-1.206141897E-3,-2.234389484E-1,2.234428374E-1
2.184639958E0,1.865311293E-3,-1.581647433E-3,-2.255636305E-1,2.255768880E-1
2.194595958E0,2.594372723E-3,-1.288173720E-3,-2.254032642E-1,2.254218748E-1
2.204551958E0,1.688099117E-3,-1.834920608E-3,-2.173290998E-1,2.173434016E-1
2.214507958E0,1.396502252E-3,-2.603014931E-3,-2.139648348E-1,2.139852248E-1
2.224463958E0,3.628763836E-3,-1.974509098E-3,-2.094531655E-1,2.094939025E-1
2.234419958E0,3.990893718E-3,4.118066281E-4,-2.126215845E-1,2.126594344E-1
2.244375958E0,4.075582139E-3,1.220075414E-3,-2.201133221E-1,2.201544311E-1
2.254331958E0,3.682007082E-3,-1.007961109E-4,-2.230323255E-1,2.230627391E-1
2.264287958E0,4.235944245E-3,-4.145167768E-4,-2.203382701E-1,2.203793736E-1
2.274244958E0,2.551672980E-3,-2.284041606E-3,-2.215020210E-1,2.215284929E-1
2.284200958E0,2.696282463E-3,4.552863538E-4,-2.201786935E-1,2.201956728E-1
2.294156958E0,4.133657552E-3,1.775342971E-4,-2.131039202E-1,2.131440814E-1
2.304112958E0,3.124053124E-3,-4.498709925E-3,-2.119278610E-1,2.119986235E-1
2.314068958E0,1.186153619E-3,-2.661867999E-3,-2.115401179E-1,2.115601899E-1
2.324024958E0,2.141163219E-3,-2.258931287E-3,-2.196148187E-1,2.196368729E-1
2.333980958E0,3.000180703E-3,-8.170455694E-4,-2.272893637E-1,2.273106322E-1
2.343936958E0,5.785314832E-3,-1.270049252E-3,-2.315142006E-1,2.315899565E-1
2.353892958E0,2.756081289E-3,-1.544978470E-3,-2.220973372E-1,2.221198104E-1
2.363848958E0,-1.265824423E-3,-2.774559893E-3,-2.140122503E-1,2.140339781E-1
2.373804958E0,7.822993211E-6,-3.187142313E-3,-2.097969651E-1,2.098211727E-1
2.383760958E0,2.078263788E-4,-2.827349119E-3,-2.126193792E-1,2.126382785E-1
2.393716958E0,6.366774323E-4,4.406357184E-4,-2.169861197E-1,2.169875012E-1
2.403672958E0,2.906756010E-3,-1.705073752E-3,-2.230450809E-1,2.230705373E-1
2.413628958E0,3.268420231E-3,5.321763456E-4,-2.225579023E-1,2.225825368E-1
2.423584958E0,1.528311055E-3,-2.393305302E-3,-2.191778123E-1,2.191962068E-1
2.433540958E0,2.479236107E-3,-2.040103078E-3,-2.176056653E-1,2.176293505E-1
2.443496958E0,1.712245634E-3,-1.382567920E-3,-2.127576470E-1,2.127690289E-1
2.453452958E0,8.653513505E-4,-3.895657137E-4,-2.164977044E-1,2.164997843E-1
2.463408958E0,-6.113714771E-4,-3.363024443E-4,-2.152060717E-1,2.152072029E-1
2.473364958E0,5.209064111E-4,-2.034996636E-3,-2.200669348E-1,2.200769601E-1
2.483320958E0,3.050110303E-3,-1.220601611E-3,-2.251580954E-1,2.251820618E-1
2.493276958E0,3.703016089E-3,9.365612641E-4,-2.252902836E-1,2.253226605E-1
2.503232958E0,3.780595143E-4,-2.533270977E-3,-2.240878642E-1,2.241025017E-1
2.513188958E0,1.837409101E-3,-1.557227224E-3,-2.183461934E-1,2.183594770E-1
2.523144958E0,2.619046718E-3,8.524013683E-4,-2.133474350E-1,2.133652128E-1
2.533100958E0,2.385903616E-3,-1.560742036E-3,-2.183162868E-1,2.183349022E-1
2.543056958E0,2.118522301E-3,-9.319698438E-4,-2.177817971E-1,2.177940950E-1
2.553012958E0,2.288096352E-3,-1.141635701E-3,-2.190834731E-1,2.190983955E-1
2.562968958E0,1.647339785E-3,-7.096705958E-4,-2.181279361E-1,2.181353109E-1
2.572924958E0,2.434794558E-3,-3.937453963E-3,-2.201419175E-1,2.201905893E-1
2.582880958E0,5.336308852E-3,-1.182147302E-3,-2.209435254E-1,2.210111198E-1
2.592836958E0,3.492258256E-3,-1.424960792E-3,-2.192901820E-1,2.193226169E-1
2.602792958E0,1.868262654E-3,-2.222045325E-3,-2.174134403E-1,2.174328217E-1
2.612748958E0,2.404707484E-3,-3.981450573E-4,-2.131952643E-1,2.132091974E-1
2.622704958E0,8.140014252E-4,-1.092164777E-3,-2.148589343E-1,2.148632520E-1
2.632660958E0,1.085632131E-3,-3.646688536E-3,-2.191957533E-1,2.192287737E-1
2.642616958E0,1.580447424E-3,-7.630176842E-4,-2.246357948E-1,2.246426502E-1
2.652573958E0,6.121824961E-3,-7.898965850E-4,-2.269176245E-1,2.270015616E-1
2.662529958E0,3.463723930E-3,-2.142516896E-3,-2.207153887E-1,2.207529627E-1
2.672485958E0,2.792521846E-3,4.398645833E-4,-2.143769711E-1,2.143956096E-1
2.682441958E0,1.464403351E-3,-2.365509048E-3,-2.143479437E-1,2.143659979E-1
2.692397958E0,5.043178098E-4,-1.733005978E-3,-2.131385207E-1,2.131461627E-1
2.702353958E0,3.162685316E-3,6.372071803E-4,-2.168022245E-1,2.168262280E-1
2.712309958E0,5.348285660E-3,-6.275577471E-4,-2.177467793E-1,2.178133556E-1
2.722265958E0,2.289911266E-3,-1.342350617E-3,-2.207356393E-1,2.207515981E-1
2.732221958E0,4.589851014E-3,-2.416008152E-3,-2.183086723E-1,2.183702824E-1
2.742177958E0,2.333354671E-3,-1.349944621E-3,-2.135195136E-1,2.135365299E-1
2.752133958E0,3.784145927E-3,-2.334914170E-3,-2.140004337E-1,2.140466239E-1
2.762089958E0,3.645927878E-3,-1.757541671E-3,-2.146989703E-1,2.147371174E-1
2.772045958E0,2.141706645E-3,-2.285056747E-3,-2.183504105E-1,2.183728695E-1
2.782001958E0,4.136414267E-3,9.847246110E-5,-2.259076536E-1,2.259455411E-1
2.791957958E0,3.941739909E-3,-2.372534946E-3,-2.313565165E-1,2.314022557E-1
2.801913958E0,3.374220105E-3,-2.063342370E-3,-2.252962291E-1,2.253309424E-1
2.811869958E0,2.244946547E-3,-2.409228124E-3,-2.214615345E-1,2.214860163E-1
2.821825958E0,1.547730877E-3,-1.636645757E-3,-2.203089297E-1,2.203204452E-1
2.831781958E0,2.497147652E-4,-4.699694924E-3,-2.104809731E-1,2.105335829E-1
2.841737958E0,1.759460778E-3,-7.973657921E-4,-2.109861672E-1,2.109950100E-1
2.851693958E0,1.541464822E-3,-1.493236050E-3,-2.137548178E-1,2.137655913E-1
2.861649958E0,-1.134745777E-3,-2.755041234E-3,-2.156123817E-1,2.156329684E-1
2.871605958E0,1.779517042E-3,-3.779260442E-3,-2.267166078E-1,2.267550876E-1
2.881561958E0,3.900458571E-3,-5.427217111E-4,-2.274574935E-1,2.274915811E-1
2.891517958E0,2.869136166E-3,6.933556870E-4,-2.304196209E-1,2.304385262E-1
2.901473958E0,1.717585372E-3,4.017399624E-4,-2.199246287E-1,2.199317026E-1
2.911429958E0,4.743208992E-4,-1.513395458E-3,-2.126341313E-1,2.126400460E-1
2.921385708E0,6.820474518E-4,-2.545903437E-3,-2.050049752E-1,2.050219175E-1
2.931341708E0,4.949845606E-5,-6.218329072E-4,-2.114091963E-1,2.114101166E-1
2.941297708E0,2.412460744E-4,-7.765619084E-4,-2.202290595E-1,2.202305607E-1
2.951253708E0,2.457933966E-3,-7.293177769E-4,-2.262819409E-1,2.262964651E-1
2.961209708E0,4.642915446E-4,-9.231958538E-4,-2.275458723E-1,2.275482188E-1
2.971165708E0,2.558333566E-3,-1.774815843E-3,-2.226961404E-1,2.227179068E-1
2.981121708E0,8.358009509E-4,-9.103538468E-4,-2.163583487E-1,2.163618783E-1
2.991077708E0,4.080425948E-3,-5.084034055E-4,-2.105402797E-1,2.105804306E-1
3.001033708E0,1.753888326E-3,-1.674601808E-3,-2.090779245E-1,2.090919868E-1
3.010989708E0,-1.007243409E-3,-4.746532068E-4,-2.105819732E-1,2.105849170E-1
3.020945708E0,1.647928031E-3,-7.822485641E-4,-2.130523324E-1,2.130601416E-1
3.030902708E0,2.020407468E-3,-3.833966330E-4,-2.197999954E-1,2.198096154E-1
3.040858708E0,1.548229018E-3,1.790635288E-4,-2.229526490E-1,2.229580964E-1
3.050814708E0,3.176749218E-3,-9.787082672E-5,-2.219769657E-1,2.219997176E-1
3.060770708E0,3.014296293E-3,5.064001307E-4,-2.146412879E-1,2.146630497E-1
3.070726708E0,-6.986549124E-5,-3.602318466E-4,-2.145778239E-1,2.145781376E-1
3.080682708E0,2.129639266E-3,-7.146988064E-4,-2.145469338E-1,2.145586935E-1
3.090638708E0,3.593829228E-3,-2.243310213E-3,-2.159205973E-1,2.159621550E-1
3.100594708E0,3.914207220E-3,-1.540501602E-3,-2.139839530E-1,2.140252936E-1
3.110550708E0,3.123403993E-3,-1.434434205E-3,-2.197258770E-1,2.197527572E-1
3.120506708E0,2.384376712E-3,7.285857573E-4,-2.225466967E-1,2.225606620E-1
3.130462708E0,6.357616512E-4,-1.223932952E-3,-2.248452008E-1,2.248494308E-1
3.140418708E0,6.948518567E-3,-2.178143710E-3,-2.208845466E-1,2.210045456E-1
3.150374708E0,8.483417332E-5,-7.356144488E-4,-2.204492837E-1,2.204505274E-1
3.160330708E0,2.061165869E-3,-2.465870231E-3,-2.145647705E-1,2.145888386E-1
3.170286708E0,4.235311644E-5,-3.359578550E-3,-2.150360197E-1,2.150622662E-1
3.180242708E0,1.520407503E-3,-3.215769306E-3,-2.148839533E-1,2.149133923E-1
3.190198708E0,2.259981353E-3,-2.898510545E-3,-2.183222175E-1,2.183531532E-1
3.200154708E0,1.469288720E-3,-1.002872363E-3,-2.172529697E-1,2.172602527E-1
3.210110708E0,3.348461469E-4,-8.535021916E-4,-2.164918631E-1,2.164938045E-1
3.220066708E0,4.071527626E-3,-2.543544397E-3,-2.212354839E-1,2.212875647E-1
3.230022708E0,2.145353472E-3,-4.453510046E-4,-2.208525389E-1,2.208634076E-1
3.239978708E0,1.325898804E-3,4.774341360E-4,-2.189566344E-1,2.189611694E-1
3.249934708E0,3.656568937E-3,9.268550202E-4,-2.166650891E-1,2.166979243E-1
3.259890708E0,9.938463336E-5,-6.555952132E-4,-2.092777342E-1,2.092787846E-1
3.269846708E0,-5.865952116E-4,-8.174702525E-4,-2.130292803E-1,2.130316564E-1
3.279802708E0,1.934446045E-4,-2.147985622E-3,-2.178709060E-1,2.178815801E-1
3.289758708E0,4.347173497E-3,-3.336061724E-3,-2.280356586E-1,2.281014880E-1
3.299714708E0,5.038529634E-3,7.814513519E-4,-2.287049145E-1,2.287617436E-1
3.309670708E0,3.294422990E-3,9.866412729E-4,-2.262543142E-1,2.262804485E-1
3.319626708E0,1.297851093E-3,-3.157238476E-3,-2.177945077E-1,2.178212574E-1
3.329582708E0,7.632562774E-4,-2.123308368E-3,-2.160425931E-1,2.160543752E-1
3.339538708E0,9.422207368E-4,-4.115885124E-3,-2.130212337E-1,2.130630758E-1
3.349494708E0,2.175517380E-3,-1.889210194E-3,-2.118551433E-1,2.118747360E-1
3.359450708E0,3.516418859E-3,-2.178429626E-3,-2.126354575E-1,2.126756887E-1
3.369406708E0,1.614776207E-3,-1.598750241E-3,-2.144985795E-1,2.145106154E-1
3.379362708E0,2.237423323E-3,-1.381702721E-3,-2.192973197E-1,2.193130857E-1
3.389318708E0,1.258647186E-3,5.777115002E-4,-2.247243822E-1,2.247286494E-1
3.399274708E0,4.498915281E-3,1.035242341E-3,-2.275566608E-1,2.276034838E-1
3.409230708E0,3.409037367E-3,-2.010098659E-3,-2.232716233E-1,2.233066944E-1
3.419187708E0,1.345087541E-3,3.755604848E-4,-2.158131748E-1,2.158176933E-1
3.429142708E0,2.031685784E-3,2.768067643E-4,-2.152785063E-1,2.152882710E-1
3.439099708E0,3.546758089E-3,-1.379678957E-3,-2.155887634E-1,2.156223502E-1
3.449055708E0,2.697822638E-3,-5.311612040E-4,-2.217931896E-1,2.218102327E-1
3.459011708E0,3.831796814E-3,-3.078208305E-3,-2.215052992E-1,2.215598240E-1
3.468967708E0,2.561233938E-3,-1.296062954E-3,-2.212697715E-1,2.212883898E-1
3.478923708E0,2.382269595E-3,-2.479305491E-3,-2.230461091E-1,2.230726091E-1
3.488879708E0,1.670965459E-3,1.554139890E-3,-2.212122679E-1,2.212240379E-1
3.498835708E0,-5.715986481E-5,-2.195058390E-3,-2.213395685E-1,2.213504600E-1
3.508791708E0,1.861922210E-3,5.310494453E-4,-2.146003544E-1,2.146090886E-1
3.518747708E0,1.303457189E-3,-1.480435953E-3,-2.155545652E-1,2.155635898E-1
3.528703708E0,4.954306642E-4,-3.271067515E-3,-2.207066566E-1,2.207314513E-1
3.538659708E0,2.511709929E-3,9.756097570E-4,-2.235703468E-1,2.235865839E-1
3.548615708E0,2.510932507E-3,-2.079713158E-3,-2.241092324E-1,2.241329473E-1
3.558571708E0,1.347397454E-3,-2.262139693E-3,-2.226705849E-1,2.226861517E-1
3.568527708E0,3.202013439E-3,-1.485034823E-3,-2.169969976E-1,2.170257017E-1
3.578483708E0,1.287733205E-3,-2.729263157E-3,-2.146603465E-1,2.146815584E-1
3.588439708E0,4.241621587E-3,-1.946716569E-3,-2.134427726E-1,2.134937897E-1
3.598395708E0,3.442406887E-3,-2.541666850E-3,-2.165179253E-1,2.165602046E-1
3.608351708E0,1.186266425E-3,-2.009978518E-3,-2.170638889E-1,2.170764361E-1
3.618307708E0,-9.402677533E-4,-1.387597062E-3,-2.174942642E-1,2.175007230E-1
3.628263708E0,2.486522775E-3,-9.217718616E-4,-2.170759439E-1,2.170921415E-1
3.638219708E0,-6.663937238E-4,-2.248026431E-3,-2.188043296E-1,2.188168923E-1
3.648175708E0,7.991844323E-4,-2.100644633E-3,-2.191153318E-1,2.191268583E-1
3.658131708E0,6.484495243E-4,-2.526484430E-3,-2.203955054E-1,2.204109399E-1
3.668087708E0,8.937827079E-5,-4.338470288E-3,-2.168615460E-1,2.169049572E-1
3.678043708E0,7.746096235E-4,-1.400204375E-3,-2.173297405E-1,2.173356315E-1
3.687999708E0,2.537407679E-3,-7.825084031E-4,-2.164787054E-1,2.164949899E-1
3.697955708E0,1.449506264E-3,-1.633388922E-3,-2.126626670E-1,2.126738794E-1
3.707911708E0,3.667271463E-3,7.315631956E-5,-2.142546624E-1,2.142860579E-1
3.717867708E0,2.491485793E-3,6.079189479E-4,-2.134919316E-1,2.135073346E-1
3.727823708E0,-2.392408205E-4,5.369866267E-4,-2.181408256E-1,2.181416178E-1
3.737779708E0,1.325364574E-4,7.484415546E-4,-2.232823223E-1,2.232836160E-1
3.747735708E0,2.950944006E-3,4.507275298E-4,-2.243676484E-1,2.243875060E-1
3.757691708E0,1.144521753E-3,-9.980322793E-4,-2.189089805E-1,2.189142475E-1
3.767647708E0,2.715826733E-3,2.604573965E-4,-2.136925608E-1,2.137099766E-1
3.777603708E0,2.396513708E-3,-1.392830163E-4,-2.113303393E-1,2.113439732E-1
3.787559708E0,-6.898869178E-4,-1.953715459E-3,-2.102443725E-1,2.102545817E-1
3.797515708E0,3.687018296E-3,-1.284729689E-3,-2.164434195E-1,2.164786328E-1
3.807471708E0,1.309439773E-3,1.082254574E-3,-2.222617567E-1,2.222682487E-1
3.817427708E0,1.199451275E-3,-2.485271543E-4,-2.246958911E-1,2.246992300E-1
3.827384708E0,-5.087336758E-4,-1.841292717E-3,-2.230383754E-1,2.230465558E-1
3.837340708E0,1.018322888E-3,-2.137968317E-3,-2.194034308E-1,2.194162103E-1
3.847296708E0,1.517687459E-3,-1.873566769E-3,-2.171356678E-1,2.171490545E-1
3.857252708E0,6.015599938E-4,-3.688810393E-4,-2.154914290E-1,2.154925843E-1
3.867208708E0,9.488022770E-4,-1.581185497E-3,-2.149698138E-1,2.149777226E-1
3.877164708E0,2.544035669E-3,-5.309611559E-3,-2.207472771E-1,2.208257785E-1
3.887120708E0,-4.275088431E-4,-2.518725581E-3,-2.221817374E-1,2.221964248E-1
3.897076708E0,4.774332629E-4,-1.591945998E-3,-2.210357785E-1,2.210420268E-1
3.907032708E0,3.531394526E-3,-2.759299241E-3,-2.198270559E-1,2.198727336E-1
3.916988708E0,3.021399258E-3,-1.816255972E-4,-2.167492360E-1,2.167703696E-1
3.926944792E0,3.254389740E-4,1.434808597E-3,-2.150144875E-1,2.150195210E-1
3.936900792E0,-1.091628917E-3,-1.985755749E-3,-2.178832442E-1,2.178950274E-1
3.946856792E0,-1.326162601E-3,1.848535612E-4,-2.189474255E-1,2.189515198E-1
3.956812792E0,1.493858523E-3,-1.501992345E-3,-2.225216627E-1,2.225317460E-1
3.966768792E0,2.248957288E-3,-7.157279179E-4,-2.171970159E-1,2.172098381E-1
3.976724792E0,2.646300942E-3,-4.274510778E-3,-2.176545411E-1,2.177125941E-1
3.986680792E0,-2.667856752E-4,-3.229734488E-3,-2.145483047E-1,2.145727788E-1
3.996636792E0,1.378781511E-3,1.249702647E-3,-2.179222554E-1,2.179302003E-1
4.006592792E0,1.904487843E-3,-1.674875617E-3,-2.164761871E-1,2.164910434E-1
4.016548792E0,2.694647759E-3,-2.373689786E-3,-2.197457552E-1,2.197750952E-1
4.026504792E0,2.554387553E-3,2.643065527E-4,-2.227126211E-1,2.227274261E-1
4.036460792E0,1.003362588E-3,-3.114712425E-3,-2.221813202E-1,2.222054167E-1
4.046416792E0,1.679279609E-3,-2.625672147E-3,-2.218796164E-1,2.219015059E-1
4.056372792E0,1.643060707E-3,-1.060266048E-3,-2.173903286E-1,2.173991233E-1
4.066328792E0,9.229767602E-5,-2.242625691E-3,-2.154923975E-1,2.155040865E-1
4.076284792E0,1.826814492E-3,4.373136908E-4,-2.200631946E-1,2.200712115E-1
4.086240792E0,1.227263710E-3,9.921165183E-4,-2.272719294E-1,2.272774084E-1
4.096196792E0,6.948978407E-4,2.148461528E-3,-2.255869508E-1,2.255982516E-1
4.106152792E0,3.000370227E-3,-1.462054439E-3,-2.227564156E-1,2.227814187E-1
4.116108792E0,1.963335322E-3,-3.175532445E-3,-2.164841443E-1,2.165163353E-1
4.126064792E0,-1.111150719E-3,-1.820221543E-3,-2.145034671E-1,2.145140677E-1
4.136020792E0,1.000203309E-3,-1.020474359E-3,-2.161844522E-1,2.161891744E-1
4.145976792E0,1.059517963E-3,3.835763782E-4,-2.187178731E-1,2.187207757E-1
4.155932792E0,2.013728488E-3,-7.688440382E-5,-2.216257751E-1,2.216349368E-1
4.165888792E0,-1.349284314E-3,-2.845237963E-3,-2.191805094E-1,2.192031288E-1
4.175844792E0,1.974606887E-3,-1.917925663E-3,-2.214479297E-1,2.214650381E-1
4.185800792E0,1.157097053E-3,3.983015195E-4,-2.240126133E-1,2.240159558E-1
4.195756792E0,9.267336573E-4,-3.620311618E-4,-2.242096812E-1,2.242118887E-1
4.205712792E0,2.005790360E-3,2.377144992E-4,-2.186145931E-1,2.186239238E-1
4.215668792E0,1.185802976E-3,-4.610987380E-4,-2.154259980E-1,2.154297550E-1
4.225624792E0,7.835323922E-4,-1.135963947E-3,-2.097727656E-1,2.097773046E-1
4.235581792E0,9.616978932E-4,-2.919482067E-3,-2.159297168E-1,2.159515938E-1
4.245537792E0,4.012472928E-3,-7.799314335E-4,-2.249447852E-1,2.249819207E-1
4.255493792E0,2.062240150E-3,-1.444922760E-3,-2.263807505E-1,2.263947545E-1
4.265449792E0,1.392924460E-3,-9.538326412E-4,-2.281497717E-1,2.281560176E-1
4.275405792E0,2.933563199E-3,-1.076071523E-3,-2.235206664E-1,2.235425061E-1
4.285361792E0,1.456324244E-3,6.189234555E-4,-2.224601954E-1,2.224658232E-1
4.295317792E0,9.593784343E-4,-5.794987082E-4,-2.216564566E-1,2.216592903E-1
4.305273792E0,-3.035527188E-4,-4.546800628E-4,-2.203044742E-1,2.203051526E-1
4.315229792E0,2.409409266E-3,-1.483991742E-3,-2.167616785E-1,2.167801484E-1
4.325185792E0,2.419540891E-3,-2.744007856E-3,-2.194046080E-1,2.194351061E-1
4.335141792E0,1.854418078E-3,-1.414556988E-3,-2.195273787E-1,2.195397682E-1
4.345097792E0,7.277090335E-4,-2.863815054E-3,-2.153728753E-1,2.153931439E-1
4.355053792E0,2.408696339E-3,-9.391484782E-4,-2.139973491E-1,2.140129652E-1
4.365009792E0,1.926615369E-3,-1.187816262E-3,-2.129375041E-1,2.129495325E-1
4.374965792E0,1.622216078E-3,-2.923132852E-3,-2.159505934E-1,2.159764688E-1
4.384921792E0,1.913837856E-3,-1.135975122E-3,-2.205811739E-1,2.205924013E-1
4.394877792E0,1.208899077E-3,3.231707960E-4,-2.245154679E-1,2.245189551E-1
4.404833792E0,1.188674942E-3,-1.021724194E-3,-2.270640135E-1,2.270694235E-1
4.414789792E0,-1.871140557E-4,-1.892577857E-3,-2.182268500E-1,2.182351368E-1
4.424745792E0,-6.084685447E-5,-2.412186936E-3,-2.137564272E-1,2.137700459E-1
4.434701792E0,2.042517764E-3,-3.073449247E-3,-2.155007869E-1,2.155323807E-1
4.444657792E0,7.333047688E-5,-6.338329986E-4,-2.185884118E-1,2.185893431E-1
4.454613792E0,1.329543535E-3,7.384931669E-4,-2.192667276E-1,2.192720020E-1
4.464569792E0,2.882552799E-4,9.077861905E-4,-2.189270854E-1,2.189291572E-1
4.474525792E0,7.726842887E-4,-1.281332225E-3,-2.177667469E-1,2.177718873E-1
4.484481792E0,1.992131351E-3,-1.459233463E-4,-2.178989947E-1,2.179081498E-1
4.494437792E0,2.419302473E-3,-6.244927645E-4,-2.187304348E-1,2.187447053E-1
4.504393792E0,2.988925669E-3,-5.036359653E-4,-2.152653486E-1,2.152866870E-1
4.514349792E0,1.502881758E-3,-1.829623245E-3,-2.175316960E-1,2.175445815E-1
4.524305792E0,2.187816426E-5,-1.132722013E-3,-2.193788886E-1,2.193818140E-1
4.534261792E0,2.770260209E-3,-1.233922318E-3,-2.201187164E-1,2.201396062E-1
4.544217792E0,1.723093330E-3,-1.193955541E-5,-2.184310555E-1,2.184378521E-1
4.554173792E0,1.074613538E-3,-8.681453764E-4,-2.194094956E-1,2.194138447E-1
4.564129792E0,6.983708590E-5,-1.590623520E-3,-2.164960802E-1,2.165019346E-1
4.574085792E0,2.258689143E-3,-1.983706839E-3,-2.240211070E-1,2.240412755E-1
4.584041792E0,3.773403587E-3,-1.585949212E-4,-2.229900062E-1,2.230219868E-1
4.593997792E0,8.889340097E-4,1.376717351E-3,-2.210661322E-1,2.210722062E-1
4.603953792E0,-1.208104659E-4,-1.758562401E-3,-2.183495462E-1,2.183566611E-1
4.613909792E0,4.578869790E-3,8.381251246E-5,-2.130743563E-1,2.131235660E-1
4.623865792E0,7.379645831E-4,-2.633197233E-3,-2.130590081E-1,2.130765573E-1
4.633821792E0,8.945584996E-4,-1.420760527E-4,-2.149487883E-1,2.149506967E-1
4.643777792E0,1.081931638E-3,-1.279685646E-3,-2.170280069E-1,2.170344764E-1
4.653734792E0,2.059844323E-3,-6.114980206E-4,-2.184405476E-1,2.184511152E-1
4.663690792E0,2.298591658E-3,-8.532395586E-4,-2.228880972E-1,2.229015823E-1
4.673646792E0,6.144084036E-4,7.736859843E-4,-2.182339430E-1,2.182361793E-1
4.683602792E0,3.024717793E-3,-1.532870345E-3,-2.173792124E-1,2.174056590E-1
4.693558792E0,-6.539063761E-4,-1.017016359E-3,-2.123514265E-1,2.123548687E-1
4.703514792E0,7.858883473E-4,-1.756535843E-3,-2.109403610E-1,2.109491383E-1
4.713470792E0,2.044498222E-3,2.312774770E-3,-2.144544125E-1,2.144766279E-1
4.723426792E0,4.271270009E-4,1.185210422E-4,-2.193560153E-1,2.193564632E-1
4.733382792E0,1.252440619E-3,2.029426396E-4,-2.263438851E-1,2.263474411E-1
4.743338792E0,1.309395651E-3,-8.568111807E-4,-2.267397344E-1,2.267451340E-1
4.753294792E0,7.903455407E-4,-1.796375029E-3,-2.206869125E-1,2.206956388E-1
4.763250792E0,4.748446809E-4,-1.174303703E-3,-2.138930112E-1,2.138967618E-1
4.773206792E0,3.462412860E-5,-1.659797505E-3,-2.114303857E-1,2.114369034E-1
4.783162792E0,1.229297835E-3,-1.834024675E-3,-2.153958082E-1,2.154071239E-1
4.793118792E0,2.484179335E-3,1.713363454E-4,-2.217141539E-1,2.217281365E-1
4.803074792E0,3.107375465E-3,1.686736941E-4,-2.260266840E-1,2.260481058E-1
4.813030792E0,4.155063070E-3,5.788635463E-5,-2.203238010E-1,2.203629851E-1
4.822986792E0,3.249172587E-3,-2.305938862E-3,-2.148143202E-1,2.148512663E-1
4.832942792E0,-2.488075290E-3,-1.224162988E-3,-2.113255709E-1,2.113437627E-1
4.842898792E0,2.758548129E-3,-1.788445748E-3,-2.138720900E-1,2.138973562E-1
4.852854792E0,2.557094849E-4,6.964243948E-5,-2.150042057E-1,2.150043690E-1
4.862810792E0,2.457102528E-5,1.097720116E-3,-2.244848609E-1,2.244875461E-1
4.872766792E0,3.257914912E-3,-1.152917743E-3,-2.194528133E-1,2.194800230E-1
4.882722792E0,4.131518072E-4,2.633463591E-4,-2.215948105E-1,2.215953521E-1
4.892678792E0,1.815306139E-3,1.520263031E-4,-2.167755663E-1,2.167832203E-1
4.902634792E0,9.296486387E-4,8.480055258E-4,-2.116698921E-1,2.116736322E-1
4.912590792E0,2.511832630E-3,-5.008848384E-4,-2.105950415E-1,2.106106163E-1
4.922546792E0,-4.125008127E-5,-3.822200932E-3,-2.173883468E-1,2.174219498E-1
4.932503208E0,2.262916882E-3,-2.622446977E-3,-2.269610912E-1,2.269875215E-1
4.942459208E0,4.951336887E-3,-1.528793946E-3,-2.288857698E-1,2.289444225E-1
4.952415208E0,4.693276715E-3,6.025340408E-4,-2.245482802E-1,2.245981301E-1
4.962371208E0,2.218893031E-3,3.375904635E-4,-2.165098935E-1,2.165215265E-1
4.972327208E0,2.171488944E-3,-5.076965317E-4,-2.071502060E-1,2.071622093E-1
4.982283208E0,4.811636172E-4,-8.147181943E-4,-2.040564567E-1,2.040586504E-1
4.992239208E0,2.186652040E-3,-2.991296351E-4,-2.160068601E-1,2.160181348E-1
5.002195208E0,1.450798940E-3,6.462149322E-4,-2.227167189E-1,2.227223817E-1
5.012151208E0,1.791683608E-3,-2.402571030E-3,-2.239494920E-1,2.239695458E-1
5.022107208E0,3.568154760E-3,-1.640905626E-3,-2.256351411E-1,2.256693183E-1
5.032063208E0,3.477607388E-3,7.253121585E-4,-2.195397019E-1,2.195684416E-1
5.042019208E0,2.070697490E-3,-4.597439431E-3,-2.153653651E-1,2.154243829E-1
5.051975208E0,1.244851155E-3,-4.865834489E-4,-2.124515921E-1,2.124557963E-1
5.061931208E0,2.663169289E-5,5.228724331E-5,-2.119077146E-1,2.119077227E-1
5.071888208E0,5.190501688E-4,-3.123532981E-3,-2.170795798E-1,2.171026712E-1
5.081844208E0,9.368861793E-4,-2.351594158E-3,-2.249668092E-1,2.249810502E-1
5.091800208E0,3.621086245E-3,-1.377942972E-3,-2.241121978E-1,2.241456852E-1
5.101756208E0,6.905600312E-4,-1.292142086E-3,-2.195959985E-1,2.196008859E-1
5.111712208E0,4.082649830E-4,1.845806837E-4,-2.121870816E-1,2.121875546E-1
5.121668208E0,1.663526986E-3,-1.153973863E-3,-2.091336846E-1,2.091434843E-1
5.131624208E0,1.337289694E-3,-8.232090622E-4,-2.126644999E-1,2.126702977E-1
5.141580208E0,2.326618123E-4,-7.697716355E-4,-2.156969309E-1,2.156984299E-1
5.151536208E0,1.449193805E-3,-7.529938594E-4,-2.202837020E-1,2.202897559E-1
5.161492208E0,-4.005317460E-4,-8.350433782E-4,-2.200977504E-1,2.200996989E-1
5.171448208E0,2.559571760E-3,-3.870576620E-6,-2.188404649E-1,2.188554329E-1
5.181404208E0,2.035275102E-4,-3.404032439E-3,-2.186727077E-1,2.186992957E-1
5.191360208E0,2.680000849E-3,-2.021901309E-5,-2.176889330E-1,2.177054303E-1
5.201316208E0,3.018140094E-3,-4.230523482E-4,-2.142508626E-1,2.142725374E-1
5.211272208E0,8.692353731E-4,-2.885628492E-4,-2.174085677E-1,2.174104968E-1
5.221228208E0,-3.429889330E-4,-8.410755545E-4,-2.177893817E-1,2.177912759E-1
5.231184208E0,-1.499097561E-4,1.189941540E-4,-2.203806341E-1,2.203807172E-1
5.241140208E0,2.559778281E-3,-6.015524268E-4,-2.229721546E-1,2.229876590E-1
5.251096208E0,-1.255466253E-3,1.927118748E-3,-2.196892798E-1,2.197013192E-1
5.261052208E0,2.317289123E-3,4.854239523E-5,-2.134604156E-1,2.134729988E-1
5.271008208E0,5.739838816E-4,-1.304076985E-3,-2.124894261E-1,2.124942030E-1
5.280964208E0,9.457325796E-4,-1.063309610E-4,-2.146032751E-1,2.146053853E-1
5.290920208E0,4.094121512E-3,-4.655914381E-4,-2.186243832E-1,2.186632103E-1
5.300876208E0,5.371303996E-4,-1.308519393E-3,-2.207284868E-1,2.207330188E-1
5.310832208E0,1.396266161E-3,-2.353011630E-3,-2.223210633E-1,2.223378992E-1
5.320788208E0,3.248744644E-3,1.147296280E-4,-2.202222794E-1,2.202462709E-1
5.330744208E0,6.790604675E-4,1.082255505E-3,-2.176494002E-1,2.176531503E-1
5.340700208E0,1.144141424E-4,8.855434135E-4,-2.135405242E-1,2.135423910E-1
5.350656208E0,1.451320946E-3,-6.387382746E-5,-2.124246508E-1,2.124296182E-1
5.360612208E0,7.401274634E-4,-1.085836440E-3,-2.164673209E-1,2.164713095E-1
5.370568208E0,-1.337937079E-3,1.828940585E-4,-2.215728611E-1,2.215769760E-1
5.380524208E0,2.322506392E-3,-3.102058545E-4,-2.268142253E-1,2.268263280E-1
5.390480208E0,1.090794336E-3,2.109166235E-5,-2.276818901E-1,2.276845040E-1
5.400436208E0,3.232837422E-3,2.689091489E-4,-2.256208956E-1,2.256442157E-1
5.410392208E0,6.716754870E-4,-5.220500752E-4,-2.146691829E-1,2.146708685E-1
5.420348208E0,8.605199982E-4,-4.444792867E-4,-2.060355395E-1,2.060378159E-1
5.430304208E0,2.736983355E-3,-6.087962538E-4,-2.081045508E-1,2.081234388E-1
5.440260208E0,-2.316195169E-4,-3.581546247E-3,-2.132245302E-1,2.132547336E-1
5.450216208E0,3.026491730E-3,-2.161016688E-3,-2.235410810E-1,2.235720119E-1
5.460172208E0,1.012219698E-3,-9.263688698E-4,-2.260650396E-1,2.260692038E-1
5.470128208E0,3.007992636E-3,-1.469121315E-3,-2.232127935E-1,2.232378944E-1
5.480084208E0,3.019207157E-3,3.697751090E-4,-2.205690145E-1,2.205899874E-1
5.490041208E0,2.448260784E-5,-1.582321711E-3,-2.129883170E-1,2.129941960E-1
5.499997208E0,5.586481420E-4,-3.249980509E-4,-2.111587971E-1,2.111597862E-1
5.509953208E0,3.659366630E-3,-2.728501335E-3,-2.113052607E-1,2.113545572E-1
5.519909208E0,1.770953415E-3,5.401857197E-5,-2.180501372E-1,2.180573354E-1
5.529865208E0,4.818941001E-3,-1.168373041E-3,-2.294955999E-1,2.295491617E-1
5.539821208E0,3.158928128E-3,2.088062465E-3,-2.352066040E-1,2.352370834E-1
5.549777208E0,3.219648264E-3,1.685392112E-3,-2.319594175E-1,2.319878834E-1
5.559733208E0,2.726775419E-4,-2.229366452E-3,-2.226241827E-1,2.226355119E-1
5.569689208E0,4.228798498E-4,1.485742629E-3,-2.063727826E-1,2.063785639E-1
5.579645208E0,1.223831205E-3,-2.549428493E-3,-2.006475478E-1,2.006674757E-1
5.589601208E0,2.514399122E-3,-3.051968291E-3,-2.078641802E-1,2.079017896E-1
5.599557208E0,3.277990036E-3,7.430855185E-4,-2.180744410E-1,2.181003420E-1
5.609513208E0,2.721922006E-3,7.537379861E-4,-2.284607738E-1,2.284782313E-1
5.619469208E0,1.695534680E-3,2.123881131E-4,-2.302031964E-1,2.302095384E-1
5.629425208E0,2.172773238E-3,3.103930503E-4,-2.267109901E-1,2.267216141E-1
5.639381208E0,-3.035069676E-4,-3.117686138E-4,-2.201601267E-1,2.201605566E-1
5.649337208E0,3.723991569E-3,-3.663627431E-4,-2.140191495E-1,2.140518599E-1
5.659293208E0,5.926938029E-4,1.172675751E-3,-2.090630829E-1,2.090672119E-1
5.669249208E0,-1.423386857E-4,-5.157683045E-4,-2.061189711E-1,2.061196656E-1
5.679205208E0,1.980017871E-3,-1.484622248E-3,-2.159280330E-1,2.159422145E-1
5.689161208E0,-1.057317248E-3,1.282135956E-3,-2.232599854E-1,2.232661705E-1
5.699117208E0,2.071251394E-3,1.245084219E-3,-2.268804163E-1,2.268932868E-1
5.709073208E0,4.068888258E-3,-1.176549122E-4,-2.238579839E-1,2.238949903E-1
5.719029208E0,-8.481019177E-5,-1.939693466E-4,-2.140485644E-1,2.140486691E-1
5.728985208E0,2.244923264E-3,1.098996028E-3,-2.111039013E-1,2.111186979E-1
5.738941208E0,3.667745274E-3,-2.639722079E-4,-2.122735083E-1,2.123053564E-1
5.748897208E0,2.714333590E-3,-1.677578315E-3,-2.207852304E-1,2.208082875E-1
5.758853208E0,3.141945694E-3,-1.629471779E-3,-2.226877511E-1,2.227158761E-1
5.768809208E0,2.034869744E-3,-4.355888814E-5,-2.221077085E-1,2.221170339E-1
5.778765208E0,2.299089683E-3,-4.965346307E-4,-2.215419263E-1,2.215544119E-1
5.788721208E0,1.698014326E-3,-7.071904838E-4,-2.180196345E-1,2.180273937E-1
5.798677208E0,1.711486839E-3,-2.500857227E-3,-2.114618123E-1,2.114835254E-1
5.808633208E0,-5.234378041E-4,-1.748520881E-4,-2.099201083E-1,2.099208337E-1
5.818589208E0,-6.964021013E-4,-9.553367272E-4,-2.115464211E-1,2.115497244E-1
5.828545208E0,-8.362180670E-4,-8.301688358E-4,-2.194749117E-1,2.194780748E-1
5.838501208E0,1.379565801E-3,-1.759543084E-3,-2.226385921E-1,2.226498190E-1
5.848457208E0,1.281028846E-3,-1.328110695E-3,-2.263390571E-1,2.263465787E-1
5.858413208E0,7.390227984E-4,3.353422508E-4,-2.247684747E-1,2.247699398E-1
5.868369208E0,4.092741758E-3,-7.179379463E-4,-2.178796828E-1,2.179193019E-1
5.878325208E0,3.293009708E-3,-1.172697172E-3,-2.146457434E-1,2.146742050E-1
5.888281208E0,8.468962042E-4,-5.202228203E-4,-2.104022652E-1,2.104046127E-1
5.898238208E0,3.449781099E-3,2.020467073E-4,-2.161050290E-1,2.161326569E-1
5.908194208E0,3.640996059E-3,-3.549270332E-6,-2.231775969E-1,2.232072952E-1
5.918150208E0,3.548021195E-3,-3.225198016E-4,-2.234979570E-1,2.235263502E-1
5.928105958E0,-4.990946036E-5,1.407735981E-3,-2.181117088E-1,2.181162573E-1
5.938061958E0,2.277479798E-4,-1.495988108E-3,-2.171203345E-1,2.171256077E-1
5.948017958E0,1.654403401E-3,-2.637152560E-3,-2.138441205E-1,2.138667798E-1
5.957973958E0,1.839773497E-3,-1.238286495E-3,-2.196722180E-1,2.196834119E-1
5.967929958E0,3.958076122E-4,-2.277186140E-3,-2.183446437E-1,2.183568769E-1
5.977885958E0,-2.389272675E-3,-2.396553755E-4,-2.204242051E-1,2.204372841E-1
5.987841958E0,3.684066236E-3,-1.447931863E-3,-2.198529541E-1,2.198885861E-1
5.997797958E0,2.677920565E-4,-1.121114939E-3,-2.249472141E-1,2.249501673E-1
6.007753958E0,1.056886744E-3,-6.329575554E-4,-2.226012349E-1,2.226046438E-1
6.017709958E0,2.359367674E-3,-1.586273313E-3,-2.216565013E-1,2.216747334E-1
6.027665958E0,1.467741327E-3,2.041218802E-3,-2.167890370E-1,2.168036148E-1
6.037621958E0,2.764806151E-3,-2.320723608E-3,-2.193027586E-1,2.193324641E-1
6.047577958E0,3.418345936E-3,-8.724965155E-4,-2.200716138E-1,2.200998899E-1
6.057533958E0,5.079078488E-3,-3.912206739E-4,-2.189621627E-1,2.190214117E-1
6.067489958E0,-1.019294141E-3,6.868271157E-4,-2.185246050E-1,2.185280616E-1
6.077445958E0,2.969932393E-4,2.449761145E-3,-2.170118392E-1,2.170258691E-1
6.087401958E0,2.333246171E-3,-6.813174114E-4,-2.216313630E-1,2.216446916E-1
6.097357958E0,1.966760261E-3,-2.032060176E-3,-2.183609307E-1,2.183792423E-1
6.107313958E0,-1.627175836E-3,-4.703821614E-4,-2.126220763E-1,2.126288228E-1
6.117269958E0,2.715780400E-3,-8.058482781E-4,-2.119705826E-1,2.119895109E-1
6.127225958E0,-1.732168021E-4,-2.593668178E-4,-2.106254250E-1,2.106256559E-1
6.137181958E0,-9.079235024E-4,-5.515059456E-4,-2.150702178E-1,2.150728414E-1
6.147137958E0,3.757402068E-3,-7.174210623E-4,-2.222423851E-1,2.222753034E-1
6.157093958E0,4.278889857E-3,-6.896499544E-4,-2.251035869E-1,2.251453072E-1
6.167049958E0,1.922692463E-4,1.806709915E-4,-2.230260670E-1,2.230262231E-1
6.177005958E0,3.181424225E-3,-1.018456183E-3,-2.234732211E-1,2.234981862E-1
6.186961958E0,1.037313370E-3,-7.494771853E-4,-2.211762369E-1,2.211799392E-1
6.196917958E0,1.793422736E-3,-2.842757851E-3,-2.180939913E-1,2.181198906E-1
6.206873958E0,1.286623185E-3,-2.317048609E-3,-2.141011208E-1,2.141175239E-1
6.216829958E0,1.294654096E-3,-8.545070887E-5,-2.124594599E-1,2.124634216E-1
6.226785958E0,-2.888615127E-4,1.395866275E-4,-2.176925689E-1,2.176928053E-1
6.236741958E0,-9.742586408E-4,-9.288461879E-4,-2.209196836E-1,2.209237844E-1
6.246697958E0,-1.470808638E-4,-1.181846485E-3,-2.202677429E-1,2.202709626E-1
6.256653958E0,2.738022478E-3,2.667065710E-4,-2.227097452E-1,2.227267350E-1
6.266609958E0,2.292991849E-5,-2.657176927E-3,-2.201997042E-1,2.202157370E-1
6.276565958E0,9.946194477E-4,1.739822328E-4,-2.178667635E-1,2.178691033E-1
6.286521958E0,2.513686428E-3,-4.649097100E-4,-2.171234787E-1,2.171385266E-1
6.296478958E0,1.200394239E-3,-2.591608092E-3,-2.187551260E-1,2.187737702E-1
6.306434958E0,7.583094994E-4,-8.690450341E-5,-2.171897143E-1,2.171910555E-1
6.316390958E0,3.126744414E-3,-3.145430237E-3,-2.192847580E-1,2.193296043E-1
6.326346958E0,3.197850659E-3,1.496979967E-4,-2.232811004E-1,2.233040493E-1
6.336302958E0,1.499106176E-3,9.714467451E-4,-2.289923429E-1,2.289993104E-1
6.346258958E0,1.606964273E-3,4.433412105E-4,-2.279222906E-1,2.279283866E-1
6.356214958E0,2.075263998E-3,-9.904261678E-4,-2.191445231E-1,2.191565871E-1
6.366170958E0,2.611624543E-3,5.784425884E-4,-2.126954198E-1,2.127122394E-1
6.376126958E0,8.575982647E-4,1.511493698E-3,-2.105814368E-1,2.105886075E-1
6.386082958E0,5.119305570E-5,-1.105595380E-3,-2.157194614E-1,2.157223007E-1
6.396038958E0,3.668200807E-4,-9.484533221E-4,-2.252050638E-1,2.252073598E-1
6.405994958E0,2.200938994E-3,1.330413856E-3,-2.321226150E-1,2.321368616E-1
6.415950958E0,1.721306005E-3,2.289842814E-3,-2.244876921E-1,2.245059692E-1
6.425906958E0,1.122627407E-3,6.504002959E-4,-2.142406404E-1,2.142445689E-1
6.435862958E0,-2.738860785E-4,-2.574057318E-3,-2.126517445E-1,2.126674992E-1
6.445818958E0,2.504323609E-3,4.108129069E-4,-2.103739381E-1,2.103892446E-1
6.455774958E0,1.220996026E-3,-4.082312807E-4,-2.151625305E-1,2.151663822E-1
6.465730958E0,1.591974404E-3,-1.480402425E-4,-2.201162875E-1,2.201220941E-1
6.475686958E0,2.837085165E-3,5.451701581E-4,-2.264919430E-1,2.265103673E-1
6.485642958E0,1.524679596E-3,4.309210926E-4,-2.304480672E-1,2.304535138E-1
6.495598958E0,7.810618263E-4,-8.280789480E-4,-2.236831933E-1,2.236860898E-1
6.505554958E0,-2.130962093E-4,5.154861137E-4,-2.211731672E-1,2.211738706E-1
6.515510958E0,2.643464599E-3,1.664253883E-3,-2.148925960E-1,2.149152983E-1
6.525466958E0,4.583843518E-3,-1.258299686E-3,-2.096637487E-1,2.097176256E-1
6.535422958E0,1.669253805E-3,1.616962254E-5,-2.124102712E-1,2.124168307E-1
6.545378958E0,3.753710072E-3,3.655767068E-4,-2.180319428E-1,2.180645594E-1
6.555334958E0,3.208125010E-3,-3.145506606E-3,-2.199811041E-1,2.200269812E-1
6.565290958E0,-2.018594882E-3,-3.643678501E-4,-2.171046138E-1,2.171143036E-1
6.575246958E0,2.201301977E-3,-1.056418754E-3,-2.149351090E-1,2.149489773E-1
6.585202958E0,2.320611617E-3,-2.440729178E-3,-2.136400193E-1,2.136665632E-1
6.595158958E0,4.843113478E-3,1.037583686E-3,-2.205382288E-1,2.205938410E-1
6.605114958E0,4.063872620E-3,5.097454414E-4,-2.224008441E-1,2.224385541E-1
6.615070958E0,8.067713352E-4,2.041804604E-3,-2.190342396E-1,2.190452419E-1
6.625026958E0,2.287755255E-3,-1.781695522E-3,-2.146733105E-1,2.146928935E-1
6.634982958E0,1.573062269E-3,-1.366024837E-3,-2.134071738E-1,2.134173432E-1
6.644938958E0,1.775995130E-3,-1.256036572E-3,-2.165014893E-1,2.165124168E-1
6.654894958E0,2.586510032E-3,-2.198459581E-3,-2.224899232E-1,2.225158179E-1
6.664850958E0,-3.778545652E-4,-1.320681535E-3,-2.276284844E-1,2.276326292E-1
6.674806958E0,1.561046345E-3,-4.848157987E-4,-2.239949405E-1,2.240009047E-1
6.684763958E0,3.806623863E-3,-6.326213479E-4,-2.195477337E-1,2.195816430E-1
6.694719958E0,2.315862337E-3,-6.911670789E-4,-2.113767713E-1,2.113905873E-1
6.704675958E0,1.848743763E-3,-3.891643137E-4,-2.122383118E-1,2.122467203E-1
6.714631958E0,2.234398853E-3,-1.827686094E-3,-2.120058388E-1,2.120254905E-1
6.724587958E0,1.321467105E-3,-7.235398516E-4,-2.168410718E-1,2.168463055E-1
6.734543958E0,8.951378986E-4,3.737956285E-5,-2.252018154E-1,2.252035975E-1
6.744499958E0,9.737011278E-4,-5.660932511E-4,-2.280431390E-1,2.280459204E-1
6.754455958E0,4.542388022E-3,3.057134338E-3,-2.246768475E-1,2.247435542E-1
6.764411958E0,1.857231837E-4,-4.478516057E-4,-2.205526829E-1,2.205532158E-1
6.774367958E0,2.733431291E-3,-2.712961286E-4,-2.122984380E-1,2.123162076E-1
6.784323958E0,7.421857445E-4,2.371016890E-4,-2.101228982E-1,2.101243427E-1
6.794279958E0,2.460016403E-3,-1.541211270E-3,-2.144443989E-1,2.144640465E-1
6.804235958E0,7.638491807E-4,2.532266080E-4,-2.251356691E-1,2.251371073E-1
6.814191958E0,2.281005494E-3,5.109608173E-4,-2.294287086E-1,2.294406162E-1
6.824147958E0,-6.310880417E-5,7.059043273E-4,-2.261442393E-1,2.261453498E-1
6.834103958E0,1.300245174E-3,-7.512820885E-4,-2.188403308E-1,2.188454831E-1
6.844059958E0,1.936740708E-3,-3.211775795E-3,-2.081682384E-1,2.082020220E-1
6.854015958E0,3.324235440E-4,-8.237352595E-4,-2.069339603E-1,2.069358668E-1
6.863971958E0,1.265328843E-3,-1.289255917E-3,-2.137585729E-1,2.137662058E-1
6.873927958E0,1.794404117E-3,3.214767203E-4,-2.197469175E-1,2.197544789E-1
6.883883958E0,-2.173173241E-3,-4.763714969E-5,-2.245416641E-1,2.245521852E-1
6.893839958E0,2.968926681E-3,-7.631573826E-4,-2.263817936E-1,2.264025473E-1
6.903795958E0,7.377304719E-4,-1.158636063E-3,-2.273285538E-1,2.273327034E-1
6.913751958E0,1.322448021E-3,-8.293800056E-4,-2.204387933E-1,2.204443203E-1
6.923707958E0,1.415658742E-3,-1.325527206E-3,-2.174581885E-1,2.174668363E-1
6.933664167E0,2.201501047E-3,-2.288238145E-3,-2.128345668E-1,2.128582521E-1
6.943620167E0,6.165110972E-5,1.062550582E-3,-2.172540873E-1,2.172566944E-1
6.953576167E0,3.072708147E-3,-1.919000410E-3,-2.176798582E-1,2.177100015E-1
6.963532167E0,-2.601689193E-3,-2.003155649E-3,-2.185283303E-1,2.185529972E-1
6.973488167E0,7.025465602E-4,-2.169429325E-3,-2.194658071E-1,2.194776537E-1
6.983444167E0,1.161941793E-3,2.958588302E-4,-2.209997922E-1,2.210030448E-1
6.993400167E0,5.253022071E-3,-7.832674310E-4,-2.261592448E-1,2.262215988E-1
7.003356167E0,2.897456056E-3,9.499173611E-4,-2.249997109E-1,2.250203713E-1
7.013312167E0,2.162140328E-3,9.025698528E-4,-2.218120992E-1,2.218244730E-1
7.023268167E0,2.255617408E-3,-5.371347070E-4,-2.173294574E-1,2.173418261E-1
7.033224167E0,2.257761545E-3,-1.759244129E-3,-2.144041359E-1,2.144232402E-1
7.043180167E0,4.080429208E-3,-1.278277487E-3,-2.158688754E-1,2.159112208E-1
7.053136167E0,2.242827788E-3,-7.784953341E-4,-2.198146582E-1,2.198274784E-1
7.063092167E0,2.866806462E-3,6.892252713E-5,-2.201837748E-1,2.202024478E-1
7.073049167E0,6.524962373E-4,-2.304784954E-3,-2.210911959E-1,2.211041716E-1
7.083005167E0,2.701798687E-3,9.812898934E-4,-2.190187275E-1,2.190375896E-1
7.092961167E0,8.477491210E-4,-4.296973348E-4,-2.171252072E-1,2.171272874E-1
7.102917167E0,7.410079706E-5,-6.363587454E-4,-2.167337239E-1,2.167346708E-1
7.112873167E0,9.217658080E-4,-1.879809424E-4,-2.143851519E-1,2.143872159E-1
7.122829167E0,-3.874441609E-4,-5.538994446E-4,-2.132629007E-1,2.132639720E-1
7.132785167E0,3.315743525E-3,1.587620936E-3,-2.152650356E-1,2.152964242E-1
7.142741167E0,-1.102174283E-3,1.163379289E-3,-2.251741290E-1,2.251798317E-1
7.152697167E0,3.046479542E-3,-9.451480582E-4,-2.248255610E-1,2.248481871E-1
7.162653167E0,2.936224453E-3,-1.080702990E-3,-2.232409716E-1,2.232628960E-1
7.172609167E0,9.071876993E-4,1.903800294E-4,-2.157707065E-1,2.157726976E-1
7.182565167E0,1.411856734E-3,-9.478544816E-4,-2.114595771E-1,2.114664146E-1
7.192521167E0,-1.236786135E-3,2.002827823E-4,-2.141558677E-1,2.141595326E-1
7.202477167E0,2.022922970E-3,-1.478840597E-3,-2.138163149E-1,2.138309980E-1
7.212433167E0,2.819741610E-3,7.065888494E-4,-2.168324143E-1,2.168518990E-1
7.222389167E0,2.412690665E-4,1.376640052E-3,-2.161168158E-1,2.161213350E-1
7.232345167E0,3.464911133E-3,1.330545172E-3,-2.200028598E-1,2.200341662E-1
7.242301167E0,1.817479730E-3,1.828024164E-3,-2.234700322E-1,2.234848993E-1
7.252257167E0,6.798257818E-4,1.591105014E-3,-2.245400697E-1,2.245467361E-1
7.262213167E0,2.093431540E-3,-9.813811630E-5,-2.266492844E-1,2.266589733E-1
7.272169167E0,2.325252397E-3,-8.996129036E-4,-2.202024460E-1,2.202165600E-1
7.282125167E0,8.748949040E-4,-2.049299888E-3,-2.135258913E-1,2.135375174E-1
7.292081167E0,3.464305075E-3,-2.486289479E-3,-2.163841426E-1,2.164261542E-1
7.302037167E0,2.551106969E-3,-1.820766367E-3,-2.211631835E-1,2.211853907E-1
7.311993167E0,2.817691769E-3,-1.175746322E-3,-2.271468937E-1,2.271674121E-1
7.321949167E0,3.205181565E-3,-4.686769098E-4,-2.220429480E-1,2.220665747E-1
7.331905167E0,-3.280676319E-4,1.292625442E-3,-2.208260298E-1,2.208300567E-1
7.341861167E0,1.662112540E-3,-6.400300190E-4,-2.177284956E-1,2.177357804E-1
7.351817167E0,-5.054322537E-5,1.475447789E-4,-2.146971524E-1,2.146972090E-1
7.361773167E0,3.125276417E-3,-7.315650582E-4,-2.127400041E-1,2.127642166E-1
7.371729167E0,2.942018211E-3,-3.021426499E-3,-2.130217850E-1,2.130635243E-1
7.381685167E0,-1.145667746E-3,-5.580019206E-4,-2.169592679E-1,2.169630103E-1
7.391641167E0,1.080285525E-3,-7.154028863E-4,-2.245163620E-1,2.245201007E-1
7.401597167E0,2.764468780E-3,1.298841089E-4,-2.259685695E-1,2.259855163E-1
7.411553167E0,1.509183785E-3,4.327129573E-4,-2.232377380E-1,2.232432587E-1
7.421509167E0,1.287076157E-3,6.849141791E-4,-2.157896757E-1,2.157946010E-1
7.431465167E0,2.542535309E-3,6.969114766E-4,-2.141096592E-1,2.141258890E-1
7.441421167E0,1.884734491E-3,-9.161652997E-4,-2.153062075E-1,2.153164058E-1
7.451378167E0,-4.065614194E-4,-1.527377404E-3,-2.229735702E-1,2.229791721E-1
7.461334167E0,-3.176118480E-4,1.444177702E-3,-2.193924189E-1,2.193974019E-1
7.471290167E0,4.216078203E-3,1.360443421E-3,-2.190877348E-1,2.191325208E-1
7.481246167E0,1.436803257E-3,-1.241731457E-3,-2.129531354E-1,2.129616026E-1
7.491202167E0,3.272246802E-3,-1.899227500E-3,-2.116353959E-1,2.116692123E-1
7.501158167E0,9.800639236E-4,-8.044019341E-4,-2.127486020E-1,2.127523801E-1
7.511114167E0,7.358046714E-4,-6.205132231E-4,-2.156838924E-1,2.156860401E-1
7.521070167E0,1.069765072E-3,4.767095670E-4,-2.183784693E-1,2.183816099E-1
7.531026167E0,1.066888508E-4,-3.355304711E-3,-2.188009024E-1,2.188266536E-1
7.540982167E0,1.227346947E-3,-1.132897101E-3,-2.226686031E-1,2.226748675E-1
7.550938167E0,1.192606520E-3,1.291416585E-3,-2.199607641E-1,2.199677881E-1
7.560894167E0,1.486619469E-3,-9.589549154E-4,-2.169993222E-1,2.170065332E-1
7.570850167E0,3.983710194E-4,-1.969863661E-3,-2.105718702E-1,2.105814607E-1
7.580806167E0,4.132847243E-4,-1.289692707E-3,-2.117753625E-1,2.117796928E-1
7.590762167E0,-1.137461048E-3,-1.313914545E-3,-2.162348926E-1,2.162418761E-1
7.600718167E0,1.779232989E-3,-1.669446938E-3,-2.269035280E-1,2.269166449E-1
7.610674167E0,2.042914042E-3,-1.083040610E-3,-2.285671979E-1,2.285788932E-1
7.620630167E0,2.530006226E-3,1.330316067E-3,-2.253764570E-1,2.253945830E-1
7.630586167E0,4.507352132E-3,-2.340665087E-3,-2.178079188E-1,2.178671256E-1
7.640542167E0,1.775215263E-3,8.998699486E-4,-2.096309513E-1,2.096403990E-1
7.650498167E0,-5.485363654E-4,-1.027312130E-3,-2.112004161E-1,2.112036269E-1
7.660454167E0,2.081867773E-3,-7.628602907E-4,-2.187659293E-1,2.187771651E-1
7.670410167E0,2.005824354E-3,1.185379922E-3,-2.231681794E-1,2.231803413E-1
7.680366167E0,1.716072438E-3,-5.786977708E-4,-2.221351415E-1,2.221425238E-1
7.690322167E0,-5.950981867E-4,5.424618721E-4,-2.206392437E-1,2.206407131E-1
7.700278167E0,8.065234870E-4,1.533739269E-4,-2.176125646E-1,2.176141132E-1
7.710234167E0,2.207888057E-3,4.638181999E-4,-2.121143192E-1,2.121263169E-1
7.720190167E0,6.403514417E-4,4.558293149E-4,-2.142672241E-1,2.142686658E-1
7.730146167E0,1.579640899E-3,5.855895579E-4,-2.157708406E-1,2.157774174E-1
7.740102167E0,2.039835090E-3,2.380027436E-3,-2.180518359E-1,2.180743648E-1
7.750058167E0,-2.618640196E-3,1.295962371E-3,-2.216268480E-1,2.216461065E-1
7.760014167E0,9.031239897E-4,1.258496195E-5,-2.235792130E-1,2.235810374E-1
7.769970167E0,-1.617148868E-3,3.051608801E-4,-2.218444198E-1,2.218505238E-1
7.779926167E0,-2.717198804E-4,9.472491220E-4,-2.168933302E-1,2.168955689E-1
7.789882167E0,2.153284615E-3,-1.495813951E-3,-2.179999948E-1,2.180157605E-1
7.799838167E0,2.948504407E-3,-2.699615434E-4,-2.194082737E-1,2.194282505E-1
7.809794167E0,9.373823996E-4,-8.886326104E-4,-2.232618928E-1,2.232656291E-1
7.819750167E0,2.257245127E-3,-5.237795413E-4,-2.264246643E-1,2.264365211E-1
7.829707167E0,-1.675212174E-3,8.419118822E-4,-2.251506150E-1,2.251584211E-1
7.839663167E0,1.429234748E-3,1.782523468E-4,-2.175845802E-1,2.175893472E-1
7.849619167E0,1.571815228E-4,1.614503562E-4,-2.120841742E-1,2.120842939E-1
7.859575167E0,3.958007728E-4,5.161827430E-4,-2.068260312E-1,2.068270541E-1
7.869531167E0,-1.053999993E-3,5.243932828E-4,-2.087436765E-1,2.087469961E-1
7.879487167E0,6.336451042E-4,1.101500355E-3,-2.186024338E-1,2.186061273E-1
7.889443167E0,4.207948223E-5,-3.189845942E-3,-2.254828811E-1,2.255054468E-1
7.899399167E0,5.872285692E-4,1.374278218E-3,-2.226013392E-1,2.226063559E-1
7.909355167E0,3.509723814E-3,7.810313255E-4,-2.204347998E-1,2.204641221E-1
7.919311167E0,1.737390063E-3,5.277646706E-4,-2.141920924E-1,2.141997888E-1
7.929267583E0,-1.868273714E-3,4.083793610E-4,-2.126689404E-1,2.126775386E-1
7.939223583E0,2.502239775E-3,-4.600770772E-4,-2.189731747E-1,2.189879543E-1
7.949179583E0,8.365192916E-4,-1.850109547E-3,-2.287989110E-1,2.288079202E-1
7.959135583E0,2.454389585E-3,1.257533208E-3,-2.302564532E-1,2.302729677E-1
7.969091583E0,2.962372964E-3,1.633229665E-3,-2.245288491E-1,2.245543301E-1
7.979047583E0,1.430522767E-3,-1.359098591E-3,-2.161002159E-1,2.161092244E-1
7.989003583E0,-2.297728788E-4,-2.412402071E-3,-2.112914324E-1,2.113053286E-1
7.998959583E0,3.325280733E-3,-1.426499337E-3,-2.142864317E-1,2.143169783E-1
8.008915583E0,2.133549657E-3,-6.996989250E-4,-2.207554728E-1,2.207668915E-1
8.018871583E0,9.652209701E-4,-2.384390682E-4,-2.234796137E-1,2.234818253E-1
8.028827583E0,2.789539751E-3,-1.351848245E-3,-2.236014009E-1,2.236228868E-1
8.038783583E0,4.253746010E-3,-9.670015424E-5,-2.275721878E-1,2.276119600E-1
8.048739583E0,1.555341179E-3,1.542629674E-3,-2.246478796E-1,2.246585600E-1
8.058695583E0,2.485280856E-4,-3.599328920E-4,-2.150565088E-1,2.150569536E-1
8.068651583E0,2.213877160E-3,-2.057394013E-3,-2.066275924E-1,2.066496941E-1
8.078607583E0,2.170391381E-4,-1.280548982E-3,-2.040190250E-1,2.040231591E-1
8.088563583E0,3.256988712E-3,-1.063302159E-3,-2.143462896E-1,2.143736702E-1
8.098519583E0,3.425300587E-3,-1.887017861E-3,-2.274903208E-1,2.275239319E-1
8.108475583E0,1.370583079E-3,1.304903999E-4,-2.373424321E-1,2.373464253E-1
8.118431583E0,2.143698744E-3,6.596604362E-4,-2.366627902E-1,2.366734181E-1
8.128387583E0,2.481253119E-3,-1.644273289E-3,-2.228879929E-1,2.229078680E-1
8.138343583E0,2.982193604E-3,-2.169448882E-3,-2.109354585E-1,2.109676934E-1
8.148299583E0,-4.940277431E-4,-2.691435628E-3,-2.048095316E-1,2.048278109E-1
8.158255583E0,-6.452952512E-4,-6.096428260E-4,-2.042763680E-1,2.042782969E-1
8.168211583E0,-1.838465105E-4,-5.968352780E-4,-2.140197754E-1,2.140206865E-1
8.178167583E0,-6.091532996E-4,-1.197111793E-3,-2.240271270E-1,2.240311536E-1
8.188123583E0,1.562560210E-3,1.621530391E-3,-2.308912575E-1,2.309022385E-1
8.198080583E0,1.294113579E-3,6.063329056E-4,-2.277740389E-1,2.277785222E-1
8.208036583E0,7.846182561E-4,1.874625683E-3,-2.151345313E-1,2.151441293E-1
8.217992583E0,-6.857130211E-4,1.810177229E-3,-2.053873688E-1,2.053964902E-1
8.227948583E0,-2.206681063E-3,-9.266035631E-4,-2.043900192E-1,2.044040312E-1
8.237904583E0,2.538805595E-3,-1.717561856E-3,-2.120037228E-1,2.120258806E-1
8.247860583E0,9.787636809E-4,1.547174528E-3,-2.246763259E-1,2.246837848E-1
8.257816583E0,1.844557351E-3,2.122417092E-3,-2.310828269E-1,2.310999349E-1
8.267772583E0,2.961310558E-3,9.574834257E-5,-2.283028811E-1,2.283221059E-1
8.277728583E0,1.531725517E-3,4.574051127E-4,-2.181879282E-1,2.181937841E-1
8.287684583E0,-9.379023686E-5,1.941360533E-4,-2.075339854E-1,2.075340974E-1
8.297640583E0,1.626611804E-3,-3.376966342E-4,-2.028726488E-1,2.028794508E-1
8.307596583E0,2.257063985E-3,-6.783930585E-4,-2.130749971E-1,2.130880309E-1
8.317552583E0,3.865879495E-3,1.581050456E-4,-2.236323059E-1,2.236657735E-1
8.327508583E0,2.305556554E-3,4.297103733E-4,-2.276175469E-1,2.276296288E-1
8.337464583E0,1.060795039E-3,1.419607550E-3,-2.213607132E-1,2.213678069E-1
8.347420583E0,1.121732523E-3,-1.151560806E-3,-2.148936242E-1,2.148996373E-1
8.357376583E0,2.821894595E-3,-3.262478858E-4,-2.097374797E-1,2.097567160E-1
8.367332583E0,2.123724436E-3,2.886671573E-3,-2.079130858E-1,2.079439692E-1
8.377288583E0,2.353821415E-3,1.460548490E-3,-2.132934630E-1,2.133114508E-1
8.387244583E0,1.975619700E-3,-1.418404281E-6,-2.226523012E-1,2.226610660E-1
8.397200583E0,8.035626961E-4,5.504023284E-5,-2.283599824E-1,2.283614028E-1
8.407156583E0,1.213137060E-3,-1.576319337E-4,-2.277689874E-1,2.277722726E-1
8.417112583E0,1.901297830E-3,-8.929315954E-4,-2.175003737E-1,2.175105166E-1
8.427068583E0,3.946387733E-4,7.121991366E-4,-2.105735987E-1,2.105751729E-1
8.437024583E0,2.733693225E-3,-1.537613571E-5,-2.090044618E-1,2.090223394E-1
8.446980583E0,2.470331034E-3,5.298955366E-4,-2.147627771E-1,2.147776379E-1
8.456936583E0,1.058589318E-3,5.392162129E-4,-2.277030796E-1,2.277061787E-1
8.466892583E0,3.737003426E-4,-7.094973698E-4,-2.284923494E-1,2.284937565E-1
8.476848583E0,1.385435229E-3,6.170226261E-4,-2.240177095E-1,2.240228433E-1
8.486804583E0,3.093214706E-3,-5.146628246E-4,-2.140410841E-1,2.140640524E-1
8.496760583E0,1.205033506E-3,-3.086211160E-3,-2.102215737E-1,2.102476798E-1
8.506716583E0,1.090890728E-3,1.602814533E-3,-2.142376900E-1,2.142464629E-1
8.516672583E0,1.361475151E-4,8.454108611E-4,-2.207105011E-1,2.207121622E-1
8.526628583E0,2.147872932E-3,-5.991766229E-4,-2.237469107E-1,2.237580220E-1
8.536584583E0,2.092745388E-3,6.365301087E-4,-2.209553868E-1,2.209662139E-1
8.546541583E0,1.941050054E-3,-1.028382219E-3,-2.170239985E-1,2.170351151E-1
8.556497583E0,1.118932152E-3,-2.005762421E-3,-2.150801569E-1,2.150924197E-1
8.566453583E0,-3.837351687E-5,-1.792294905E-3,-2.179829478E-1,2.179903194E-1
8.576409583E0,1.997879241E-3,6.237253547E-4,-2.241050303E-1,2.241148035E-1
8.586365583E0,7.348172367E-4,1.915198751E-3,-2.276532948E-1,2.276625366E-1
8.596321583E0,6.597160827E-4,-2.145310864E-4,-2.264567316E-1,2.264577941E-1
8.606277583E0,9.705512202E-4,7.155910134E-4,-2.207544446E-1,2.207577379E-1
8.616233583E0,3.346623387E-3,2.376072109E-3,-2.118797302E-1,2.119194793E-1
8.626189583E0,3.012934001E-3,-2.376362681E-4,-2.122031003E-1,2.122246216E-1
8.636145583E0,1.670967089E-3,-1.768687740E-3,-2.116933614E-1,2.117073443E-1
8.646101583E0,-1.397057786E-4,3.646062687E-4,-2.205869108E-1,2.205872564E-1
8.656057583E0,9.862787556E-4,-9.528594092E-4,-2.258490473E-1,2.258532109E-1
8.666013583E0,-3.449833952E-3,-2.107145265E-4,-2.288109809E-1,2.288370834E-1
8.675969583E0,1.197914826E-3,3.623971716E-4,-2.190827131E-1,2.190862878E-1
8.685925583E0,4.055802710E-4,-2.056515776E-3,-2.162859738E-1,2.162961308E-1
8.695881583E0,2.123585436E-3,-2.361980267E-3,-2.150409371E-1,2.150643931E-1
8.705837583E0,1.948625781E-3,6.539020687E-4,-2.172043771E-1,2.172141021E-1
8.715793583E0,4.383471096E-4,1.367629506E-3,-2.177292854E-1,2.177340218E-1
8.725749583E0,1.503283856E-4,7.271207869E-4,-2.209454924E-1,2.209467400E-1
8.735705583E0,2.451299457E-3,1.230191439E-3,-2.232174426E-1,2.232342916E-1
8.745661583E0,-1.469552284E-3,8.595604450E-4,-2.233147323E-1,2.233212218E-1
8.755617583E0,4.317763261E-3,-2.001114190E-4,-2.201562226E-1,2.201986500E-1
8.765573583E0,4.757017014E-4,7.806019858E-4,-2.166301757E-1,2.166321044E-1
8.775529583E0,2.908783208E-4,1.365697943E-3,-2.125720531E-1,2.125766391E-1
8.785485583E0,-5.258640740E-4,3.343466669E-4,-2.127463669E-1,2.127472795E-1
8.795441583E0,3.349567764E-3,-1.360222697E-3,-2.166500241E-1,2.166801854E-1
8.805397583E0,2.277221356E-4,-6.198249757E-4,-2.219927907E-1,2.219937728E-1
8.815353583E0,3.399813315E-3,1.137062907E-3,-2.175908536E-1,2.176203832E-1
8.825309583E0,-1.831982052E-3,-9.625628591E-4,-2.105843723E-1,2.105945406E-1
8.835265583E0,5.411606980E-4,-1.955122687E-3,-2.103052735E-1,2.103150576E-1
8.845221583E0,3.546322696E-3,-1.388406381E-4,-2.154677212E-1,2.154969479E-1
8.855177583E0,4.168703686E-3,6.670318544E-4,-2.218134999E-1,2.218536720E-1
8.865133583E0,3.168187977E-4,-2.971077338E-4,-2.204582244E-1,2.204586523E-1
8.875089583E0,-1.375087420E-3,2.386826091E-3,-2.138708979E-1,2.138886364E-1
8.885045583E0,1.475950703E-3,-1.484319568E-3,-2.125759423E-1,2.125862481E-1
8.895002583E0,1.071682898E-3,-4.299739376E-4,-2.135938108E-1,2.135969321E-1
8.904958583E0,6.649653660E-4,-7.134154439E-4,-2.225818634E-1,2.225840000E-1
8.914914583E0,2.214658773E-3,1.781167462E-3,-2.253534198E-1,2.253713404E-1
8.924870583E0,2.619434963E-5,2.712027170E-3,-2.199625969E-1,2.199793168E-1
8.934825917E0,1.850725967E-3,-2.163844183E-4,-2.138320059E-1,2.138401242E-1
8.944781917E0,1.356181921E-3,-1.275421120E-3,-2.077165246E-1,2.077248674E-1
8.954737917E0,3.551691771E-3,-1.320428215E-3,-2.116372287E-1,2.116711474E-1
8.964693917E0,1.160768676E-3,7.166583091E-4,-2.163373232E-1,2.163416243E-1
8.974649917E0,1.684346120E-3,3.044527955E-3,-2.228282541E-1,2.228554173E-1
8.984605917E0,2.072708216E-3,-9.995400906E-4,-2.210798264E-1,2.210918018E-1
8.994561917E0,1.135009108E-3,2.441796474E-3,-2.187863141E-1,2.188028836E-1
9.004517917E0,9.494966362E-4,-5.435673520E-4,-2.172142118E-1,2.172169672E-1
9.014473917E0,1.233123243E-3,1.503339037E-3,-2.150495946E-1,2.150583846E-1
9.024429917E0,-9.601272177E-5,-1.585576683E-5,-2.137613446E-1,2.137613667E-1
9.034385917E0,1.665401971E-3,-4.989532754E-4,-2.153826654E-1,2.153896819E-1
9.044341917E0,8.936236845E-4,-9.060082957E-4,-2.217947990E-1,2.217984496E-1
9.054297917E0,1.334909583E-3,1.774730161E-3,-2.259751558E-1,2.259860675E-1
9.064253917E0,1.662910217E-3,-1.087975688E-3,-2.239063978E-1,2.239152160E-1
9.074209917E0,2.944423351E-3,1.456675120E-3,-2.216488421E-1,2.216731845E-1
9.084165917E0,2.919818508E-3,5.043763667E-5,-2.193895727E-1,2.194090074E-1
9.094121917E0,4.585093353E-3,8.132960647E-5,-2.207616419E-1,2.208092666E-1
9.104077917E0,2.044036053E-3,4.048151895E-4,-2.199180573E-1,2.199279289E-1
9.114033917E0,1.367326942E-3,-1.172841527E-3,-2.209982276E-1,2.210055695E-1
9.123989917E0,1.250653528E-3,1.214618795E-3,-2.162560970E-1,2.162631242E-1
9.133945917E0,2.306596842E-3,1.491054893E-3,-2.082197368E-1,2.082378506E-1
9.143901917E0,2.291999059E-3,1.391297206E-3,-2.107511461E-1,2.107682010E-1
9.153857917E0,1.602240372E-3,-7.363017648E-4,-2.156255245E-1,2.156327344E-1
9.163813917E0,4.505712423E-5,9.456416592E-4,-2.226930708E-1,2.226950831E-1
9.173769917E0,1.886014943E-4,-1.734178513E-4,-2.256108224E-1,2.256109679E-1
9.183725917E0,4.554680199E-4,5.889860913E-4,-2.215531319E-1,2.215543830E-1
9.193681917E0,1.151085715E-3,-8.539147675E-4,-2.163125575E-1,2.163173056E-1
9.203637917E0,2.406217624E-3,-2.094436437E-3,-2.102988809E-1,2.103230750E-1
9.213593917E0,5.699680769E-4,-8.102599531E-4,-2.117372453E-1,2.117395628E-1
9.223549917E0,3.142931499E-3,3.440044820E-4,-2.163087279E-1,2.163318333E-1
9.233506917E0,-6.558013847E-4,4.305569455E-4,-2.216781974E-1,2.216795856E-1
9.243462917E0,3.210416995E-3,1.786669716E-3,-2.248929143E-1,2.249229243E-1
9.253418917E0,3.505495377E-3,3.525568172E-4,-2.280149311E-1,2.280421487E-1
9.263374917E0,3.532677656E-3,-1.779926941E-3,-2.223523408E-1,2.223875253E-1
9.273330917E0,1.907084254E-3,-1.101086847E-3,-2.171250880E-1,2.171362549E-1
9.283286917E0,1.353125554E-4,8.395323530E-4,-2.112799883E-1,2.112816996E-1
9.293242917E0,-3.134300932E-4,-7.106941193E-4,-2.111888975E-1,2.111903259E-1
9.303198917E0,1.054737484E-3,-4.818756133E-4,-2.141357362E-1,2.141388760E-1
9.313154917E0,2.248632722E-3,-1.227027737E-3,-2.193581909E-1,2.193731475E-1
9.323110917E0,1.852876041E-3,-6.757471710E-4,-2.252244502E-1,2.252330854E-1
9.333066917E0,1.435558661E-3,8.696857840E-4,-2.248617262E-1,2.248679903E-1
9.343022917E0,2.005186398E-3,-4.406599328E-4,-2.180136591E-1,2.180233256E-1
9.352978917E0,7.620226825E-4,2.805609256E-5,-2.127238214E-1,2.127251881E-1
9.362934917E0,2.375284676E-3,-1.529321074E-3,-2.094153613E-1,2.094344154E-1
9.372890917E0,1.973679988E-3,-1.637445763E-3,-2.113666534E-1,2.113822103E-1
9.382846917E0,2.259131521E-3,2.321032807E-4,-2.221082300E-1,2.221198401E-1
9.392802917E0,1.478825230E-3,-1.274235547E-4,-2.283959538E-1,2.284007768E-1
9.402758917E0,6.859957939E-4,4.880012944E-3,-2.322434932E-1,2.322957711E-1
9.412714917E0,1.091861515E-3,-1.218359917E-3,-2.242878228E-1,2.242937896E-1
9.422670917E0,6.693717442E-4,1.621032134E-4,-2.116758376E-1,2.116769581E-1
9.432626917E0,1.612663385E-3,-1.213419251E-3,-2.047066092E-1,2.047165576E-1
9.442582917E0,4.960936494E-4,-1.331400126E-4,-2.070446759E-1,2.070453131E-1
9.452538917E0,6.313822232E-4,1.118279062E-3,-2.164890319E-1,2.164928408E-1
9.462494917E0,3.302956000E-3,1.627841964E-3,-2.260907739E-1,2.261207586E-1
9.472450917E0,-2.257325687E-4,-2.419631928E-4,-2.248492092E-1,2.248494527E-1
9.482406917E0,4.605920985E-3,5.794316530E-4,-2.264788151E-1,2.265263868E-1
9.492362917E0,2.457936644E-4,6.171315908E-5,-2.154738456E-1,2.154739946E-1
9.502318917E0,3.292213893E-3,1.805386506E-3,-2.092331946E-1,2.092668818E-1
9.512274917E0,5.837791250E-4,9.350478649E-6,-2.093495727E-1,2.093503868E-1
9.522230917E0,6.915945560E-4,1.383144408E-3,-2.150894105E-1,2.150949695E-1
9.532186917E0,2.091618255E-3,1.134671271E-3,-2.194138467E-1,2.194267497E-1
9.542142917E0,5.740934983E-3,-6.445236504E-4,-2.238581926E-1,2.239327223E-1
9.552098917E0,3.667131532E-3,-1.394469291E-3,-2.224595100E-1,2.224941032E-1
9.562055917E0,-1.257594326E-3,2.892497927E-3,-2.149105668E-1,2.149337103E-1
9.572011917E0,2.993077040E-3,-8.697500452E-4,-2.112926692E-1,2.113156573E-1
9.581967917E0,2.341894433E-3,1.973640174E-4,-2.137764543E-1,2.137893726E-1
9.591923917E0,2.711275127E-3,-8.034510538E-4,-2.205770910E-1,2.205952167E-1
9.601879917E0,2.140388358E-3,-5.570799112E-5,-2.270520777E-1,2.270621728E-1
9.611835917E0,2.261562273E-3,7.485663518E-4,-2.272787243E-1,2.272912087E-1
9.621791917E0,9.403445874E-4,-5.850195885E-4,-2.212594301E-1,2.212622017E-1
9.631747917E0,-1.804841799E-3,-2.952570096E-3,-2.109708339E-1,2.109992130E-1
9.641703917E0,2.107304521E-3,-4.854947329E-4,-2.087585181E-1,2.087697184E-1
9.651659917E0,1.498772064E-3,-5.576666445E-4,-2.153759450E-1,2.153818817E-1
9.661615917E0,8.004488191E-4,1.898668706E-4,-2.248279601E-1,2.248294652E-1
9.671571917E0,-3.979736939E-4,1.533431932E-3,-2.291950136E-1,2.292004888E-1
9.681527917E0,-2.208773512E-4,-7.111281157E-4,-2.285950482E-1,2.285962610E-1
9.691483917E0,2.107524313E-3,-1.766271889E-3,-2.229278386E-1,2.229447972E-1
9.701439917E0,5.835649790E-4,-2.120101824E-3,-2.143532336E-1,2.143645123E-1
9.711395917E0,1.816342236E-3,2.929875627E-4,-2.103912383E-1,2.103992826E-1
9.721351917E0,8.877464570E-4,-1.243546605E-3,-2.138744891E-1,2.138799466E-1
9.731307917E0,1.382561750E-3,2.420963719E-3,-2.217273563E-1,2.217448829E-1
9.741263917E0,2.771310974E-3,1.727687195E-3,-2.271854132E-1,2.272088842E-1
9.751219917E0,1.789669855E-3,-1.884624362E-3,-2.303758860E-1,2.303905457E-1
9.761175917E0,2.853910439E-3,8.761007339E-4,-2.234561443E-1,2.234760855E-1
9.771131917E0,1.221126411E-3,9.583923966E-4,-2.131063044E-1,2.131119580E-1
9.781087917E0,3.223152598E-3,-3.025848418E-3,-2.086375058E-1,2.086843389E-1
9.791043917E0,4.982062383E-4,1.737480983E-3,-2.125648707E-1,2.125725554E-1
9.800999917E0,4.892756697E-4,-1.176684164E-3,-2.234207243E-1,2.234243586E-1
9.810955917E0,9.635846945E-4,2.853916958E-4,-2.327572405E-1,2.327594100E-1
9.820911917E0,1.652028994E-3,1.181070693E-3,-2.279550731E-1,2.279641189E-1
9.830867917E0,5.654593697E-4,-6.154980510E-4,-2.146147639E-1,2.146163914E-1
9.840823917E0,1.613727538E-3,-2.659555525E-3,-2.044879645E-1,2.045116255E-1
9.850779917E0,9.958741721E-4,-1.641163602E-3,-2.047910243E-1,2.048000216E-1
9.860735917E0,2.159394557E-3,-2.635349520E-3,-2.144492120E-1,2.144762751E-1
9.870691917E0,1.409182092E-3,-9.082891047E-4,-2.313120812E-1,2.313181569E-1
9.880648917E0,2.888941672E-3,-1.749377698E-4,-2.360737622E-1,2.360915030E-1
9.890604917E0,1.477732672E-3,-1.792275347E-3,-2.309676856E-1,2.309793665E-1
9.900560917E0,7.187260780E-4,-1.063517295E-3,-2.187597156E-1,2.187634814E-1
9.910516917E0,-7.918188348E-4,1.586070284E-4,-2.057717443E-1,2.057733288E-1
9.920472917E0,8.481295663E-5,5.406606942E-5,-2.048114240E-1,2.048114487E-1
9.930429042E0,6.910032243E-5,4.591336474E-4,-2.087776810E-1,2.087781973E-1
9.940385042E0,3.391619772E-3,1.491066068E-4,-2.167423666E-1,2.167689525E-1
9.950341042E0,2.257912187E-3,9.134337306E-4,-2.254458368E-1,2.254589937E-1
9.960297042E0,1.227693167E-3,3.088241443E-3,-2.285679430E-1,2.285921018E-1
9.970253042E0,-6.762007251E-4,-1.170685515E-3,-2.225497216E-1,2.225538280E-1
9.980209042E0,2.603337169E-3,-1.379714347E-3,-2.124857008E-1,2.125061271E-1
9.990165042E0,9.063709877E-4,1.708220690E-3,-2.049912959E-1,2.050004169E-1
1.000012104E1,1.932893181E-3,-2.110989764E-3,-2.132750303E-1,2.132942355E-1
1.001007704E1,3.221862949E-3,-6.736805663E-4,-2.232413888E-1,2.232656532E-1
1.002003304E1,3.680147231E-3,6.509944797E-6,-2.334342003E-1,2.334632078E-1
1.002998904E1,2.071598079E-3,-2.060104162E-4,-2.273225039E-1,2.273320363E-1
1.003994504E1,1.848644111E-3,1.316553913E-3,-2.197085321E-1,2.197202537E-1
1.004990104E1,2.212964464E-3,-8.382089436E-4,-2.092284560E-1,2.092418376E-1
1.005985704E1,1.297333976E-3,-2.055339515E-3,-2.070354074E-1,2.070496738E-1
1.006981304E1,2.907747403E-3,-7.677022368E-4,-2.149447352E-1,2.149657729E-1
1.007976904E1,1.589954132E-3,1.604366116E-3,-2.240389585E-1,2.240503445E-1
1.008972504E1,1.361454953E-3,2.794798464E-3,-2.281814963E-1,2.282026724E-1
1.009968104E1,-2.148636268E-4,1.705391333E-3,-2.244088948E-1,2.244154776E-1
1.010963704E1,7.515461766E-5,1.709919423E-3,-2.188303769E-1,2.188370702E-1
1.011959304E1,-5.603487371E-4,-1.034522429E-3,-2.100246549E-1,2.100279502E-1
1.012954904E1,1.367779914E-3,-6.142752245E-4,-2.096105367E-1,2.096158993E-1
1.013950504E1,1.688588876E-3,-1.467513852E-3,-2.139275372E-1,2.139392346E-1
1.014946104E1,3.492852265E-4,-7.945336401E-4,-2.184879333E-1,2.184896571E-1
1.015941704E1,2.872011857E-3,1.380153932E-3,-2.270303965E-1,2.270527564E-1
1.016937304E1,9.047348285E-4,-9.945873171E-4,-2.248785645E-1,2.248825838E-1
1.017932904E1,2.253098879E-3,3.906749189E-4,-2.211505920E-1,2.211624141E-1
1.018928604E1,2.088515554E-3,-2.283670940E-3,-2.180866301E-1,2.181085860E-1
1.019924104E1,8.854822954E-4,-1.762239262E-4,-2.174745798E-1,2.174764539E-1
1.020919804E1,5.762893124E-4,-8.183121681E-4,-2.222698629E-1,2.222721163E-1
1.021915404E1,4.015165323E-4,2.958383411E-4,-2.255866677E-1,2.255872190E-1
1.022911004E1,1.516848453E-3,2.145403996E-3,-2.216590345E-1,2.216746065E-1
1.023906604E1,5.404497497E-4,3.333650529E-4,-2.156873941E-1,2.156883289E-1
1.024902204E1,4.207356367E-3,-2.017406747E-3,-2.149473131E-1,2.149979516E-1
1.025897804E1,1.425280934E-3,2.515222877E-4,-2.146438509E-1,2.146487303E-1
1.026893404E1,1.580809476E-3,2.035040408E-3,-2.163131237E-1,2.163284721E-1
1.027889004E1,2.129365224E-3,-4.603657871E-4,-2.205020785E-1,2.205128404E-1
1.028884604E1,3.480120562E-3,2.688555978E-3,-2.214280665E-1,2.214717323E-1
1.029880204E1,-6.012559170E-4,-2.574004233E-3,-2.174640447E-1,2.174801088E-1
1.030875804E1,1.433132798E-3,-1.800879836E-4,-2.149372250E-1,2.149420782E-1
1.031871404E1,2.136052120E-3,-6.051734090E-4,-2.205127329E-1,2.205239087E-1
1.032867004E1,-5.838341312E-4,3.189435229E-4,-2.211633474E-1,2.211643480E-1
1.033862604E1,2.017630322E-4,1.349992119E-3,-2.200142294E-1,2.200184636E-1
1.034858204E1,7.503742236E-4,1.883156598E-3,-2.213783115E-1,2.213875926E-1
1.035853804E1,1.703960588E-3,-3.688093275E-4,-2.172117531E-1,2.172187497E-1
1.036849404E1,4.360295716E-4,-1.970352605E-4,-2.170221359E-1,2.170226633E-1
1.037845004E1,1.616034424E-3,-1.073525287E-3,-2.128959149E-1,2.129047548E-1
1.038840604E1,5.518352846E-4,1.617865637E-3,-2.174986601E-1,2.175053773E-1
1.039836204E1,1.837794902E-3,1.315210946E-3,-2.219499350E-1,2.219614401E-1
1.040831804E1,9.485654300E-4,1.330657862E-3,-2.220617831E-1,2.220677958E-1
1.041827404E1,1.812563976E-3,1.026114449E-3,-2.202748507E-1,2.202846980E-1
1.042823004E1,1.733201789E-3,-1.763021573E-4,-2.157706469E-1,2.157776799E-1
1.043818604E1,2.416026313E-3,1.538048498E-3,-2.129807919E-1,2.130000481E-1
1.044814204E1,3.124693409E-3,-2.504630014E-3,-2.184069753E-1,2.184436855E-1
1.045809804E1,-6.453924580E-4,-3.437791020E-5,-2.264711708E-1,2.264720930E-1
1.046805404E1,1.419089967E-3,2.824258991E-3,-2.286264747E-1,2.286483221E-1
1.047801004E1,9.787981398E-4,1.015991904E-3,-2.230627686E-1,2.230672298E-1
1.048796604E1,4.072059877E-3,-9.249197319E-4,-2.127299756E-1,2.127709559E-1
1.049792204E1,4.106686451E-3,-1.659593545E-3,-2.104179114E-1,2.104645257E-1
1.050787904E1,2.280822955E-3,-1.652939245E-4,-2.124797404E-1,2.124920458E-1
1.051783504E1,1.143503119E-3,8.660098538E-4,-2.231081426E-1,2.231127537E-1
1.052779104E1,-4.639808903E-4,7.373783737E-4,-2.224937528E-1,2.224954585E-1
1.053774704E1,8.913797792E-4,4.792194813E-4,-2.195936143E-1,2.195959464E-1
1.054770304E1,3.164654132E-3,-1.857438125E-3,-2.167269886E-1,2.167580510E-1
1.055765904E1,4.610490985E-3,1.479540952E-3,-2.176071405E-1,2.176610054E-1
1.056761504E1,9.936521528E-4,1.829214394E-3,-2.183403075E-1,2.183502307E-1
1.057757104E1,3.262602724E-3,-1.991726458E-5,-2.195971459E-1,2.196213821E-1
1.058752704E1,2.764059231E-3,-3.514811397E-4,-2.162199914E-1,2.162379436E-1
1.059748304E1,3.896509297E-3,1.836530864E-4,-2.174398899E-1,2.174748773E-1
1.060743904E1,-1.815892174E-4,-3.154231235E-4,-2.212612629E-1,2.212615622E-1
1.061739504E1,1.059379661E-3,6.320606917E-5,-2.204820365E-1,2.204845906E-1
1.062735104E1,-1.231205184E-3,1.261096448E-3,-2.188404649E-1,2.188475619E-1
1.063730704E1,2.391544404E-3,1.484928653E-4,-2.109961957E-1,2.110098010E-1