"Time (s)","Gyroscope x (rad/s)","Gyroscope y (rad/s)","Gyroscope z (rad/s)","Absolute (rad/s)"
1.139874999E-3,-7.233622018E-4,-1.643775031E-4,1.331438310E-3,1.524139368E-3
1.109687500E-2,-2.983320737E-4,1.974361017E-3,4.656799138E-4,2.050356368E-3
2.105387500E-2,1.654297695E-3,3.877561539E-5,-1.723703928E-3,2.389426635E-3
3.100987500E-2,-8.741266793E-4,-4.684263840E-4,1.267863438E-3,1.609657860E-3
4.096687500E-2,-1.782264677E-3,1.848257147E-3,5.277711898E-4,2.621271502E-3
5.092387500E-2,1.978184097E-3,5.893418565E-4,9.309267625E-4,2.264323471E-3
6.088087500E-2,8.149154019E-4,-1.018407755E-3,-6.965314969E-4,1.478647217E-3
7.083725000E-2,-7.975264452E-5,-8.831592277E-4,1.716203988E-3,1.931757447E-3
8.079425000E-2,8.933664067E-4,-9.473413229E-4,1.641368493E-3,2.095149076E-3
9.075025000E-2,-2.898555249E-3,1.777510159E-3,2.937508747E-3,4.493342023E-3
1.007072500E-1,3.244023537E-4,-1.303767785E-3,2.938840538E-3,3.231382217E-3
1.106642500E-1,-2.084310399E-4,-2.374546602E-4,3.853682429E-4,4.983341215E-4
1.206212500E-1,1.095985295E-3,-3.142164089E-3,1.447970048E-3,3.629186712E-3
1.305782500E-1,-1.016089576E-3,5.087228492E-4,9.806267917E-4,1.500954986E-3
1.405352500E-1,-2.150862478E-3,-1.107017510E-3,1.666391268E-3,2.937440557E-3
1.504912500E-1,-2.903892891E-4,1.849002205E-3,1.553173177E-3,2.432176394E-3
1.604482500E-1,-4.216831876E-4,-8.530411869E-4,-7.179696113E-4,1.192047122E-3
1.704052500E-1,1.952232560E-4,1.348806545E-3,1.144454814E-3,1.779653910E-3
1.803622500E-1,2.242661547E-3,1.229230314E-3,9.652236477E-4,2.733531538E-3
1.903192500E-1,3.767374437E-4,-1.440541819E-3,7.682014257E-5,1.490970545E-3
2.002762500E-1,1.303251251E-3,1.613571309E-3,1.018540934E-4,2.076644035E-3
2.102322500E-1,7.357420400E-4,-1.645997167E-3,-2.716071904E-4,1.823291937E-3
2.201892500E-1,1.455328194E-3,-9.266771376E-4,-2.940095030E-3,3.408939638E-3
2.301462500E-1,7.257835241E-4,-7.086740807E-4,-2.554990351E-3,2.748991883E-3
2.401032500E-1,9.849091293E-4,1.548088156E-3,5.836971104E-5,1.835764134E-3
2.500602500E-1,4.896774190E-4,-1.159581356E-3,-1.528644003E-3,1.980193269E-3
2.600172500E-1,9.773022030E-4,2.103485167E-4,3.294441849E-4,1.052568081E-3
2.699732500E-1,1.920282375E-3,-5.959756672E-4,2.477252856E-4,2.025842840E-3
2.799302500E-1,-2.799904440E-3,9.566470981E-4,1.174238510E-3,3.183311895E-3
2.898872500E-1,-1.694992883E-3,2.842284739E-4,2.420702949E-4,1.735622288E-3
2.998442500E-1,3.087245394E-3,1.710439101E-4,4.681730643E-4,3.127223394E-3
3.098012500E-1,2.392991679E-3,1.116198488E-3,-1.849037595E-3,3.223545915E-3
3.197582500E-1,-4.273524974E-5,-1.123520546E-3,-1.745972782E-3,2.076666963E-3
3.297142500E-1,-1.273312839E-3,1.563634723E-4,1.199349761E-3,1.756193318E-3
3.396712500E-1,-5.385465920E-4,-8.545164019E-5,-9.705945849E-4,1.113278161E-3
3.496282500E-1,-2.219163813E-3,2.852183767E-3,-1.818928868E-4,3.618387111E-3
3.595852500E-1,1.516718417E-3,2.222878858E-3,-1.352085732E-3,3.011604390E-3
3.695422500E-1,-5.998243578E-4,2.695778385E-4,-7.387064397E-5,6.617539900E-4
3.794992500E-1,-7.867780514E-4,-8.827717975E-4,1.200451516E-3,1.685048839E-3
3.894552500E-1,2.488190075E-4,-3.692507744E-5,-8.016740903E-4,8.402117037E-4
3.994122500E-1,2.355645644E-3,1.485603862E-3,2.268385142E-4,2.794197728E-3
4.093692500E-1,1.087887795E-3,1.400820911E-3,6.668269634E-7,1.773640190E-3
4.193262500E-1,-3.501005005E-3,-7.803179324E-5,1.430784352E-3,3.782891602E-3
4.292832500E-1,-7.088801358E-4,2.127528191E-3,1.423972659E-3,2.656423419E-3
4.392392500E-1,3.747601295E-4,4.926128313E-4,-1.191782765E-3,1.342929155E-3
4.491962500E-1,7.960784715E-4,-9.368564934E-4,-6.590783596E-4,1.394928423E-3
4.591532500E-1,1.846162952E-3,-2.934373915E-4,-3.163795918E-5,1.869605335E-3
4.691102500E-1,1.154351514E-3,1.279092394E-3,6.111897528E-4,1.828156909E-3
4.790672500E-1,-2.530398313E-3,-1.087659039E-3,-1.917748712E-3,3.356140332E-3
4.890242500E-1,-1.478667837E-4,4.473971203E-4,5.267094821E-4,7.067189310E-4
4.989802500E-1,-1.046949765E-3,-8.956352249E-4,2.925951034E-3,3.234108180E-3
5.089372500E-1,-7.360309828E-4,2.287784591E-4,1.158270985E-3,1.391284610E-3
5.188942500E-1,-3.562641796E-4,1.684196293E-3,3.220383078E-4,1.751328065E-3
5.288512500E-1,-7.179772947E-4,2.736831084E-4,1.342488453E-3,1.546825486E-3
5.388082500E-1,2.285535680E-3,-1.830486581E-4,-2.077010460E-3,3.093727947E-3
5.487652500E-1,9.059269214E-4,-1.703766175E-3,9.412011132E-4,2.146947205E-3
5.587212500E-1,-1.308225212E-3,1.687025651E-4,2.282102592E-3,2.635888086E-3
5.686782500E-1,-1.717036357E-4,8.225515485E-4,1.186123118E-3,1.453602848E-3
5.786352500E-1,4.055025056E-5,-3.471085802E-4,-1.196255907E-4,3.693764627E-4
5.885922500E-1,-1.338487491E-3,1.945882104E-3,-5.955044180E-4,2.435699374E-3
5.985492500E-1,-1.200269442E-3,-1.071212813E-3,1.712124795E-3,2.349364794E-3
6.085062500E-1,1.805040054E-3,-4.416303709E-4,1.917518675E-3,2.670221873E-3
6.184622500E-1,-1.127632800E-3,1.583702862E-3,9.894073009E-4,2.181420935E-3
6.284192500E-1,-1.900025178E-3,7.072677836E-4,9.822528809E-4,2.252808051E-3
6.383762500E-1,-1.636372413E-3,-4.192497581E-4,3.651995212E-4,1.728252217E-3
6.483332500E-1,4.488963168E-5,5.539795384E-4,-3.752829507E-4,6.706308232E-4
6.582902500E-1,-1.444349997E-3,1.713519916E-3,9.035672992E-4,2.416346680E-3
6.682472500E-1,-1.873584930E-3,1.834284514E-3,3.296205774E-3,4.211875197E-3
6.782032500E-1,1.581406686E-4,-2.301987261E-4,1.493247226E-3,1.519140284E-3
6.881602500E-1,-1.970540034E-3,1.903372817E-3,1.135062426E-3,2.965505491E-3
6.981172500E-1,-1.365470001E-3,-6.119823083E-4,-8.481936529E-4,1.720018356E-3
7.080742500E-1,1.055472996E-3,9.481981397E-4,1.109151170E-3,1.800921785E-3
7.180312500E-1,-1.163472771E-3,-1.509366557E-3,-1.644290984E-3,2.517051674E-3
7.279882500E-1,-2.383657731E-3,-5.990155041E-4,9.784176946E-4,2.645362912E-3
7.379442500E-1,-4.451427376E-4,1.420459710E-3,5.368646234E-4,1.582428977E-3
7.479012500E-1,1.095486339E-3,-8.176807314E-4,3.445427865E-4,1.409752400E-3
7.578582500E-1,4.776328569E-4,4.390645772E-4,1.216363162E-4,6.600804818E-4
7.678152500E-1,-2.331816824E-3,-2.865958959E-5,-1.964673400E-3,3.049283956E-3
7.777722500E-1,1.302754972E-4,-3.815283999E-4,2.880934626E-4,4.955133381E-4
7.877292500E-1,-6.897705607E-4,1.238118857E-4,-9.563639760E-4,1.185641119E-3
7.976852500E-1,-1.227995381E-3,2.201876603E-3,5.883350968E-5,2.521843495E-3
8.076422500E-1,1.364799915E-3,-1.596864313E-4,-1.285972074E-3,1.881994351E-3
8.175992500E-1,-3.183179069E-4,7.786788046E-5,1.013400033E-3,1.065067755E-3
8.275562500E-1,-8.298651082E-4,2.233430743E-3,-1.266406849E-3,2.698272649E-3
8.375132500E-1,2.114259405E-3,1.229152083E-3,-7.526827976E-4,2.558796410E-3
8.474702500E-1,1.020180993E-3,8.526835591E-4,8.982606232E-6,1.329631226E-3
8.574262500E-1,-1.261349185E-3,1.860423945E-3,-1.535384916E-3,2.722055448E-3
8.673832500E-1,-1.077713910E-3,-1.150276512E-4,-1.786441542E-3,2.089514780E-3
8.773402500E-1,4.077972844E-4,-1.199200749E-3,4.008132964E-4,1.328545205E-3
8.872972500E-1,-1.225923887E-3,3.823819570E-3,9.828265756E-4,4.134057760E-3
8.972542500E-1,-1.309280749E-3,6.815558299E-4,-1.397772692E-3,2.032855855E-3
9.072112500E-1,6.312330952E-4,1.271817833E-3,-1.622539945E-3,2.156063936E-3
9.171672500E-1,-3.647890408E-4,4.124157131E-4,9.573157877E-5,5.588580319E-4
9.271242500E-1,6.140953628E-4,-5.340399221E-4,1.687342301E-3,1.873348818E-3
9.370812500E-1,-9.832686046E-4,5.325563252E-4,-1.688804477E-4,1.130908482E-3
9.470382500E-1,9.239875362E-4,-2.163862810E-4,2.009170130E-3,2.222012736E-3
9.569952500E-1,-8.339651395E-4,1.621994190E-3,6.160698831E-4,1.925072754E-3
9.669522500E-1,-9.698243812E-4,1.659492031E-3,6.982963532E-5,1.923369259E-3
9.769082500E-1,4.946480040E-4,-5.931220949E-5,-6.950302050E-4,8.551383349E-4
9.868652500E-1,-1.345326309E-3,9.813252836E-5,-2.094384283E-3,2.491180121E-3
9.968222500E-1,5.567034241E-4,-2.520726994E-4,6.755702198E-4,9.109634844E-4
1.006779250E0,-9.573474526E-4,2.371128649E-4,7.948633283E-4,1.266706109E-3
1.016736250E0,7.356214337E-5,1.894397661E-3,-5.111517385E-4,1.963524888E-3
1.026693250E0,-1.984307310E-3,-4.907073453E-4,-1.352246851E-3,2.450885706E-3
1.036649250E0,-1.619454240E-3,-1.064618118E-3,-1.932391897E-4,1.947661459E-3
1.046606250E0,2.004355192E-3,2.293490805E-3,-4.529757425E-4,3.079403649E-3
1.056563250E0,2.331125084E-3,-3.704689443E-4,-5.214186385E-4,2.417285418E-3
1.066520250E0,-5.141997244E-4,5.723237991E-4,-7.415078580E-4,1.068545643E-3
1.076477042E0,2.536185086E-3,1.219205558E-3,-1.234458759E-3,3.072879010E-3
1.086434042E0,-1.052494976E-3,-1.757526770E-4,5.406038836E-4,1.196196989E-3
1.096390042E0,-6.937672151E-4,-4.063826054E-4,6.709340960E-5,8.068217253E-4
1.106347042E0,1.636718051E-3,1.505094580E-3,-1.905056648E-3,2.928036288E-3
1.116304042E0,4.126773681E-3,2.757312730E-3,-1.615837216E-3,5.219575119E-3
1.126261042E0,-9.731500177E-4,2.156163566E-3,2.268850803E-4,2.376455158E-3
1.136218042E0,1.104381867E-3,-3.027329221E-4,-8.146762848E-4,1.405348348E-3
1.146175042E0,-5.166812334E-4,-5.806703120E-4,-1.125323586E-3,1.367658832E-3
1.156131042E0,-2.894084901E-3,-9.167613462E-4,7.820315659E-4,3.134924584E-3
1.166088042E0,-1.150260796E-3,1.198514365E-3,-1.643772237E-3,2.336990318E-3
1.176045042E0,1.766166883E-3,-1.362381503E-3,9.504128247E-4,2.424605814E-3
1.186002042E0,2.999173477E-3,-9.658075869E-4,-1.035054214E-3,3.316498616E-3
1.195959042E0,-2.536113607E-4,5.178386346E-4,-3.719273955E-4,6.861527244E-4
1.205916042E0,-2.320524305E-3,-1.263665967E-3,1.357593574E-3,2.970647242E-3
1.215872042E0,-3.838734701E-4,-5.097249523E-4,-7.340526208E-4,9.726312858E-4
1.225829042E0,1.701203873E-4,-1.276758499E-3,7.828716189E-4,1.507295984E-3
1.235786042E0,4.004838411E-4,2.120902762E-3,-1.770833507E-3,2.791857293E-3
1.245743042E0,-2.525901888E-3,2.802891657E-3,-1.350657083E-3,4.007574895E-3
1.255700042E0,-1.894732588E-3,-2.087471075E-3,-3.256062046E-4,2.837880630E-3
1.265657042E0,9.432260995E-4,-5.220714957E-5,-4.429398105E-4,1.043358393E-3
1.275613042E0,-3.113892162E-4,4.798918962E-4,3.071635030E-3,3.124452150E-3
1.285570042E0,1.831200789E-3,1.361562870E-3,1.168875024E-3,2.563867898E-3
1.295527042E0,-1.457803184E-3,-2.317860723E-3,1.440251246E-3,3.093863621E-3
1.305484042E0,-9.964734782E-4,1.770633273E-3,4.333294928E-4,2.077468659E-3
1.315441042E0,-3.165618284E-3,1.850795001E-3,-1.244728453E-3,3.872457899E-3
1.325398042E0,-3.981504124E-4,9.080646560E-4,-4.189228639E-4,1.076383545E-3
1.335354042E0,-2.170484047E-3,-1.912880689E-4,-2.210503444E-4,2.190081135E-3
1.345311042E0,-1.337639987E-4,-5.074962974E-4,2.531956881E-3,2.585778596E-3
1.355268042E0,1.919533126E-3,1.354586333E-3,1.121278852E-3,2.603224504E-3
1.365225042E0,9.246694390E-5,2.647128887E-3,3.709737211E-5,2.649003152E-3
1.375182042E0,-1.560557168E-3,2.013829537E-3,8.584167808E-4,2.688443313E-3
1.385139042E0,3.949645907E-4,9.167827666E-4,1.208733767E-3,1.567649511E-3
1.395095042E0,-3.935972927E-4,-2.488819882E-4,5.884841084E-4,7.504496111E-4
1.405052042E0,9.679596405E-5,2.202278003E-3,1.834494062E-3,2.867885340E-3
1.415009042E0,-3.559413599E-4,-7.080249488E-4,1.974043436E-3,2.127167381E-3
1.424966042E0,1.578905853E-3,2.019498497E-4,-8.463151753E-4,1.802769206E-3
1.434923042E0,1.174904406E-3,-8.380152285E-4,-4.022401758E-3,4.273451273E-3
1.444880042E0,-1.492802985E-3,1.358783804E-3,9.845383465E-5,2.021001567E-3
1.454836042E0,-2.482433338E-3,-7.818657905E-4,3.253538162E-4,2.622907642E-3
1.464793042E0,-6.364486180E-4,-1.056660898E-3,2.657435834E-5,1.233817366E-3
1.474750042E0,-1.563495025E-3,-1.433498226E-3,-2.603563480E-3,3.358269890E-3
1.484707042E0,-1.920019276E-3,-1.658726484E-3,2.189297229E-3,3.351249010E-3
1.494664042E0,-3.710728837E-3,5.631493405E-4,-2.400381491E-4,3.760886065E-3
1.504621042E0,-5.955679808E-4,-5.345391110E-4,-8.976366371E-4,1.202574244E-3
1.514577042E0,2.050815150E-3,-1.691533253E-4,5.710683763E-5,2.058571548E-3
1.524534042E0,-1.609349158E-3,-9.337589145E-4,3.921892494E-5,1.861034268E-3
1.534491042E0,-3.123898059E-4,-1.087689772E-3,8.608037606E-4,1.421843714E-3
1.544448042E0,9.720657254E-4,-1.897204667E-3,-1.481050625E-3,2.595728853E-3
1.554405042E0,-5.786928814E-4,-2.974453382E-3,1.016668975E-4,3.031929177E-3
1.564362042E0,1.812578412E-3,7.727984339E-4,-1.201383770E-3,2.307808675E-3
1.574318042E0,1.073018648E-3,-1.934038475E-3,-2.414187416E-3,3.274167791E-3
1.584275042E0,-5.252701230E-4,-1.123342663E-4,3.859493881E-5,5.385325049E-4
1.594232042E0,5.706206430E-4,-9.661437944E-4,7.508043200E-5,1.124579397E-3
1.604189042E0,-3.936822992E-3,1.396806911E-3,2.181474119E-4,4.182969413E-3
1.614146042E0,-5.151936784E-4,-1.640720293E-4,-2.263346687E-4,5.861497585E-4
1.624103042E0,-1.516074408E-4,-3.243322484E-3,-9.877625853E-4,3.393788514E-3
1.634059042E0,8.595947875E-4,4.725866020E-4,-1.144888811E-3,1.507651049E-3
1.644016042E0,1.093368977E-3,-1.553630456E-3,4.681404680E-4,1.956624341E-3
1.653973042E0,8.446297143E-4,1.184098423E-3,-6.981752813E-5,1.456146598E-3
1.663930042E0,-1.531611197E-4,-1.754889265E-3,7.343664765E-5,1.763090355E-3
1.673887042E0,-6.639552303E-4,2.560643479E-4,1.247358508E-3,1.436074074E-3
1.683844042E0,-8.091140771E-4,6.180582568E-4,-2.140118740E-3,2.369972536E-3
1.693800042E0,-3.406639444E-4,3.700933419E-3,6.213132292E-4,3.768154751E-3
1.703757042E0,-7.852698909E-4,1.308834180E-4,-1.604795456E-3,1.791409424E-3
1.713714042E0,-1.457984443E-3,-7.178355008E-5,-2.055135556E-3,2.520804170E-3
1.723671042E0,-1.981757814E-3,1.960128546E-3,-4.581091926E-4,2.824771138E-3
1.733628042E0,-1.727159601E-3,1.657060347E-3,5.821213126E-4,2.463289367E-3
1.743585042E0,4.193941131E-4,-1.108389348E-3,-1.256396063E-3,1.727121720E-3
1.753541042E0,-7.648637984E-5,-7.091816515E-4,-1.344013959E-3,1.521565741E-3
1.763498042E0,-3.511354327E-3,2.931095660E-4,1.759152859E-3,3.938291662E-3
1.773455042E0,-2.698024735E-3,-1.375237480E-4,6.217174232E-4,2.772144081E-3
1.783412042E0,1.383260824E-4,6.096260622E-4,1.512273215E-3,1.636382693E-3
1.793369042E0,4.911026917E-5,-1.099856570E-3,6.731105968E-4,1.290416278E-3
1.803326042E0,8.989318740E-4,-3.137569875E-4,5.383379757E-4,1.093768594E-3
1.813282042E0,-2.054810757E-4,6.407201290E-4,-1.689130440E-3,1.818215169E-3
1.823239042E0,1.287593041E-4,-2.934010699E-4,-1.221522689E-5,3.206436620E-4
1.833196042E0,-3.060908522E-3,-1.610068604E-3,-1.038275659E-4,3.460095672E-3
1.843153042E0,4.238053225E-5,7.034689188E-4,1.930303872E-3,2.054930088E-3
1.853110042E0,1.094595529E-3,1.210356131E-4,1.819394529E-4,1.116194856E-3
1.863067042E0,-7.099974900E-4,-9.792074561E-4,6.942655891E-4,1.394614064E-3
1.873023042E0,-2.295909915E-3,1.156914048E-3,6.415359676E-4,2.649758640E-3
1.882980042E0,1.673258143E-3,-1.327974722E-3,-1.119215973E-3,2.411628924E-3
1.892937042E0,1.514800126E-3,2.504801378E-4,-4.081716761E-3,4.360936991E-3
1.902894042E0,5.157457199E-4,2.216782421E-3,1.612599008E-3,2.789371526E-3
1.912851042E0,6.140164332E-4,-2.181428485E-3,-3.778478131E-4,2.297480225E-3
1.922808042E0,2.102034399E-3,-2.542005852E-3,1.817585900E-3,3.766159964E-3
1.932764042E0,-1.394696068E-3,-3.046849743E-4,7.773563266E-4,1.625513123E-3
1.942721042E0,-2.728914842E-4,1.271381974E-3,-1.559424214E-3,2.030439796E-3
1.952678042E0,-1.457998296E-3,2.134512179E-3,3.191388212E-3,4.106928292E-3
1.962635042E0,-1.840739045E-3,5.512246862E-4,1.973142847E-3,2.754171669E-3
1.972592042E0,1.592948101E-4,-3.148345277E-4,1.192836091E-3,1.243926668E-3
1.982549042E0,-7.168529555E-4,-6.580352783E-4,2.621129155E-3,2.795926794E-3
1.992505042E0,-5.237739533E-4,-5.368618295E-4,1.725774258E-3,1.881716389E-3
2.002462042E0,1.069634687E-3,1.794375479E-3,1.173016615E-3,2.395802518E-3
2.012419042E0,-1.607907470E-3,4.617292434E-4,-7.228879258E-4,1.822396027E-3
2.022376042E0,6.694777403E-4,-3.868445754E-3,-6.698099896E-4,3.982677293E-3
2.032333042E0,3.576215822E-4,7.249973714E-5,5.256831646E-4,6.399157738E-4
2.042289042E0,-1.943689771E-3,3.171293996E-3,-5.706157535E-4,3.763062300E-3
2.052246042E0,1.159991371E-4,1.270342618E-4,1.365768723E-3,1.376560100E-3
2.062203042E0,-1.087265322E-3,1.626677811E-3,-5.474733189E-4,2.031736601E-3
2.072160250E0,-8.667556103E-4,5.243951455E-4,-7.289834321E-5,1.015662210E-3
2.082117250E0,-8.967607282E-4,-2.545183524E-4,-8.007371798E-4,1.228877303E-3
2.092074250E0,-2.852319740E-3,-4.657069221E-4,-3.831535578E-4,2.915376045E-3
2.102031250E0,-1.223793486E-3,-5.698567256E-4,3.528781235E-5,1.350426753E-3
2.111987250E0,-1.061873278E-3,1.291693188E-3,-5.002738908E-4,1.745371054E-3
2.121944250E0,1.264080289E-3,-1.644905657E-3,1.008890569E-3,2.306831978E-3
2.131901250E0,-2.057147678E-3,-2.451577224E-3,1.711698249E-3,3.629324779E-3
2.141858250E0,-1.456063008E-3,-2.725713886E-3,2.083979547E-3,3.727278689E-3
2.151815250E0,2.110757632E-4,-5.421880633E-4,2.097828314E-3,2.177017342E-3
2.161772250E0,1.646832447E-3,-7.256679237E-5,3.688596189E-4,1.689195212E-3
2.171728250E0,3.128550015E-4,-3.836238757E-4,-2.907095477E-3,2.948940427E-3
2.181685250E0,9.340245742E-5,9.622303769E-4,-4.344899207E-5,9.677288526E-4
2.191642250E0,-1.135251950E-4,-5.094325170E-4,3.405790776E-4,6.232203201E-4
2.201599250E0,-5.425033160E-4,-1.366205513E-3,-8.313832805E-4,1.688794100E-3
2.211556250E0,-1.177401049E-3,3.594905138E-5,-2.830884419E-3,3.066182017E-3
2.221513250E0,1.405264949E-3,1.772942021E-3,-5.767028779E-5,2.263055203E-3
2.231469250E0,-1.035788562E-3,1.675887033E-4,-1.154607162E-4,1.055592296E-3
2.241426250E0,-3.891352098E-4,-1.116503961E-3,2.065552399E-3,2.380023953E-3
2.251383250E0,5.028629676E-5,2.795252949E-4,-7.238425314E-4,7.775674327E-4
2.261340250E0,4.934431054E-4,-1.195169985E-3,-8.792821318E-4,1.563666991E-3
2.271297250E0,8.358259220E-5,-5.014166236E-4,-3.786077723E-4,6.338363554E-4
2.281254250E0,-2.122264588E-3,-1.185837202E-3,-1.310761087E-3,2.761939803E-3
2.291210250E0,1.984138507E-4,-4.068631679E-4,-1.722592860E-4,4.843335165E-4
2.301167250E0,-6.342302077E-4,-1.592848450E-3,-1.591867767E-3,2.339542077E-3
2.311124250E0,3.807003377E-4,2.793539315E-4,2.057727426E-3,2.111211389E-3
2.321081250E0,-1.505466411E-3,9.420067072E-4,8.428189903E-4,1.965744032E-3
2.331038250E0,1.496981480E-3,-4.383092746E-4,1.079574227E-3,1.896984208E-3
2.340994250E0,-2.810256323E-3,4.618242383E-5,2.938369289E-3,4.066163732E-3
2.350951250E0,3.450569930E-4,3.762543201E-7,-2.550671808E-3,2.573905815E-3
2.360908250E0,-1.700072782E-3,-6.858743727E-4,-7.624570280E-4,1.985450034E-3
2.370865250E0,9.532346157E-4,-1.470441930E-3,-1.715335995E-3,2.452189487E-3
2.380822250E0,1.619566116E-3,-4.873424768E-4,-1.158294268E-3,2.049912853E-3
2.390779250E0,9.220842039E-4,2.253583632E-3,-2.679992467E-4,2.449633047E-3
2.400735250E0,2.355877310E-3,3.896850161E-3,2.529311925E-3,5.208936350E-3
2.410692250E0,3.046434838E-3,-3.184005618E-4,-3.487663344E-4,3.082820478E-3
2.420649250E0,1.166305505E-3,2.456773072E-4,-2.696633339E-3,2.948297345E-3
2.430606250E0,-5.516996607E-4,1.083241776E-3,-2.624994144E-3,2.892815154E-3
2.440563250E0,2.999365330E-3,2.631938085E-3,1.950568520E-3,4.441622228E-3
2.450520250E0,-1.317132264E-4,2.888401039E-3,-2.350170165E-3,3.726058070E-3
2.460476250E0,5.997279659E-4,-1.600869000E-4,1.892531291E-3,1.991726923E-3
2.470433250E0,-8.122799918E-4,-8.791498840E-5,6.560254842E-4,1.047805930E-3
2.480390250E0,-1.014693640E-3,4.996517673E-4,1.652382314E-3,2.002404151E-3
2.490347250E0,7.640316617E-4,1.713520847E-3,-3.420598805E-4,1.907066605E-3
2.500304250E0,-9.811408818E-4,-2.383119427E-3,1.221282408E-3,2.851916259E-3
2.510261250E0,2.113452414E-3,-3.474485129E-5,-3.565216437E-3,4.144714291E-3
2.520217250E0,5.280629266E-4,1.004952937E-4,-2.994672395E-3,3.042533897E-3
2.530174250E0,1.161895227E-3,1.121550798E-3,-1.899580471E-3,2.493247416E-3
2.540131250E0,1.451459480E-3,8.476898074E-5,7.178122178E-4,1.621473029E-3
2.550088250E0,-1.661509508E-3,1.385649666E-4,2.640082501E-3,3.122474933E-3
2.560045250E0,9.369865293E-4,-9.094811976E-4,-2.262226306E-3,2.612042814E-3
2.570002250E0,-9.655756876E-4,1.713465899E-3,-1.724446192E-4,1.974345193E-3
2.579958250E0,1.959381625E-4,-1.592871733E-3,-6.449688226E-5,1.606173082E-3
2.589915250E0,-1.907160040E-3,3.610895947E-4,-7.587829605E-4,2.084081739E-3
2.599872250E0,1.074148109E-3,2.503433265E-3,-8.943537250E-4,2.867200875E-3
2.609829250E0,1.188930357E-3,-1.269709319E-4,1.005279832E-3,1.562134614E-3
2.619786250E0,1.390074613E-3,-1.029795036E-3,-6.009256467E-4,1.831364758E-3
2.629743250E0,-2.573567908E-4,-9.022299200E-4,-1.532766037E-3,1.797115208E-3
2.639699250E0,1.994032646E-4,-2.129574306E-3,-1.948427409E-3,2.893305680E-3
2.649656250E0,1.754955621E-3,-3.331991844E-3,-1.959079877E-3,4.245000924E-3
2.659613250E0,-1.035833964E-3,3.574015573E-4,-1.324044541E-3,1.718656981E-3
2.669570250E0,2.123474143E-3,-1.413600519E-3,2.872297540E-3,3.841549430E-3
2.679527250E0,4.731107038E-4,8.412543684E-5,1.538353972E-3,1.611658702E-3
2.689484250E0,7.343668258E-4,-1.409118995E-4,-2.853786573E-4,8.003697747E-4
2.699440250E0,1.267556800E-4,-1.658750698E-4,1.559416763E-3,1.573328377E-3
2.709397250E0,-1.700705383E-3,5.294755101E-4,-5.814982578E-4,1.873735131E-3
2.719354250E0,1.842839411E-4,1.695727929E-3,5.314713344E-4,1.786593284E-3
2.729311250E0,1.043891534E-4,3.202054650E-4,9.381351992E-4,9.967578880E-4
2.739268250E0,-1.520574326E-3,7.357075810E-5,2.066971734E-3,2.567086108E-3
2.749225250E0,1.857112744E-3,5.169864744E-4,-2.555707470E-4,1.944597430E-3
2.759181250E0,3.866129555E-5,1.697732136E-3,6.685452536E-4,1.825032015E-3
2.769138250E0,-8.721398190E-4,-5.776723847E-4,-3.026324324E-3,3.202026259E-3
2.779095250E0,-3.151649144E-4,9.746141732E-4,4.264721647E-4,1.109540543E-3
2.789052250E0,-1.027826685E-3,2.947086468E-4,1.679488458E-3,1.990970206E-3
2.799009250E0,3.919258015E-4,-1.424457878E-3,7.462613285E-4,1.655171305E-3
2.808966250E0,5.895324284E-4,5.031377077E-4,-4.026256502E-4,8.733861982E-4
2.818922250E0,8.549488848E-4,3.762338310E-4,1.635206863E-4,9.482765979E-4
2.828879250E0,-1.003404846E-3,-2.351908945E-3,-6.444826722E-4,2.636978362E-3
2.838836250E0,2.968453337E-4,1.192944124E-3,1.852736808E-3,2.223480721E-3
2.848793250E0,-6.738768425E-4,1.606533304E-3,-9.062970057E-4,1.963780415E-3
2.858750250E0,-1.111524180E-4,-9.940471500E-4,1.461552456E-3,1.771050586E-3
2.868707250E0,-4.680159036E-4,-3.050873056E-4,6.628688425E-4,8.668980634E-4
2.878663250E0,-1.503349282E-3,1.285719685E-3,2.974858508E-4,2.000407959E-3
2.888620250E0,-1.203743741E-3,-8.306941018E-4,4.098704085E-4,1.518896124E-3
2.898577250E0,-1.702450216E-3,-1.406960189E-3,1.168022864E-3,2.498429731E-3
2.908534250E0,-5.080224946E-4,7.496671751E-4,4.401793703E-4,1.006899005E-3
2.918491250E0,-2.010095632E-3,-1.498656347E-4,1.692171209E-3,2.631803100E-3
2.928448250E0,-2.627959475E-4,6.647948176E-4,5.155866966E-4,8.813872595E-4
2.938404250E0,1.973319100E-3,-1.358185895E-3,-3.729807213E-4,2.424411643E-3
2.948361250E0,-2.715708455E-3,-6.963899359E-4,9.279735386E-4,2.953162076E-3
2.958318250E0,-1.743235858E-3,2.080947161E-4,-8.912077174E-4,1.968864105E-3
2.968275250E0,-7.850304246E-4,-3.053478897E-3,-1.156192273E-3,3.358092719E-3
2.978232250E0,-7.097381167E-4,1.624462195E-3,9.883334860E-4,2.029632651E-3
2.988189250E0,-1.401627203E-3,2.995394170E-4,2.131628804E-3,2.568681381E-3
2.998145250E0,2.647046698E-3,-1.407470554E-3,-4.419218749E-5,2.998296605E-3
3.008102250E0,6.683180109E-4,9.428616613E-5,-6.505940109E-4,9.374494183E-4
3.018059250E0,-1.162519446E-3,1.440382563E-3,6.960462779E-4,1.977532252E-3
3.028016250E0,-4.815489519E-4,-1.729605719E-4,-1.960989088E-3,2.026643273E-3
3.037973250E0,-1.190133626E-3,1.623788849E-3,1.577607356E-3,2.557724231E-3
3.047930250E0,2.449342282E-3,-1.176258549E-3,-9.851520881E-4,2.890222557E-3
3.057886250E0,8.644389454E-4,4.707574844E-4,2.016872168E-5,9.845171796E-4
3.067843250E0,1.118296059E-4,-6.424440071E-4,1.075211912E-4,6.609091992E-4
3.077800417E0,1.170833129E-3,-1.210705377E-3,-4.002721980E-4,1.731148624E-3
3.087757417E0,-1.374096610E-5,1.458580606E-3,6.202505901E-4,1.585041637E-3
3.097714417E0,-5.608946085E-4,1.206127927E-4,-8.786302060E-4,1.049352775E-3
3.107671417E0,2.120642224E-3,-1.920424402E-4,4.202406853E-5,2.129734670E-3
3.117627417E0,-1.426681178E-3,9.192470461E-4,-1.456781290E-3,2.236659572E-3
3.127584417E0,-7.198783569E-4,1.577580348E-3,5.621612072E-4,1.822912457E-3
3.137541417E0,7.253196090E-4,-1.648902893E-3,7.707159966E-4,1.959329588E-3
3.147498417E0,-2.876872197E-3,1.238229685E-3,1.206675544E-3,3.356437435E-3
3.157455417E0,3.081723116E-5,-1.141327433E-3,2.963738516E-4,1.179582753E-3
3.167412417E0,-9.039521683E-4,4.975814372E-4,9.357975796E-4,1.392994587E-3
3.177368417E0,1.233384246E-4,7.822941989E-4,-1.827191561E-3,1.991438069E-3
3.187325417E0,1.417102059E-3,1.620924100E-3,-1.601355150E-3,2.683265083E-3
3.197282417E0,-1.512648538E-3,5.141785368E-4,-1.594963484E-3,2.257519364E-3
3.207239417E0,1.694040839E-4,-1.091973856E-3,-1.186434180E-3,1.621336087E-3
3.217196417E0,-5.003807601E-4,-2.784291282E-4,-1.491771080E-3,1.597900071E-3
3.227153417E0,1.715635532E-3,3.396905959E-4,-8.757822216E-4,1.955962545E-3
3.237109417E0,-3.928407095E-4,-3.183027729E-3,-7.671806961E-4,3.297659105E-3
3.247066417E0,1.241274877E-3,1.704405062E-3,3.090674058E-3,3.741393599E-3
3.257023417E0,2.127841348E-3,-9.682755917E-4,-6.487872452E-4,2.426147422E-3
3.266980417E0,-8.527685422E-4,-1.120608300E-3,1.634608023E-3,2.157526486E-3
3.276937417E0,1.165668247E-3,3.120237961E-4,1.834245399E-3,2.195585911E-3
3.286894417E0,9.587651584E-5,-2.110209316E-4,6.358232349E-4,6.767520417E-4
3.296850417E0,1.125957933E-3,-9.470451623E-4,-6.003258750E-4,1.589045929E-3
3.306807417E0,8.452608017E-4,-1.032798551E-3,-2.980659716E-3,3.265803272E-3
3.316764417E0,4.293441307E-4,1.129568554E-3,-4.747314379E-4,1.298318697E-3
3.326721417E0,-7.986393757E-4,1.851018518E-3,-9.042993188E-4,2.209491268E-3
3.336678417E0,1.237780205E-3,2.542778850E-3,4.415903240E-4,2.862311326E-3
3.346635417E0,4.449020140E-3,-1.642112620E-3,1.028284431E-3,4.852595484E-3
3.356591417E0,2.882964909E-4,1.106582582E-3,-1.548143104E-3,1.924678401E-3
3.366548417E0,-1.403876115E-3,3.249449655E-4,-1.804338768E-3,2.309133120E-3
3.376505417E0,1.166000497E-3,-9.045079350E-4,-1.904319040E-3,2.409174707E-3
3.386462417E0,1.380384900E-3,1.656653360E-3,-4.563583061E-4,2.204138319E-3
3.396419417E0,8.489013417E-4,3.191791475E-4,1.870777458E-3,2.079018305E-3
3.406376417E0,3.072144464E-4,-1.084040850E-3,7.687136531E-5,1.129351357E-3
3.416332417E0,-2.377838828E-4,3.956761211E-4,9.339805692E-4,1.041835146E-3
3.426289417E0,-7.405886427E-4,-3.215130419E-4,1.174997538E-3,1.425644201E-3
3.436246417E0,-2.614760073E-3,1.643979922E-3,3.628591076E-4,3.109872498E-3
3.446203417E0,1.149802702E-4,-5.804561079E-5,3.743106499E-4,3.958512576E-4
3.456160417E0,-2.001121175E-4,1.498283818E-4,1.617049798E-3,1.636258981E-3
3.466117417E0,-4.778797738E-4,1.715234481E-3,-6.050923839E-4,1.880567785E-3
3.476073417E0,2.052075928E-3,1.352217980E-3,3.068005666E-3,3.930924554E-3
3.486030417E0,1.998013817E-3,1.333309337E-3,8.498597890E-4,2.547947147E-3
3.495987417E0,1.494388329E-3,-8.995467797E-4,1.889292151E-3,2.571343174E-3
3.505944417E0,1.715697115E-3,4.682531580E-4,-9.762682021E-4,2.028787129E-3
3.515901417E0,1.085811527E-3,1.651884988E-3,-1.177480444E-3,2.300906535E-3
3.525858417E0,-3.671087325E-5,1.685706899E-3,1.963984221E-3,2.588472418E-3
3.535814417E0,-1.835160889E-3,1.479142345E-3,1.158941537E-3,2.626561070E-3
3.545771417E0,-1.909729559E-3,1.234930940E-3,7.155239582E-4,2.384134214E-3
3.555728417E0,8.800420910E-4,1.330761239E-3,-2.563931048E-4,1.615901291E-3
3.565685417E0,-1.010535983E-3,-4.423717037E-4,-1.023117453E-3,1.504541465E-3
3.575642417E0,1.054567285E-3,-1.789908856E-5,-1.451279037E-3,1.794057797E-3
3.585599417E0,1.489461400E-3,3.759823740E-4,-2.880105749E-4,1.562948527E-3
3.595555417E0,-4.354659468E-4,-2.322791144E-3,2.244064584E-3,3.258959213E-3
3.605512417E0,-3.722872119E-3,1.315886155E-3,4.419032484E-4,3.973236926E-3
3.615469417E0,1.194849843E-3,9.264377877E-4,-9.152665734E-4,1.767389607E-3
3.625426417E0,1.558637596E-3,8.380208164E-4,5.340259522E-4,1.848462540E-3
3.635383417E0,-8.966377936E-5,1.323320903E-3,-1.389016397E-3,1.920568759E-3
3.645340417E0,1.617422444E-3,-1.709486358E-3,-2.875327133E-3,3.715629837E-3
3.655296417E0,-3.063987941E-3,-1.392860897E-3,8.630705997E-4,3.474618603E-3
3.665253417E0,-2.215771470E-3,1.810668036E-4,-4.549277946E-4,2.269226232E-3
3.675210417E0,2.235461958E-3,1.202042215E-3,-1.040154137E-3,2.743012264E-3
3.685167417E0,-3.685011296E-3,-1.717846841E-3,-2.476396970E-3,4.760551226E-3
3.695124417E0,-8.534279186E-4,1.616455615E-3,1.768416725E-3,2.543337508E-3
3.705081417E0,-3.804506268E-4,-9.063072503E-5,-3.093183972E-3,3.117810721E-3
3.715037417E0,6.966317305E-4,-4.858113825E-4,1.133165322E-3,1.416111618E-3
3.724994417E0,-1.596616115E-3,-2.365391701E-4,1.197879203E-3,2.009987160E-3
3.734951417E0,6.936143618E-4,5.313092843E-4,7.008658722E-4,1.120090804E-3
3.744908417E0,-3.775090445E-4,7.880385965E-4,4.683705047E-4,9.914075035E-4
3.754865417E0,-1.038692426E-3,-1.720582135E-3,-1.006916165E-3,2.247924599E-3
3.764822417E0,1.501430525E-3,1.404637471E-3,-9.792195633E-4,2.277316622E-3
3.774778417E0,-2.268421464E-3,-2.053948119E-4,7.064826787E-5,2.278796644E-3
3.784735417E0,6.663820241E-4,-9.377636015E-4,-2.470668405E-4,1.176651009E-3
3.794692417E0,2.529614139E-3,4.448574036E-4,-1.110535115E-3,2.798237668E-3
3.804649417E0,7.748572389E-4,1.970849000E-3,2.690032125E-5,2.117869955E-3
3.814606417E0,3.175286110E-3,-1.780232415E-4,-2.278862521E-4,3.188426932E-3
3.824563417E0,-1.561944955E-3,-7.668482140E-4,5.657346919E-4,1.829695048E-3
3.834520417E0,1.325845253E-3,2.634413540E-4,-1.608472317E-3,2.101059299E-3
3.844476417E0,-1.170868287E-3,8.208407089E-4,-9.591933340E-4,1.721848967E-3
3.854433417E0,-3.108172677E-4,2.129068598E-4,6.579123437E-4,7.581459997E-4
3.864390417E0,-2.628802322E-4,4.065185785E-4,1.509325579E-3,1.585063744E-3
3.874347417E0,6.478376454E-4,-5.474537611E-4,-1.256530173E-3,1.516003731E-3
3.884304417E0,-3.026446793E-4,1.512501389E-3,-2.093828283E-3,2.600648214E-3
3.894260417E0,-3.001903417E-3,-9.940098971E-5,-1.580991782E-3,3.394236246E-3
3.904217417E0,-1.600814052E-3,1.011136919E-3,1.980986446E-3,2.740312172E-3
3.914174417E0,2.899820684E-4,1.333579421E-4,2.840718254E-3,2.858593035E-3
3.924131417E0,-4.988461733E-4,-2.360232174E-4,9.842272848E-4,1.128387261E-3
3.934088417E0,-5.609088112E-4,6.913654506E-4,-1.166007482E-3,1.467030445E-3
3.944045417E0,6.777272793E-4,1.408288255E-3,-2.161763608E-3,2.667547933E-3
3.954001417E0,-7.426805096E-4,-1.958897337E-4,-7.448270917E-4,1.069913325E-3
3.963958417E0,3.299199045E-3,1.316890121E-5,-6.422949955E-4,3.361165069E-3
3.973915417E0,9.848717600E-4,-7.252572104E-4,1.195928082E-3,1.710618129E-3
3.983872417E0,-2.151485533E-4,1.901152544E-3,8.424744010E-6,1.913306267E-3
3.993829417E0,-1.706323819E-4,1.219762489E-4,1.945083961E-3,1.956360199E-3
4.003786417E0,3.409609199E-4,1.186176203E-3,-5.257977173E-4,1.341540746E-3
4.013742417E0,1.137315296E-3,-1.606230624E-3,-4.839731380E-3,5.224601682E-3
4.023699417E0,-8.936114609E-4,1.165680587E-4,-4.982464015E-4,1.029747072E-3
4.033656417E0,3.159826156E-4,5.177389830E-4,-3.831665963E-4,7.174366233E-4
4.043613417E0,3.769691102E-4,-1.231159084E-3,-3.269501030E-5,1.287993541E-3
4.053570417E0,-1.044792589E-4,-3.288015723E-4,6.546601653E-4,7.400042713E-4
4.063527417E0,6.609131815E-4,4.355255514E-4,2.319669351E-3,2.450990542E-3
4.073482917E0,1.439842861E-3,-1.555206254E-3,-7.338859141E-4,2.242855879E-3
4.083439917E0,7.905641105E-4,-4.238951951E-4,6.453655660E-4,1.105068081E-3
4.093396917E0,6.291281898E-5,2.224026248E-4,7.108859718E-4,7.475157625E-4
4.103353917E0,9.068684885E-4,4.919143394E-4,-1.924045384E-3,2.183195093E-3
4.113310917E0,-4.910165444E-6,3.889882937E-4,-1.930883154E-4,4.343030047E-4
4.123267917E0,1.969574951E-4,1.297659241E-3,1.321984455E-3,1.862888794E-3
4.133224917E0,-3.174194135E-4,-2.274932340E-4,8.046068251E-4,8.943715104E-4
4.143180917E0,-1.520102844E-3,4.151277244E-4,9.239166975E-4,1.826654249E-3
4.153137917E0,-9.307579603E-4,4.861839116E-4,-7.434990257E-4,1.286653014E-3
4.163094917E0,-4.697646946E-4,-1.431291923E-3,-8.372422308E-4,1.723441322E-3
4.173051917E0,-1.639455557E-3,-2.617098391E-3,-1.774868928E-3,3.561906543E-3
4.183008917E0,-1.790723298E-3,-1.364613883E-3,-8.329087868E-4,2.400541194E-3
4.192965917E0,-4.958326463E-4,1.420850866E-3,1.240557060E-3,1.950294597E-3
4.202921917E0,-7.701383438E-4,-1.762472093E-4,-1.829268411E-3,1.992586025E-3
4.212878917E0,-8.433950134E-4,-2.125269733E-3,-3.657026216E-3,4.312995170E-3
4.222835917E0,2.173433779E-3,-1.601159573E-3,2.179823816E-3,3.469749016E-3
4.232792917E0,-7.665695157E-4,1.435505226E-3,1.160973683E-3,1.999040762E-3
4.242749917E0,1.650515595E-3,-5.818391219E-4,-1.846534200E-3,2.544096508E-3
4.252706917E0,-2.636085730E-3,2.251546830E-4,3.203302622E-3,4.154610727E-3
4.262662917E0,8.385402616E-4,-1.903509721E-3,-8.593490347E-4,2.250550998E-3
4.272619917E0,8.860591333E-5,1.467329450E-3,-1.824093983E-3,2.342696220E-3
4.282576917E0,-1.889590174E-3,-1.174259931E-3,-2.897613682E-3,3.653163350E-3
4.292533917E0,-1.551026246E-3,1.846480183E-3,2.542492002E-4,2.424832806E-3
4.302490917E0,1.429850003E-3,-7.881848142E-4,1.924317330E-3,2.523629037E-3
4.312447917E0,2.084599109E-4,-9.293463081E-4,2.386316657E-3,2.569367098E-3
4.322403917E0,1.232711598E-3,-1.011034474E-4,1.251278445E-3,1.759402609E-3
4.332360917E0,-6.070486270E-4,-6.428277120E-4,1.584395766E-3,1.814399473E-3
4.342317917E0,6.699736696E-5,-2.809036523E-4,-2.695037052E-3,2.710464946E-3
4.352274917E0,7.586576976E-4,1.410985366E-3,1.572351903E-4,1.609709324E-3
4.362231917E0,2.348032314E-3,-4.676077515E-4,-2.603396773E-3,3.536889526E-3
4.372188917E0,1.848242362E-3,2.109080553E-3,-6.101923063E-4,2.869939940E-3
4.382144917E0,-1.825321931E-3,6.736367941E-4,1.518739387E-3,2.468229327E-3
4.392101917E0,1.501866034E-3,-1.020706259E-3,-7.981499657E-4,1.983553937E-3
4.402058917E0,1.955935033E-3,-3.293501213E-4,4.154518247E-4,2.026512663E-3
4.412015917E0,-6.909989752E-4,-1.547943801E-3,-6.978884339E-4,1.833209715E-3
4.421972917E0,2.857929561E-3,-2.314135432E-3,3.058575094E-4,3.690058671E-3
4.431929917E0,9.488476207E-4,1.760525629E-4,-1.196925528E-3,1.537510011E-3
4.441885917E0,-1.414707862E-3,4.889741540E-4,-6.989147514E-4,1.651961225E-3
4.451842917E0,-8.557189722E-4,8.730888367E-4,-7.796380669E-4,1.449956755E-3
4.461799917E0,9.182125796E-4,-1.421077177E-4,-5.226433277E-4,1.066051121E-3
4.471756917E0,-1.755392179E-3,8.060596883E-6,1.824287698E-3,2.531697509E-3
4.481713917E0,3.117534798E-4,1.440841705E-3,-3.304770216E-4,1.510771363E-3
4.491670917E0,-1.749216579E-3,-1.823185943E-3,9.789559990E-4,2.709634749E-3
4.501626917E0,-1.768863294E-4,-3.248909488E-4,7.401406765E-5,3.772545353E-4
4.511583917E0,2.527445555E-3,-1.005874015E-3,4.507619888E-4,2.757344726E-3
4.521540917E0,-1.442528795E-3,1.343300566E-3,1.322148368E-3,2.373483104E-3
4.531497917E0,-3.218497150E-4,2.464856952E-4,1.452745870E-3,1.508248321E-3
4.541454917E0,-2.157033887E-3,-2.131750807E-4,2.231653780E-4,2.179000135E-3
4.551411917E0,-2.624913584E-3,-1.673552208E-3,-9.696874768E-4,3.260558560E-3
4.561367917E0,-2.813998144E-3,1.897213981E-3,-1.410706900E-3,3.675336774E-3
4.571324917E0,1.141084358E-4,1.162964851E-3,-2.882071771E-3,3.109959111E-3
4.581281917E0,-1.284583705E-3,1.190062612E-4,-1.968340948E-3,2.353440858E-3
4.591238917E0,3.292247420E-4,-1.796539873E-3,-2.704691142E-4,1.846374281E-3
4.601195917E0,9.563991334E-4,7.214797661E-4,2.875790000E-3,3.115349175E-3
4.611152917E0,-7.798958104E-4,3.279795870E-3,-1.730609685E-3,3.789499744E-3
4.621108917E0,-1.081631752E-3,8.326172829E-4,-1.154301688E-3,1.787621653E-3
4.631065917E0,-7.529577706E-4,1.169499941E-3,-4.599988461E-5,1.391686569E-3
4.641022917E0,1.093737083E-4,-8.254740387E-4,4.845019430E-4,9.633857636E-4
4.650979917E0,5.008300068E-4,-4.878081381E-4,9.712353349E-4,1.196697769E-3
4.660936917E0,-2.182570985E-3,5.620103329E-4,1.077229157E-3,2.497978057E-3
4.670893917E0,4.012611462E-4,-7.974049076E-4,-6.928388029E-4,1.129995885E-3
4.680849917E0,-1.130589051E-3,-1.218717545E-3,1.761503518E-4,1.671685677E-3
4.690806917E0,-8.630098309E-4,-1.365011558E-4,-1.281153411E-3,1.550732922E-3
4.700763917E0,-6.275863852E-4,-2.408710308E-3,2.033149824E-3,3.213945896E-3
4.710720917E0,-3.328023013E-4,-1.010973938E-3,1.738712192E-3,2.038613686E-3
4.720677917E0,-4.441223573E-4,-6.525125355E-4,-2.828938887E-4,8.384785205E-4
4.730634917E0,9.652767912E-4,2.664273605E-3,3.503244370E-4,2.855317905E-3
4.740590917E0,9.916420095E-4,5.633058026E-4,2.089900896E-3,2.380830329E-3
4.750547917E0,1.123731490E-4,4.505645484E-4,-2.606017515E-4,5.324935772E-4
4.760504917E0,-1.256757881E-3,-9.851455688E-4,-1.939991489E-3,2.512671714E-3
4.770461917E0,8.855678607E-4,-3.734417260E-5,6.537809968E-4,1.101387586E-3
4.780418917E0,2.697582589E-3,-1.004337333E-3,-1.068752259E-3,3.070484766E-3
4.790375917E0,-4.416512093E-4,-6.391108036E-5,2.089560032E-3,2.136680028E-3
4.800331917E0,1.852662070E-3,1.840293407E-4,-4.494981840E-4,1.915273390E-3
4.810288917E0,-9.119033348E-5,2.567079850E-3,2.163760364E-3,3.358582073E-3
4.820245917E0,-9.154387517E-4,-1.130186953E-3,-3.990000114E-4,1.508161684E-3
4.830202917E0,-1.089110738E-4,-9.025493637E-4,2.092989162E-3,2.281898465E-3
4.840159917E0,-1.222378691E-3,1.110490412E-4,1.545622945E-5,1.227509857E-3
4.850116917E0,5.196232814E-5,-6.837695837E-4,1.095645130E-3,1.292547553E-3
4.860073917E0,2.188882791E-3,7.580649108E-4,6.674081087E-4,2.410664610E-3
4.870029917E0,7.940166397E-4,1.170247793E-3,-2.403829247E-3,2.788967079E-3
4.879986917E0,9.839000413E-4,4.325527698E-4,-1.878133044E-4,1.091070588E-3
4.889943917E0,-3.778429003E-3,2.555850893E-3,-9.189173579E-4,4.653311577E-3
4.899900917E0,-1.600229414E-3,-6.709713489E-5,1.441974193E-3,2.155116186E-3
4.909857917E0,5.743764341E-4,-5.046213046E-4,7.485039532E-4,1.069957530E-3
4.919814917E0,2.539522946E-3,-1.316352747E-3,1.442339271E-4,2.864046922E-3
4.929770917E0,-2.457876224E-3,-7.907953113E-5,-6.878003478E-5,2.460109713E-3
4.939727917E0,-1.980904024E-3,-1.163640991E-4,3.717057407E-4,2.018832958E-3
4.949684917E0,1.749765361E-4,-3.476200625E-3,-2.487986349E-3,4.278394985E-3
4.959641917E0,-4.290282959E-4,-1.249369234E-5,7.396563888E-6,4.292738988E-4
4.969598917E0,-7.479350315E-4,-1.466094516E-3,-4.929015413E-4,1.718077958E-3
4.979555917E0,5.849770969E-4,7.165595889E-6,1.672513783E-3,1.771878073E-3
4.989511917E0,-2.177966991E-3,-6.408272311E-4,-1.597103663E-3,2.775777344E-3
4.999468917E0,1.300653908E-3,1.229671761E-4,-3.017101437E-3,3.287814258E-3
5.009425917E0,2.736975439E-3,-1.521621831E-3,-9.043226019E-4,3.259473411E-3
5.019382917E0,-2.785621677E-3,5.638999864E-4,-1.202329993E-3,3.085979380E-3
5.029339917E0,-5.983023439E-4,4.612291232E-4,8.194521070E-5,7.598769744E-4
5.039296917E0,-9.572964627E-4,-6.261393428E-4,-1.923600212E-4,1.159943693E-3
5.049252917E0,1.328610582E-3,-1.223255880E-3,1.929331571E-3,2.642703415E-3
5.059209917E0,-9.798174724E-4,-1.988647506E-3,1.976203173E-3,2.969872079E-3
5.069166917E0,-4.739232827E-4,1.881085336E-4,1.583952457E-3,1.663999244E-3
5.079124917E0,-7.255920209E-4,2.861125395E-4,-1.738341525E-3,1.905301925E-3
5.089081917E0,5.609601503E-4,5.644978955E-4,-1.952887513E-3,2.108815734E-3
5.099038917E0,2.405819250E-4,-6.107892841E-5,-3.994656727E-4,4.703010969E-4
5.108994917E0,1.401323359E-3,1.343814656E-4,2.954352647E-3,3.272608302E-3
5.118951917E0,-5.728779361E-4,3.532934934E-4,1.983363181E-3,2.094453373E-3
5.128908917E0,1.798801590E-3,-1.087608747E-3,1.732798293E-3,2.724182423E-3
5.138865917E0,-3.151481971E-3,-1.382154413E-3,-5.018804222E-5,3.441614196E-3
5.148822917E0,-4.202707671E-3,-4.722476006E-4,-2.688061446E-3,5.011131998E-3
5.158779917E0,-1.430623000E-3,3.171125427E-4,-3.434149548E-4,1.505050287E-3
5.168735917E0,-3.635594621E-4,2.916501835E-3,1.428542659E-3,3.267857488E-3
5.178692917E0,2.605332527E-3,-8.766390383E-4,1.956913620E-3,3.374279849E-3
5.188649917E0,-2.729820088E-3,-1.245126128E-3,3.416053951E-4,3.019760095E-3
5.198606917E0,4.270912614E-4,-1.894404180E-3,1.784771681E-3,2.637533715E-3
5.208563917E0,-8.948759641E-4,-1.379157417E-3,-7.742121816E-4,1.817218389E-3
5.218520917E0,-8.189759683E-4,5.143499002E-4,-1.188067719E-3,1.531921134E-3
5.228477917E0,-1.056240173E-3,-9.611491114E-4,-4.109330475E-4,1.486040675E-3
5.238433917E0,-8.040387183E-4,-2.304713242E-3,-1.444505528E-3,2.836331717E-3
5.248390917E0,-6.962795742E-4,5.258833990E-4,-3.548609093E-4,9.419579925E-4
5.258347917E0,1.964119729E-4,-7.015652955E-6,3.023892641E-3,3.030272857E-3
5.268304917E0,-1.343232580E-4,3.313925117E-5,1.077132300E-3,1.085981095E-3
5.278261917E0,-2.434761962E-3,6.832163781E-4,7.293242961E-4,2.631874685E-3
5.288218917E0,-6.921723252E-4,-2.179738134E-3,-1.673946157E-3,2.834158887E-3
5.298174917E0,-2.783170203E-4,6.607891992E-4,-4.523795098E-3,4.580264711E-3
5.308131917E0,1.816587523E-3,-1.190774143E-3,-2.094667405E-3,3.017542845E-3
5.318088917E0,-1.863634679E-3,-9.843790904E-4,3.173574805E-4,2.131396768E-3
5.328045917E0,-9.577674791E-5,1.459732652E-3,2.900816500E-3,3.248804237E-3
5.338002917E0,-7.418597816E-4,-7.496261969E-4,1.848334447E-3,2.128059115E-3
5.347959917E0,-1.628497033E-3,-7.767360657E-4,1.543005928E-3,2.374065879E-3
5.357915917E0,1.117754728E-3,4.104838707E-3,-3.249356523E-4,4.266691882E-3
5.367872917E0,-8.933211211E-5,1.657367684E-3,-2.257646993E-3,2.802109529E-3
5.377829917E0,4.190653563E-4,1.186787151E-3,1.391973346E-4,1.266276199E-3
5.387786917E0,1.322286320E-3,6.183451042E-4,1.720182598E-3,2.256062931E-3
5.397743917E0,-6.146306405E-4,1.549385488E-3,1.229895279E-3,2.071474985E-3
5.407700917E0,-7.916678442E-4,-1.033003442E-3,8.191280067E-4,1.537792176E-3
5.417656917E0,-2.756814472E-3,-2.024232410E-3,-4.871534184E-4,3.454686865E-3
5.427613917E0,1.417703461E-4,-3.949841484E-4,-8.731521666E-5,4.286435064E-4
5.437570917E0,-3.430860350E-3,1.339266077E-3,-8.926549926E-4,3.789626538E-3
5.447527917E0,-1.455392223E-3,-2.603016794E-3,-9.942119941E-4,3.143615823E-3
5.457484917E0,4.783291370E-4,4.186062142E-4,3.807768226E-4,7.409594553E-4
5.467441917E0,-1.217762823E-3,-9.208405390E-4,-5.248794332E-4,1.614432412E-3
5.477397917E0,-1.116030035E-3,-3.273476847E-3,-1.534483396E-3,3.783624320E-3
5.487354917E0,2.104626037E-4,-9.731054306E-4,2.065308392E-3,2.292755425E-3
5.497311917E0,-5.464078858E-4,-4.822853953E-4,1.435203478E-3,1.609648969E-3
5.507268917E0,1.758739585E-3,3.409935161E-4,4.095425829E-4,1.837706895E-3
5.517225917E0,7.443416398E-4,-7.937792689E-4,3.453595564E-4,1.141666864E-3
5.527182917E0,-4.499788629E-4,-2.090585418E-3,-8.094124496E-6,2.138479339E-3
5.537139917E0,1.347388607E-3,-2.671420574E-3,-2.891498618E-3,4.160854263E-3
5.547095917E0,1.748597948E-3,1.157633960E-6,5.862601101E-4,1.844260567E-3
5.557052917E0,-7.966218982E-5,-2.190861851E-4,2.844886854E-3,2.854422189E-3
5.567009917E0,3.705566050E-4,-8.833808824E-4,7.794080302E-4,1.234969983E-3
5.576966917E0,1.779901446E-3,-6.881719455E-4,8.731512353E-4,2.098576390E-3
5.586923917E0,5.302835489E-4,-2.333750948E-3,-2.080841921E-3,3.171355740E-3
5.596880917E0,-2.207277576E-4,2.260794863E-4,-1.852609217E-3,1.879359888E-3
5.606836917E0,-4.878687905E-4,-1.838329248E-3,-6.457976997E-5,1.903060936E-3
5.616793917E0,5.301914643E-5,-1.367748715E-3,-1.810015179E-3,2.269295601E-3
5.626750917E0,1.557658194E-3,3.486489877E-4,7.800376043E-4,1.776601764E-3
5.636707917E0,-9.867259068E-4,3.856671974E-4,1.505483873E-3,1.840882640E-3
5.646664917E0,-1.108546508E-3,-1.093607396E-3,4.778038710E-4,1.628848991E-3
5.656621917E0,-2.119482495E-3,8.592884988E-4,-1.022331417E-4,2.289330554E-3
5.666577917E0,1.128470525E-3,-5.057146773E-4,5.286410451E-4,1.344862229E-3
5.676534917E0,-1.637222129E-3,1.014683396E-3,-3.882842138E-4,1.964902879E-3
5.686491917E0,1.443271874E-3,2.451464534E-4,3.100261092E-4,1.496411266E-3
5.696448917E0,-8.055013604E-4,1.642507501E-3,9.973868728E-4,2.083613185E-3
5.706405917E0,9.937452851E-4,-4.345979542E-4,5.224719644E-5,1.085879755E-3
5.716362917E0,-2.812444698E-3,-1.229285263E-3,-1.070542261E-3,3.250699643E-3
5.726318917E0,-4.958591890E-4,1.501517370E-3,-7.951455191E-4,1.769939871E-3
5.736275917E0,2.728163730E-3,-7.158303633E-4,-2.468004823E-4,2.831289623E-3
5.746232917E0,1.986543182E-3,7.902132347E-4,-1.391099766E-3,2.550676250E-3
5.756189917E0,-3.471849486E-4,-1.120871864E-3,-2.749683335E-4,1.205196544E-3
5.766146917E0,-1.337600988E-3,7.614037022E-4,4.712250084E-4,1.609647480E-3
5.776103917E0,-5.852581235E-4,-1.457009465E-3,-6.433082744E-4,1.696835050E-3
5.786060917E0,7.666650927E-4,1.224337146E-3,6.397934631E-4,1.579909012E-3
5.796016917E0,2.449518070E-4,-6.846170872E-4,-9.234808385E-4,1.175380280E-3
5.805973917E0,-1.394282677E-3,3.331005573E-4,-7.787728682E-4,1.631400425E-3
5.815930917E0,1.652373699E-3,-1.243490726E-3,-1.624592580E-3,2.629811605E-3
5.825887917E0,-7.974480977E-4,3.109807149E-4,-5.834959447E-4,1.035905397E-3
5.835844917E0,-1.230744296E-3,-1.212080941E-3,4.692524672E-4,1.789991510E-3
5.845801917E0,-1.580256969E-3,1.572070643E-3,-1.022874378E-3,2.452527306E-3
5.855757917E0,-2.396216150E-4,1.025057398E-3,1.404330134E-3,1.755079575E-3
5.865714917E0,-1.802562736E-3,1.867126673E-3,7.439665496E-4,2.699792707E-3
5.875671917E0,3.061282914E-4,-1.874348149E-3,-7.796278223E-4,2.052977120E-3
5.885628917E0,-2.222288400E-3,-7.851338014E-4,-9.134067222E-4,2.527708974E-3
5.895585917E0,1.104265917E-3,2.234624699E-3,-3.492144868E-3,4.290457614E-3
5.905542917E0,-1.538456418E-4,-7.749609649E-4,-3.011608496E-3,3.113521915E-3
5.915498917E0,-8.715675212E-4,-4.505878314E-4,2.138145268E-3,2.352514511E-3
5.925455917E0,-8.868874284E-4,1.556824893E-3,5.689468235E-4,1.879886578E-3
5.935412917E0,-1.301275450E-3,1.211146824E-3,2.402268350E-3,2.988492538E-3
5.945369917E0,1.543752267E-3,-3.001680598E-4,7.709600031E-4,1.751471168E-3
5.955326917E0,-1.837130636E-3,1.161108725E-3,9.983945638E-4,2.391655107E-3
5.965283917E0,-1.209787908E-3,-1.846416853E-3,-8.504558355E-5,2.209089118E-3
5.975239917E0,-8.209663210E-4,2.587214112E-3,-9.851939976E-4,2.887606236E-3
5.985196917E0,-1.063459553E-3,-2.447981387E-4,1.006232575E-3,1.484377426E-3
5.995153917E0,-8.341614157E-4,-1.596885733E-3,6.608199328E-4,1.918997732E-3
6.005110917E0,-1.250384143E-3,5.629668012E-4,-6.166063249E-4,1.503527680E-3
6.015067917E0,2.341687446E-3,-2.182220109E-3,-1.645385288E-3,3.599010620E-3
6.025024917E0,-9.763885755E-4,-1.179895364E-3,5.105137825E-5,1.532349165E-3
6.034981917E0,-2.167087747E-3,1.971955411E-3,1.715261489E-3,3.395143505E-3
6.044937917E0,-1.265267609E-3,1.471046358E-3,-4.208916798E-4,1.985454436E-3
6.054894917E0,1.110540470E-4,4.941988736E-4,9.857900441E-4,1.108308413E-3
6.064851917E0,-1.021270058E-3,1.158704981E-4,1.327194273E-3,1.678649202E-3
6.074808625E0,-4.045822192E-3,-1.902805641E-3,3.822334111E-5,4.471108089E-3
6.084765625E0,-9.803415742E-5,-5.266163498E-4,-4.299134016E-4,6.868486069E-4
6.094722625E0,-9.137636516E-5,7.765553892E-5,7.711723447E-4,7.804401374E-4
6.104678625E0,1.451537013E-3,4.977174103E-5,9.161420166E-5,1.455276636E-3
6.114635625E0,-2.446302678E-4,-1.696720719E-4,-5.334289744E-4,6.108838275E-4
6.124592625E0,-9.822169086E-4,-2.109111287E-3,2.116460353E-3,3.145235270E-3
6.134549625E0,1.091586659E-3,1.835029572E-3,-6.067380309E-5,2.136018791E-3
6.144506625E0,5.205608904E-4,9.648781270E-4,-4.164343700E-4,1.172770662E-3
6.154463625E0,1.103793271E-3,-4.718964919E-4,2.928229049E-3,3.164738733E-3
6.164419625E0,-1.120945555E-3,1.191435382E-3,6.549693644E-4,1.762107282E-3
6.174376625E0,8.002588293E-4,-2.243006602E-4,1.501321793E-3,1.716010520E-3
6.184333625E0,-1.344684279E-3,-9.060529992E-4,-8.916156366E-4,1.850428677E-3
6.194290625E0,2.957652323E-3,4.684049636E-4,-2.922808751E-3,4.184485807E-3
6.204247625E0,-4.026003880E-4,-2.297777683E-4,1.407861710E-4,4.844642827E-4
6.214204625E0,2.121810103E-3,4.354799166E-4,-1.506113447E-3,2.638199876E-3
6.224161625E0,4.247326870E-4,-1.038393937E-3,8.998066187E-5,1.125502707E-3
6.234117625E0,1.757378457E-3,-1.563550904E-4,1.637507230E-4,1.771903004E-3
6.244074625E0,-1.177465310E-3,-1.054127701E-3,1.756045967E-4,1.590109034E-3
6.254031625E0,1.035621390E-3,-1.482630149E-3,-1.564505510E-3,2.391313721E-3
6.263988625E0,-1.835834468E-3,3.683473915E-5,-1.516873017E-4,1.842458691E-3
6.273945625E0,1.713892911E-3,1.286622137E-5,-2.478225157E-3,3.013170154E-3
6.283902625E0,-2.164386213E-3,-1.103472896E-3,4.583839327E-4,2.472313884E-3
6.293858625E0,1.326751895E-3,-1.499217935E-3,-8.942931890E-5,2.003976699E-3
6.303815625E0,6.307134172E-4,1.062843017E-3,1.116985455E-3,1.665860499E-3
6.313772625E0,-1.704612514E-3,2.530245110E-3,8.953921497E-5,3.052189610E-3
6.323729625E0,-7.542599924E-4,-1.310859807E-3,2.140633762E-3,2.620987309E-3
6.333686625E0,-2.980928868E-3,-1.160391606E-3,-1.636261120E-3,3.593020463E-3
6.343643625E0,-6.140237674E-4,-1.322600991E-3,-1.894496381E-5,1.458306373E-3
6.353599625E0,-1.077568159E-4,-1.215541735E-3,-1.992397010E-4,1.236466619E-3
6.363556625E0,-2.329718322E-3,1.342007890E-4,2.031197771E-3,3.093761739E-3
6.373513625E0,4.508881830E-4,-2.236811444E-3,2.377409488E-3,3.295254385E-3
6.383470625E0,-8.487873711E-4,1.393192448E-3,1.103131101E-3,1.969345938E-3
6.393427625E0,-1.526372507E-4,-2.402876504E-3,-7.347175851E-4,2.517324682E-3
6.403384625E0,4.730368964E-4,6.494242698E-4,-1.040956937E-3,1.314955182E-3
6.413340625E0,2.025393536E-3,-2.310945652E-3,8.554793894E-4,3.189754500E-3
6.423297625E0,-2.745112870E-4,-1.622003503E-3,-1.250332221E-3,2.066296802E-3
6.433254625E0,-2.406891435E-4,-3.949073143E-3,-1.571775414E-3,4.257180746E-3
6.443211625E0,2.933585783E-4,-2.887398005E-4,-9.982930496E-4,1.079823569E-3
6.453168625E0,-6.861520233E-4,1.417813823E-3,1.214260235E-3,1.988825924E-3
6.463125625E0,3.578050528E-4,-2.448459156E-3,3.174347803E-3,4.024855360E-3
6.473082625E0,-1.798872836E-4,1.195277087E-3,-7.474236190E-4,1.421157562E-3
6.483038625E0,2.451404231E-3,9.355638176E-4,-8.784756064E-4,2.767016760E-3
6.492995625E0,7.517748745E-4,-1.320400275E-3,1.300789416E-3,2.000168856E-3
6.502952625E0,7.644994184E-5,-1.740902662E-4,1.448536292E-3,1.460961807E-3
6.512909625E0,-2.557682805E-3,-2.808822319E-4,1.237347722E-3,2.855112177E-3
6.522866625E0,-9.200713830E-4,-2.406045794E-3,2.757441252E-4,2.590679937E-3
6.532823625E0,1.957474044E-3,-3.511790186E-3,-1.338506117E-4,4.022721831E-3
6.542779625E0,5.457235966E-4,-8.820686489E-4,-2.721524797E-3,2.912482887E-3
6.552736625E0,-1.413718564E-4,-1.476219855E-3,-1.948942430E-3,2.448997276E-3
6.562693625E0,1.618013950E-3,1.708707772E-3,6.957165897E-5,2.354249691E-3
6.572650625E0,1.474203309E-3,5.156118423E-4,-1.947506331E-3,2.496379754E-3
6.582607625E0,-2.528199228E-3,-9.710341692E-4,-2.676928416E-4,2.721462502E-3
6.592564625E0,1.762410393E-4,-1.451876014E-4,-2.383840270E-3,2.394751507E-3
6.602521625E0,-1.822047634E-4,-7.536225021E-4,2.017568797E-3,2.161418354E-3
6.612477625E0,1.016750466E-3,1.038950868E-3,-3.734165803E-4,1.500879862E-3
6.622434625E0,-1.172682969E-3,1.440680586E-3,1.325143501E-3,2.281830667E-3
6.632391625E0,6.691592280E-4,1.468377188E-3,2.064436674E-3,2.620268005E-3
6.642348625E0,2.720040968E-3,-1.388139091E-3,1.974962652E-4,3.060156496E-3
6.652305625E0,-1.765255001E-3,-3.939801827E-4,-3.535123542E-4,1.842909816E-3
6.662262625E0,1.243976410E-3,2.441789955E-3,-2.127151936E-3,3.469090782E-3
6.672218625E0,3.472900717E-4,-8.938191459E-4,-2.379054204E-4,9.879888908E-4
6.682175625E0,-2.374429256E-3,-3.062188625E-4,1.671496779E-3,2.919860573E-3
6.692132625E0,1.128160278E-3,-9.328611195E-4,6.906539202E-4,1.618634708E-3
6.702089625E0,1.181836706E-5,-2.828773111E-3,1.044346020E-3,3.015419639E-3
6.712046625E0,5.005083513E-4,-4.164818674E-4,8.009336889E-4,1.032211475E-3
6.722003625E0,2.135772957E-3,1.382017508E-4,-4.801768810E-4,2.193443795E-3
6.731959625E0,-1.287128543E-4,-1.386990771E-3,-1.669278368E-3,2.174120665E-3
6.741916625E0,2.147563966E-3,-1.998130232E-3,-2.877033316E-3,4.108756030E-3
6.751873625E0,-1.100427238E-3,-1.052707434E-3,-1.896724105E-3,2.432425822E-3
6.761830625E0,2.326346003E-4,-2.184218727E-3,-2.594134770E-3,3.399186007E-3
6.771787625E0,1.156485174E-3,-3.154790029E-4,-6.332499906E-4,1.355725086E-3
6.781744625E0,-5.495396908E-5,-1.733973622E-4,-1.055936329E-3,1.071488738E-3
6.791701625E0,5.288110115E-4,-1.296452247E-3,-6.745718420E-4,1.554180390E-3
6.801657625E0,3.815651871E-5,2.619214356E-4,3.671273589E-5,2.672201028E-4
6.811614625E0,-1.887575258E-3,5.079973489E-4,2.788556740E-3,3.405444222E-3
6.821571625E0,-1.832900103E-3,1.077678986E-3,1.693628728E-4,2.132978801E-3
6.831528625E0,-1.403864706E-3,2.220058814E-4,1.945158467E-3,2.409100285E-3
6.841485625E0,-1.518904231E-3,2.246840857E-3,4.136784002E-3,4.946548876E-3
6.851442625E0,-1.158045838E-3,2.448708750E-3,-2.971725538E-3,4.020994576E-3
6.861398625E0,-9.669733699E-4,1.148799434E-3,9.371340275E-5,1.504513157E-3
6.871355625E0,-2.537172986E-3,8.462639526E-4,-8.304025978E-4,2.800531720E-3
6.881312625E0,-2.956933808E-3,-1.168196090E-3,-6.000353023E-4,3.235457002E-3
6.891269625E0,-1.820829115E-3,1.655553468E-3,-1.001600176E-4,2.462987612E-3
6.901226625E0,8.229480591E-4,-9.628487751E-4,1.780234277E-3,2.184846757E-3
6.911183625E0,1.103112707E-3,1.217747107E-3,1.819916070E-3,2.451909493E-3
6.921140625E0,-1.281147241E-3,2.619251609E-4,-3.572879359E-4,1.355580212E-3
6.931096625E0,-7.956529735E-4,1.302422024E-3,-1.431073993E-3,2.092209253E-3
6.941053625E0,-1.926746103E-3,-1.437393948E-3,-2.882634290E-3,3.753402770E-3
6.951010625E0,8.360173088E-4,7.314849645E-4,-4.029655829E-4,1.181683737E-3
6.960967625E0,1.605843427E-3,4.488974810E-5,-5.656806752E-4,1.703156724E-3
6.970924625E0,-3.457210260E-4,3.812462091E-4,3.070333973E-3,3.113169190E-3
6.980881625E0,-2.469749423E-3,1.150291413E-3,1.476231962E-3,3.098724472E-3
6.990837625E0,1.219527796E-3,1.944825053E-4,-1.966580749E-5,1.235094423E-3
7.000794625E0,-3.043582663E-3,1.151368953E-3,-2.894916572E-3,4.355409034E-3
7.010751625E0,-5.061224801E-4,-2.303017303E-3,-2.584658563E-3,3.498643816E-3
7.020708625E0,-2.905621659E-5,-1.141317189E-4,6.741136312E-4,6.843241197E-4
7.030665625E0,-1.875958405E-3,-7.706005126E-4,2.603307366E-3,3.300038535E-3
7.040622625E0,-6.880608853E-4,-5.305502564E-4,4.094691947E-3,4.185858753E-3
7.050579625E0,-3.754056524E-4,1.158959232E-3,8.099488914E-4,1.462919380E-3
7.060535625E0,1.279370510E-3,1.532543451E-3,-6.906688213E-4,2.112463432E-3
7.070492625E0,-2.745839301E-4,-1.253922470E-3,-8.133705705E-5,1.286209008E-3
7.080449250E0,7.276302204E-4,-2.179710194E-3,-4.240619019E-4,2.336752183E-3
7.090406250E0,-1.999446657E-3,-8.507929742E-4,-1.072808169E-3,2.423335095E-3
7.100363250E0,1.453696867E-3,1.537550241E-3,-5.327286199E-4,2.181993379E-3
7.110320250E0,-8.858900983E-4,7.681623101E-4,1.242801547E-3,1.708634041E-3
7.120276250E0,4.942299565E-4,-4.542144015E-4,-1.119191758E-3,1.305053319E-3
7.130233250E0,-1.944160322E-3,-9.253276512E-4,7.498152554E-4,2.279959108E-3
7.140190250E0,2.171438886E-3,3.552865237E-4,-7.099146023E-4,2.312002182E-3
7.150147250E0,1.545063336E-3,6.125476211E-4,-3.011683933E-3,3.439865610E-3
7.160104250E0,6.907293573E-4,-1.865588129E-4,1.449717209E-3,1.616660515E-3
7.170061250E0,-1.068874262E-4,-1.873671077E-3,4.217363894E-4,1.923520161E-3
7.180018250E0,-1.552374684E-3,-7.244423032E-4,-9.974204004E-4,1.982304534E-3
7.189974250E0,-9.166783420E-4,1.736851409E-3,-4.245741293E-4,2.009282258E-3
7.199931250E0,-5.217001308E-4,-2.117892727E-4,-2.647219226E-4,6.221763567E-4
7.209888250E0,2.611207310E-5,-6.778426468E-4,-1.315632835E-4,6.909858116E-4
7.219845250E0,-5.336829927E-4,1.849699765E-3,-3.509223461E-5,1.925470910E-3
7.229802250E0,-2.022656379E-3,-2.193106338E-4,-3.365613520E-4,2.062161373E-3
7.239759250E0,3.822720610E-3,-1.881225035E-4,-2.290681005E-5,3.827415271E-3
7.249715250E0,-8.573452942E-5,-1.701526344E-6,-7.619336247E-4,7.667438642E-4
7.259672250E0,1.394807594E-3,-5.585011095E-4,-6.757145748E-4,1.647422805E-3
7.269629250E0,5.633687833E-4,1.611175947E-3,-1.008609310E-3,1.982565272E-3
7.279586250E0,-3.968415549E-4,-1.004788093E-3,6.408058107E-5,1.082214698E-3
7.289543250E0,2.738231560E-3,4.753964022E-4,1.828690991E-3,3.326864072E-3
7.299500250E0,8.829078870E-4,-9.932620451E-4,1.696387306E-3,2.154953763E-3
7.309456250E0,-2.646483481E-4,1.763908193E-3,1.901717857E-3,2.607286265E-3
7.319413250E0,2.535238396E-3,1.115177758E-3,1.436732709E-4,2.773390915E-3
7.329370250E0,-9.489750955E-4,1.432892866E-3,-3.567974083E-3,3.960325082E-3
7.339327250E0,-7.642807905E-4,-1.370633021E-3,3.165677190E-4,1.600929457E-3
7.349284250E0,-1.617024885E-3,1.584143378E-3,4.683677107E-4,2.311633196E-3
7.359241250E0,-2.062512562E-3,8.133463562E-4,7.638186216E-4,2.344975319E-3
7.369198250E0,-3.424927127E-5,-9.701726958E-4,-3.126300871E-4,1.019875308E-3
7.379154250E0,-3.425544128E-5,2.571647987E-3,-1.028330065E-3,2.769839260E-3
7.389111250E0,3.604249796E-4,1.047787257E-3,-1.035787165E-3,1.516779270E-3
7.399068250E0,1.957035856E-3,5.559995770E-4,-3.273305483E-3,3.854043806E-3
7.409025250E0,2.369002905E-4,-1.949502155E-3,1.051135361E-3,2.227457283E-3
7.418982250E0,9.284382104E-4,5.913646892E-4,3.135422245E-3,3.323038122E-3
7.428939250E0,-2.484126016E-4,-1.337829046E-3,1.248305663E-3,1.846554198E-3
7.438896250E0,1.825976651E-4,-7.807631046E-4,7.631294429E-4,1.106932464E-3
7.448852250E0,3.210611641E-3,1.118869521E-3,-3.197127953E-4,3.414983512E-3
7.458809250E0,-2.981597325E-3,1.520579681E-3,-1.236199401E-3,3.567950971E-3
7.468766250E0,1.025394769E-3,-1.489857212E-3,-1.763238572E-3,2.525889785E-3
7.478723250E0,7.791897515E-4,1.628282480E-3,-1.722536981E-4,1.813315152E-3
7.488680250E0,-1.197674777E-3,1.031734049E-3,8.994024247E-4,1.818742627E-3
7.498637250E0,1.406533294E-3,1.630881801E-3,-1.635774970E-5,2.153689609E-3
7.508593250E0,-2.530950587E-3,6.680749357E-5,1.547183841E-3,2.967145422E-3
7.518550250E0,-6.179860793E-5,-1.061675139E-3,-2.185921185E-3,2.430889671E-3
7.528507250E0,2.176055685E-3,-1.006813720E-3,-2.887398005E-3,3.753126623E-3
7.538464250E0,-8.953252109E-4,6.600022316E-4,7.847622037E-4,1.361272161E-3
7.548421250E0,2.059185645E-3,3.342973068E-4,-1.045362093E-3,2.333405690E-3
7.558378250E0,-9.443463059E-4,5.159778520E-4,1.542136073E-3,1.880480459E-3
7.568335250E0,-1.732641947E-3,-6.938958541E-4,2.581566572E-3,3.185596575E-3
7.578291250E0,-8.943342837E-4,-3.672214225E-4,3.192555159E-4,1.018140201E-3
7.588248250E0,1.231667353E-3,1.060765237E-3,-1.454676501E-3,2.181355331E-3
7.598205250E0,1.866277889E-3,-4.051495343E-4,-1.118274406E-3,2.213069577E-3
7.608162250E0,-1.519665122E-3,-2.149254084E-3,-2.484742552E-3,3.619754239E-3
7.618119250E0,1.653767657E-3,1.103617251E-4,7.834192365E-4,1.833268358E-3
7.628076250E0,-1.029100851E-3,-8.260058239E-4,-8.171414956E-4,1.552112885E-3
7.638032250E0,3.702787217E-5,-8.410308510E-5,8.886214346E-4,8.933601996E-4
7.647989250E0,-1.196281984E-3,-1.139305532E-4,2.596240491E-3,2.860862710E-3
7.657946250E0,-2.196204849E-3,1.015909947E-3,-3.760894760E-4,2.448843003E-3
7.667903250E0,1.057645306E-3,-1.459231600E-3,-2.493036911E-3,3.076232029E-3
7.677860250E0,-8.482264820E-5,1.106782816E-3,-1.629039645E-3,1.971277061E-3
7.687817250E0,-1.148489187E-3,6.303433329E-4,8.426401764E-4,1.557691432E-3
7.697774250E0,2.921787789E-3,-1.967382617E-3,7.471553981E-4,3.600788724E-3
7.707730250E0,2.036020393E-3,4.140157253E-4,4.155915231E-4,2.118845057E-3
7.717687250E0,9.867189219E-4,-4.440052435E-4,1.245817170E-3,1.650095545E-3
7.727644250E0,-9.985070210E-5,1.413570717E-4,-2.718031406E-3,2.723535700E-3
7.737601250E0,6.429742789E-4,-1.705158502E-5,-2.354973927E-3,2.441231017E-3
7.747558250E0,-2.250550315E-3,-1.450098120E-3,-9.054150432E-4,2.826223218E-3
7.757515250E0,-7.091425359E-4,2.741310745E-4,-4.064291716E-5,7.613690492E-4
7.767471250E0,1.136694453E-3,-4.020463675E-4,-4.363888875E-4,1.282244447E-3
7.777428250E0,-1.120449160E-3,-8.148588240E-4,1.097377390E-3,1.767381781E-3
7.787385250E0,-1.768911025E-4,-2.300103195E-3,1.050505787E-3,2.534822988E-3
7.797342250E0,1.016300637E-3,1.472349279E-3,-3.159308806E-3,3.630690226E-3
7.807299250E0,-1.048714388E-3,-8.709663525E-4,-2.498049289E-4,1.385924514E-3
7.817256250E0,-1.775219338E-3,1.279838383E-3,-1.575641334E-3,2.696671207E-3
7.827213250E0,1.712722704E-3,1.882091165E-4,8.520968258E-4,1.922215059E-3
7.837169250E0,-4.692790098E-4,-1.392648555E-3,3.177318722E-4,1.503544589E-3
7.847126250E0,4.196842201E-4,1.212188974E-3,1.202434301E-3,1.758233546E-3
7.857083250E0,2.006135648E-3,5.886889994E-6,-6.370516494E-4,2.104863344E-3
7.867040250E0,-2.006449271E-3,2.151063643E-3,-3.801685758E-3,4.806841799E-3
7.876997250E0,-1.485709450E-3,6.820252165E-4,-2.271541394E-3,2.798640969E-3
7.886954250E0,-2.127530985E-3,-9.720642120E-4,-1.753023826E-3,2.923078763E-3
7.896910250E0,9.891086956E-4,-5.460353568E-4,-1.836556941E-3,2.156254164E-3
7.906867250E0,-9.414167143E-4,5.956618115E-4,2.654863521E-3,2.879128122E-3
7.916824250E0,8.404477267E-4,1.493363641E-3,3.985967487E-4,1.759365429E-3
7.926781250E0,1.972942846E-4,-1.878997311E-3,-5.406998098E-4,1.965174856E-3
7.936738250E0,-1.741570886E-4,-1.156478189E-3,-1.278471202E-3,1.732703410E-3
7.946695250E0,-5.105142482E-4,6.877612323E-4,-3.634303808E-3,3.733872585E-3
7.956652250E0,1.633297536E-3,3.175875172E-4,-1.603721641E-3,2.310940452E-3
7.966608250E0,-4.635809455E-5,3.340998664E-4,4.389230162E-4,5.535568696E-4
7.976565250E0,1.309072832E-3,2.166861668E-3,7.440689951E-4,2.638673879E-3
7.986522250E0,-6.105336361E-4,1.942580566E-4,3.818422556E-3,3.871800399E-3
7.996479250E0,-3.624691162E-4,1.065703109E-4,1.212436706E-3,1.269938525E-3
8.006436250E0,3.904064652E-4,-2.953009680E-4,-1.967910677E-3,2.027878769E-3
8.016393250E0,-9.949984960E-4,-9.003309533E-4,-2.373171039E-3,2.726271926E-3
8.026350250E0,-1.370504266E-3,1.069609076E-3,-5.670152605E-4,1.828620196E-3
8.036306250E0,1.072736457E-3,1.143778674E-3,-1.438129693E-4,1.574698489E-3
8.046263250E0,-4.740273580E-4,-6.623780355E-4,2.918822691E-3,3.030341977E-3
8.056220250E0,2.516434761E-4,1.512723975E-3,1.868747175E-3,2.417410653E-3
8.066177250E0,-1.795794815E-3,1.510594040E-3,5.286447704E-4,2.405460177E-3
8.076134250E0,-1.463526860E-5,2.734136768E-3,-3.524054773E-3,4.460345289E-3
8.086091875E0,5.717928289E-4,1.815878786E-3,-1.667253673E-5,1.903848938E-3
8.096047875E0,4.709641216E-4,-7.949732244E-4,-2.530673519E-4,9.580358636E-4
8.106004875E0,-5.208072253E-5,2.239523456E-4,-1.004682854E-4,2.509201688E-4
8.115961875E0,-6.605118979E-4,1.525434665E-3,-6.126658991E-4,1.771605596E-3
8.125918875E0,3.943660995E-4,7.427316159E-4,2.672076225E-3,2.801279391E-3
8.135875875E0,4.056403413E-3,-4.579667002E-4,3.289859742E-4,4.095408883E-3
8.145832875E0,7.966943085E-4,-8.625015616E-4,-7.634609938E-5,1.176630567E-3
8.155789875E0,8.305078372E-4,-1.039980911E-3,-6.375340745E-4,1.475721267E-3
8.165745875E0,-3.245052649E-4,-7.112324238E-5,1.744663343E-3,1.776010237E-3
8.175702875E0,-1.836691750E-3,7.697697729E-4,-1.978493296E-3,2.807208188E-3
8.185659875E0,1.590264030E-3,-4.118746147E-4,4.500430077E-4,1.703267181E-3
8.195616875E0,-1.404127805E-3,2.405781299E-3,1.148425043E-3,3.013011555E-3
8.205573875E0,-3.950560931E-4,5.327798426E-4,1.040033996E-3,1.233529242E-3
8.215530875E0,4.981565289E-4,2.869302407E-4,2.578962594E-4,6.300788609E-4
8.225487875E0,-1.567657571E-3,-5.104206502E-4,-1.640670933E-3,2.325915005E-3
8.235443875E0,-6.628325209E-4,9.351875633E-5,-2.277446911E-4,7.070787459E-4
8.245400875E0,2.128959168E-3,-9.411191568E-4,-1.120702364E-3,2.583436895E-3
8.255357875E0,-3.064887132E-4,1.361320727E-3,-1.365340315E-3,1.952250913E-3
8.265314875E0,-6.210079882E-4,1.180492342E-3,1.164661720E-3,1.770776669E-3
8.275271875E0,-9.623161750E-4,1.799120568E-3,1.339446753E-4,2.044707415E-3
8.285228875E0,8.608837379E-4,1.337061636E-3,-2.742801793E-3,3.170459952E-3
8.295184875E0,8.627373027E-4,4.446199164E-4,-1.529494300E-3,1.811451169E-3
8.305141875E0,8.347741095E-4,1.451294869E-3,-1.867182553E-3,2.507882632E-3
8.315098875E0,2.380511723E-3,6.805025041E-4,7.768329233E-4,2.594877476E-3
8.325055875E0,1.073166030E-3,5.433494225E-4,2.737985924E-3,2.990565305E-3
8.335012875E0,3.147578798E-3,-1.119823195E-3,1.318296418E-3,3.591540300E-3
8.344969875E0,-1.272203401E-3,1.631222665E-3,-4.060994834E-4,2.108152193E-3
8.354926875E0,9.807506576E-4,-3.781123087E-4,-1.087284647E-3,1.512292523E-3
8.364882875E0,-2.003587782E-3,1.827783883E-3,-6.425362080E-4,2.787115122E-3
8.374839875E0,4.555966007E-4,-2.025762573E-3,-5.727373064E-4,2.153905821E-3
8.384796875E0,5.932820495E-4,-2.025626600E-4,2.395268530E-4,6.711097785E-4
8.394753875E0,-4.033371806E-5,-1.559331082E-3,4.315506667E-3,4.588762145E-3
8.404710875E0,3.292079549E-3,-8.812900633E-4,1.856876537E-3,3.881037285E-3
8.414667875E0,1.941800001E-3,-1.885434613E-4,-1.480927691E-3,2.449343321E-3
8.424624875E0,5.439067027E-4,-4.689740017E-4,4.317611456E-6,7.181850439E-4
8.434580875E0,7.130571175E-4,-2.155266702E-5,-5.124378949E-4,8.783550344E-4
8.444537875E0,6.709791487E-4,-1.037814654E-3,7.610861212E-4,1.451387047E-3
8.454494875E0,5.527535686E-4,2.056518570E-4,1.374928281E-3,1.496080536E-3
8.464451875E0,-2.621735912E-4,-6.257873029E-4,2.772023901E-3,2.853850250E-3
8.474408875E0,9.890657384E-5,7.432773709E-4,1.208221540E-3,1.421985601E-3
8.484365875E0,2.594951075E-4,-5.763191730E-4,-1.955614425E-3,2.055215142E-3
8.494322875E0,1.745074871E-3,3.868946806E-4,5.708057433E-4,1.876377626E-3
8.504278875E0,1.114704646E-3,-1.973997802E-3,3.521591425E-4,2.294177376E-3
8.514235875E0,7.068220293E-4,-1.096011139E-3,-4.015220329E-4,1.364572366E-3
8.524192875E0,-1.397968736E-4,2.310415730E-4,3.343094140E-4,4.297512753E-4
8.534149875E0,-4.654147197E-4,1.907436177E-3,7.023978978E-4,2.085254526E-3
8.544106875E0,-1.497123390E-3,-4.792883992E-4,2.294702455E-3,2.781502323E-3
8.554063875E0,7.898508338E-4,8.967546746E-4,-5.884077400E-4,1.332012370E-3
8.564019875E0,1.695325598E-3,-2.271342091E-3,7.391776890E-4,2.929079623E-3
8.573976875E0,1.155642327E-3,2.046979032E-3,-1.817693003E-3,2.971471050E-3
8.583933875E0,-1.498392085E-4,8.898358792E-4,-1.227536239E-3,1.523517278E-3
8.593890875E0,2.160053235E-3,-5.004126579E-4,-3.538447432E-3,4.175745806E-3
8.603847875E0,-9.358715033E-4,-5.078697577E-4,2.962388098E-4,1.105235085E-3
8.613804875E0,1.799624646E-3,6.088335067E-5,1.618290320E-3,2.420995500E-3
8.623761875E0,8.424846455E-4,-2.689896151E-3,-1.109585166E-3,3.029273993E-3
8.633717875E0,-4.696735414E-4,-3.337664530E-4,-2.898925915E-3,2.955632715E-3
8.643674875E0,-9.160194313E-4,-2.208482474E-4,-3.037409857E-3,3.180208199E-3
8.653631875E0,2.079201629E-3,2.700667828E-4,-5.437284708E-4,2.166023115E-3
8.663588875E0,-1.281973906E-3,-1.266310923E-3,3.233699128E-3,3.701865813E-3
8.673545875E0,-6.871110527E-4,1.588557847E-3,2.784013748E-3,3.278165673E-3
8.683502875E0,-1.711629215E-3,-4.218630493E-4,1.291092485E-4,1.767572403E-3
8.693459875E0,1.286616782E-3,-8.292458951E-4,1.125298440E-3,1.899823170E-3
8.703415875E0,2.678118413E-3,7.617268711E-4,-3.250541165E-3,4.280019151E-3
8.713372875E0,-1.191537594E-3,-3.535021096E-5,-6.705522537E-8,1.192061861E-3
8.723329875E0,1.302246470E-3,-1.189297065E-3,-7.889699191E-5,1.765360618E-3
8.733286875E0,3.317103256E-4,-1.683328301E-3,1.224579290E-3,2.107894766E-3
8.743243875E0,5.013536429E-4,-3.536418080E-5,1.185432076E-3,1.287577302E-3
8.753200875E0,-7.847395027E-4,-7.859384641E-4,-1.879593357E-3,2.183205567E-3
8.763156875E0,-5.178906722E-4,-8.336091414E-4,-2.266284078E-3,2.469647439E-3
8.773113875E0,3.511307295E-5,6.552347913E-4,-1.342869364E-3,1.494611551E-3
8.783070875E0,-1.903668046E-3,1.138065942E-3,-1.841945574E-3,2.883038261E-3
8.793027875E0,-1.895943074E-3,-3.096866421E-3,1.453941688E-3,3.911410002E-3
8.802984875E0,-9.174976731E-4,1.088823192E-3,3.853715956E-3,4.108340857E-3
8.812941875E0,-2.618507482E-3,3.183875233E-4,8.978601545E-4,2.786414346E-3
8.822898875E0,-9.159484180E-4,-1.012127846E-3,-1.867299899E-3,2.313044141E-3
8.832854875E0,-1.573212678E-3,-1.785788685E-3,-1.040698960E-3,2.597516830E-3
8.842811875E0,3.773346543E-5,-9.725801647E-6,-3.145128489E-3,3.145369869E-3
8.852768875E0,3.052563407E-3,-1.328105107E-3,-1.575903036E-3,3.683134114E-3
8.862725875E0,3.465254558E-4,1.688191667E-3,-8.334135637E-4,1.914327340E-3
8.872682875E0,4.279403947E-4,2.334024757E-4,2.724770457E-3,2.768028854E-3
8.882639875E0,-1.351051265E-3,7.407339290E-4,1.273347065E-3,1.998859430E-3
8.892596875E0,-8.988740155E-4,-1.883431338E-3,3.172105178E-3,3.797043503E-3
8.902552875E0,-8.173811948E-4,2.758596092E-4,-4.396736622E-4,9.682579568E-4
8.912509875E0,-3.698825603E-4,7.581561804E-4,-2.137915231E-3,2.298324485E-3
8.922466875E0,-7.586961146E-5,-2.383042127E-3,-1.966940239E-3,3.090873644E-3
8.932423875E0,1.802352956E-3,1.041628420E-3,3.683734685E-4,2.114039961E-3
8.942380875E0,-9.593450231E-4,-1.261473633E-3,1.523384824E-3,2.198262933E-3
8.952337875E0,-1.148101874E-4,-8.496288210E-4,2.166470513E-3,2.329945277E-3
8.962294875E0,-6.628886331E-4,-2.224547789E-4,4.719011486E-4,8.435627792E-4
8.972250875E0,-3.166122828E-3,4.735663533E-4,1.452641562E-3,3.515503713E-3
8.982207875E0,-2.347814152E-4,-2.086530440E-3,-3.747978248E-3,4.296053134E-3
8.992164875E0,-1.591888256E-3,3.207493573E-3,2.899114043E-4,3.592516091E-3
9.002121875E0,-1.847018953E-3,-1.234126277E-3,3.993678838E-4,2.256998314E-3
9.012078875E0,-3.660663497E-4,-8.586142212E-4,6.791558117E-4,1.154329056E-3
9.022035875E0,4.299508873E-5,-5.020173267E-4,1.435227692E-3,1.521101082E-3
9.031992875E0,6.004130701E-4,1.135176048E-3,3.663171083E-4,1.335405833E-3
9.041948875E0,-2.568584168E-4,-1.725059003E-3,-2.140516415E-3,2.761089519E-3
9.051905875E0,-7.255146047E-4,9.000152349E-4,-1.483876258E-3,1.881033656E-3
9.061862875E0,-8.235190762E-4,1.362339593E-3,-1.152046025E-3,1.965035084E-3
9.071819875E0,-4.135717172E-4,9.693931788E-4,2.584865317E-3,2.791467966E-3
9.081776500E0,6.967001827E-4,8.602030575E-4,2.591522411E-3,2.818036346E-3
9.091733500E0,-9.753985796E-5,-5.498854443E-4,-9.975451976E-4,1.143234205E-3
9.101690500E0,7.112621097E-4,-7.903855294E-5,5.148649216E-4,8.816046557E-4
9.111646500E0,1.830878900E-4,-8.385973051E-4,-3.082809970E-3,3.200075612E-3
9.121603500E0,6.020030705E-4,-7.717525586E-4,-1.520599239E-3,1.808378211E-3
9.131560500E0,9.079623851E-4,-1.385749318E-3,-2.006946132E-3,2.602408431E-3
9.141517500E0,7.830600953E-4,-1.852069050E-3,1.877008006E-3,2.750727528E-3
9.151474500E0,-1.202284824E-3,1.730786636E-3,9.415540844E-4,2.308167081E-3
9.161431500E0,1.062201103E-3,-3.390219063E-4,6.963685155E-5,1.117164414E-3
9.171387500E0,-2.783744596E-3,-1.512072980E-3,-7.289787754E-4,3.250693577E-3
9.181344500E0,4.559766967E-5,-3.384174779E-4,-1.802233048E-3,1.834298093E-3
9.191301500E0,-3.663662355E-3,1.837648451E-4,1.058053225E-3,3.817809320E-3
9.201258500E0,6.490607047E-4,3.443537280E-4,6.564483047E-4,9.852835455E-4
9.211215500E0,-7.471251301E-4,1.094091684E-3,2.906970680E-3,3.194637868E-3
9.221172500E0,2.283818554E-3,-3.112637438E-3,3.223717213E-4,3.874049888E-3
9.231129500E0,-8.916354273E-4,2.138027921E-4,1.307539642E-3,1.596992575E-3
9.241085500E0,-7.430310361E-4,1.019408926E-3,-1.886390150E-3,2.269307709E-3
9.251042500E0,6.962263724E-4,1.294300891E-3,-3.516626544E-3,3.811378781E-3
9.260999500E0,2.163628116E-3,1.594971865E-3,-2.451362088E-3,3.637911209E-3
9.270956500E0,2.834311686E-3,-1.425278373E-3,-5.846032873E-4,3.225911062E-3
9.280913500E0,1.993019134E-3,-1.284663565E-3,1.107303426E-3,2.616984261E-3
9.290870500E0,1.765294815E-3,-2.035442740E-4,6.038136780E-3,6.294187146E-3
9.300827500E0,1.519517973E-4,9.301630780E-4,1.944059506E-3,2.160476814E-3
9.310783500E0,-2.379888436E-3,1.231035218E-3,-1.635575667E-3,3.139175758E-3
9.320740500E0,-9.244710673E-4,-7.136054337E-4,5.020573735E-5,1.168931172E-3
9.330697500E0,4.314939724E-4,5.321288481E-4,-3.933115862E-3,3.992336227E-3
9.340654500E0,-2.995438408E-4,-1.349926926E-3,3.617629409E-4,1.429301103E-3
9.350611500E0,5.267396336E-4,6.941994652E-4,8.898712695E-4,1.245487220E-3
9.360568500E0,2.114214003E-4,-7.521631196E-4,1.473635435E-3,1.667947770E-3
9.370525500E0,8.174881805E-5,-1.567757688E-3,-1.072377898E-3,1.901194728E-3
9.380481500E0,-1.360352850E-3,1.242410392E-3,1.445785165E-5,1.842376858E-3
9.390438500E0,7.803812623E-4,-7.963962853E-4,-3.508199006E-5,1.115559368E-3
9.400395500E0,-1.208467293E-3,-2.202545293E-3,-2.968287095E-3,3.888743659E-3
9.410352500E0,1.252459013E-3,-3.121336922E-4,1.158293337E-3,1.734279238E-3
9.420309500E0,1.981898909E-3,-9.057521820E-4,7.617492229E-4,2.308370027E-3
9.430266500E0,1.419894397E-4,-2.168398350E-4,1.677561551E-3,1.697466722E-3
9.440223500E0,1.084215706E-3,1.136586070E-4,3.235777840E-3,3.414483886E-3
9.450179500E0,-8.040403482E-4,-1.281695440E-3,5.153417587E-4,1.598374553E-3
9.460136500E0,-3.113800194E-3,-6.758263335E-4,-1.168841496E-3,3.393918580E-3
9.470093500E0,-1.446220092E-3,1.013152301E-3,-9.306706488E-4,1.996040580E-3
9.480050500E0,-1.110129291E-3,-1.292878762E-3,-8.992450312E-4,1.926801537E-3
9.490007500E0,-6.892104866E-4,7.790485397E-4,2.168618143E-3,2.405167847E-3
9.499964500E0,-1.236490090E-3,1.348432153E-3,6.748512387E-4,1.950025951E-3
9.509921500E0,-2.178399125E-3,-2.165167592E-3,1.478821039E-3,3.408853930E-3
9.519877500E0,-1.889978768E-3,-8.791275322E-4,2.188285813E-3,3.022164747E-3
9.529834500E0,-6.760483375E-4,-2.321272157E-3,-6.109997630E-4,2.493725424E-3
9.539791500E0,-1.406819676E-3,1.170132309E-3,-5.763787776E-4,1.918479533E-3
9.549748500E0,-1.804879517E-3,-2.322625369E-5,-1.167988405E-3,2.149959638E-3
9.559705500E0,8.782907389E-5,-2.343372442E-3,-3.907315433E-3,4.556997064E-3
9.569662500E0,1.079646870E-3,2.605514601E-4,9.240824729E-4,1.444802009E-3
9.579619500E0,1.164868008E-3,-8.294805884E-4,1.462306827E-3,2.045310925E-3
9.589575500E0,-2.246579388E-4,5.589295179E-4,8.379518986E-4,1.032006192E-3
9.599532500E0,3.892006353E-4,1.138166524E-3,-1.352763735E-3,1.810212665E-3
9.609489500E0,-4.131516907E-4,3.218678758E-3,-9.948574007E-4,3.394160944E-3
9.619446500E0,-1.531146700E-3,-1.926282421E-3,1.578555442E-3,2.923493025E-3
9.629403500E0,-3.694857005E-4,-2.507967874E-4,-7.034512237E-4,8.332240608E-4
9.639360500E0,2.057985635E-3,6.749182940E-4,-3.370073624E-3,4.006022443E-3
9.649317500E0,1.053157845E-3,-1.683839597E-3,-8.374182507E-4,2.155394757E-3
9.659273500E0,3.644643584E-4,8.333809674E-4,-4.864139482E-4,1.031482736E-3
9.669230500E0,-4.660266452E-3,-4.057269543E-4,4.245515913E-3,6.317206909E-3
9.679187500E0,1.597629511E-3,1.512547955E-3,-5.369894207E-4,2.264636617E-3
9.689144500E0,3.412367078E-4,8.253147826E-4,-5.422616377E-4,1.044813220E-3
9.699101500E0,-9.360152762E-4,1.700163819E-3,-6.780829281E-4,2.055839990E-3
9.709058500E0,1.152419718E-3,5.233362317E-4,-2.947060391E-3,3.207353577E-3
9.719015500E0,-1.669465797E-3,-1.632263884E-4,-1.650366932E-3,2.353182932E-3
9.728971500E0,1.936569111E-3,4.375455901E-4,1.134406775E-3,2.286618639E-3
9.738928500E0,-8.632120444E-4,1.585368067E-3,1.890745014E-3,2.614085624E-3
9.748885500E0,-1.799611142E-3,2.644686960E-3,1.218648627E-3,3.423167226E-3
9.758842500E0,1.069145976E-3,7.362654433E-4,8.041411638E-5,1.300625369E-3
9.768799500E0,-1.944620162E-4,1.972967759E-3,-2.477457747E-4,1.997947753E-3
9.778756500E0,-1.952608582E-4,1.672030427E-3,-9.284494445E-4,1.922454400E-3
9.788713500E0,-8.662272012E-4,-7.516453043E-4,-1.323426142E-3,1.751221568E-3
9.798669500E0,1.663243165E-3,-1.315969974E-3,-1.409712248E-3,2.546653376E-3
9.808626500E0,-1.178144710E-3,8.386000991E-4,1.699948683E-3,2.231837944E-3
9.818583500E0,3.806034802E-4,1.656190492E-3,-9.807897732E-4,1.962084232E-3
9.828540500E0,2.176191891E-3,-1.002511010E-3,-1.225155778E-3,2.691067846E-3
9.838497500E0,5.801594816E-4,1.574363559E-3,2.049617469E-4,1.690329837E-3
9.848454500E0,6.979738828E-5,-7.715784013E-4,-6.470018998E-4,1.009364336E-3
9.858411500E0,9.254710749E-4,3.141670488E-3,2.486184239E-4,3.284570183E-3
9.868367500E0,2.682283754E-3,-1.877825707E-5,-1.787980087E-3,3.223642590E-3
9.878324500E0,-6.469337968E-4,-8.563427255E-4,-4.313662648E-4,1.156686239E-3
9.888281500E0,9.659475763E-4,1.005549915E-3,1.006947830E-3,1.719921302E-3
9.898238500E0,1.150238328E-3,-8.533364162E-4,2.106035128E-3,2.546883431E-3
9.908195500E0,1.343463315E-3,-8.309930563E-4,7.797330618E-4,1.761654559E-3
9.918152500E0,-1.057110028E-3,-1.923665404E-4,-7.334761322E-4,1.300951088E-3
9.928109500E0,6.080340827E-4,5.055731162E-4,1.038178802E-3,1.305038254E-3
9.938065500E0,1.049629645E-4,4.355311394E-4,-1.273978502E-3,1.350453931E-3
9.948022500E0,1.477306359E-3,2.376083285E-5,-3.992104903E-4,1.530479556E-3
9.957979500E0,-7.544227410E-4,-7.243212312E-4,-7.515465841E-4,1.287873125E-3
9.967936500E0,-1.810447546E-3,6.233481690E-4,-2.027768642E-3,2.788929709E-3
9.977893500E0,2.574970713E-4,1.868642867E-3,2.010315657E-4,1.896983024E-3
9.987850500E0,-4.835375585E-4,-2.074546181E-3,6.169117987E-4,2.217685864E-3
9.997806500E0,1.038458897E-3,-2.577379346E-4,2.597771585E-3,2.809491579E-3
1.000776350E1,4.432705231E-3,8.651800454E-4,2.477079630E-3,5.151051899E-3
1.001772050E1,1.183115761E-3,-1.087183133E-3,1.450963318E-3,2.164953722E-3
1.002767750E1,-1.467203256E-4,1.854579896E-3,2.933457494E-3,3.473638771E-3
1.003763450E1,2.315105638E-3,-4.546474665E-4,3.672353923E-4,2.387735384E-3
1.004759150E1,-1.621099189E-3,-2.260025591E-3,-4.002120346E-3,4.873668589E-3
1.005754850E1,-1.572097186E-3,-1.221126877E-3,-1.658271998E-3,2.590850523E-3
1.006750450E1,-1.220662612E-3,5.046091974E-4,-1.359990798E-3,1.895843513E-3
1.007746150E1,-1.517338678E-3,-7.209768519E-4,-2.696923912E-4,1.701428303E-3
1.008741867E1,2.951387083E-3,-1.001849771E-3,1.078061759E-3,3.297969957E-3
1.009737567E1,1.665195450E-4,-6.750794128E-4,-8.183745667E-4,1.073870525E-3
1.010733267E1,-1.683275215E-3,1.981349662E-3,-1.791108400E-3,3.157092212E-3
1.011728967E1,-1.693129074E-3,-1.849873923E-3,5.729794502E-4,2.572357876E-3
1.012724667E1,-2.740696771E-3,2.267447300E-3,2.368353307E-5,3.557147306E-3
1.013720367E1,-1.078955829E-4,1.009901986E-3,-9.086895734E-4,1.362813347E-3
1.014715967E1,2.227241173E-3,-1.096823253E-3,-2.427501604E-3,3.472231059E-3
1.015711667E1,1.948070712E-5,1.777661964E-4,9.413976222E-4,9.582326449E-4
1.016707367E1,7.519116625E-4,-6.184633821E-5,1.075474545E-3,1.313712912E-3
1.017703067E1,-1.962115988E-3,-2.980405465E-3,3.516282886E-4,3.585576430E-3
1.018698767E1,-4.195703659E-4,-7.577948272E-4,1.118750311E-3,1.414883229E-3
1.019694467E1,7.817817386E-4,1.139174215E-3,-9.159054607E-4,1.657643928E-3
1.020690167E1,-1.133882906E-4,1.655668020E-4,-1.546167769E-3,1.559135670E-3
1.021685767E1,-3.374428954E-3,9.852880612E-4,1.058404334E-3,3.671210027E-3
1.022681467E1,-1.532708295E-3,-1.977974549E-3,-7.003452629E-4,2.598472921E-3
1.023677167E1,-6.021999288E-4,1.496118493E-3,-2.521415241E-3,2.993083714E-3
1.024672867E1,-8.186595514E-4,6.308127195E-5,-2.531101927E-3,2.660950897E-3
1.025668567E1,2.198435599E-3,-1.227753237E-3,2.945423126E-3,3.875050256E-3
1.026664267E1,-8.265180513E-4,6.560767069E-4,1.541458070E-3,1.868063628E-3
1.027659967E1,1.182836946E-3,-9.332979098E-4,1.128401607E-3,1.882402299E-3
1.028655567E1,-1.706191571E-3,5.694516003E-4,1.154888421E-3,2.137552823E-3
1.029651267E1,3.011598252E-3,-1.637171954E-4,-2.294703387E-3,3.789748142E-3
1.030646967E1,2.643821063E-4,-2.533905208E-4,-1.368633471E-3,1.416778823E-3
1.031642667E1,6.494751433E-4,-2.073179930E-4,6.966479123E-4,9.747394655E-4
1.032638367E1,2.183386590E-3,-8.950559422E-4,1.062881202E-3,2.588053050E-3
1.033634067E1,-1.349829137E-3,7.811374962E-4,2.011498436E-3,2.545258424E-3
1.034629767E1,9.244051762E-4,8.280845359E-4,7.459912449E-4,1.448016528E-3
1.035625367E1,-1.912926557E-3,-4.100184888E-4,8.450616151E-4,2.131087118E-3
1.036621067E1,-1.123257447E-3,-4.029003903E-4,7.061548531E-4,1.386611226E-3
1.037616767E1,3.132474143E-3,7.776794955E-4,-5.231332034E-5,3.227989520E-3
1.038612467E1,-1.200428233E-3,-4.555378109E-4,-1.389190555E-3,1.891664092E-3
1.039608167E1,2.302960260E-3,1.061932184E-3,-7.079541683E-4,2.632968862E-3
1.040603867E1,1.293600420E-3,9.247744456E-4,-8.515715599E-4,1.803824810E-3
1.041599567E1,-2.594880993E-3,1.380440779E-3,1.707192510E-3,3.399048452E-3
1.042595167E1,-2.412740141E-3,9.357817471E-4,4.033004865E-3,4.791881750E-3
1.043590867E1,-2.567203715E-3,6.178002805E-4,3.517158329E-4,2.663816084E-3
1.044586567E1,-1.736813691E-3,-1.370627433E-5,-7.401481271E-4,1.887996003E-3
1.045582267E1,2.902945504E-3,-8.211769164E-4,-1.268519089E-3,3.272699926E-3
1.046577967E1,5.870930618E-4,-8.004065603E-5,1.659497619E-3,1.762105875E-3
1.047573667E1,5.061329575E-4,-2.196987160E-3,-2.885187045E-3,3.661588103E-3
1.048569367E1,1.745748101E-3,-2.539334819E-4,-1.589578576E-3,2.374632328E-3
1.049564967E1,-1.904380508E-3,1.777525060E-3,7.172506303E-4,2.701982406E-3
1.050560667E1,-2.680361038E-3,1.676441170E-3,5.934871733E-4,3.216677994E-3
1.051556367E1,1.492279815E-3,-8.535617962E-4,3.274362534E-4,1.750051795E-3
1.052552067E1,1.469643321E-3,-1.446721144E-3,-1.388119534E-3,2.485906152E-3
1.053547767E1,5.630380474E-5,1.156785525E-3,2.956828102E-3,3.175555904E-3
1.054543467E1,3.790956689E-4,8.117230609E-4,1.031011343E-3,1.365866847E-3
1.055539167E1,8.451488102E-4,2.981908619E-5,3.538377583E-3,3.638032656E-3
1.056534767E1,1.297858544E-4,9.855246171E-4,1.884004101E-3,2.130158349E-3
1.057530467E1,-6.800815463E-4,-9.436691180E-4,-1.277433708E-3,1.727674504E-3
1.058526167E1,-1.370999031E-3,1.462502405E-4,1.964690164E-3,2.400215598E-3
1.059521867E1,-5.012105685E-4,-9.331284091E-4,4.774704576E-5,1.060292621E-3
1.060517567E1,-1.638385002E-4,3.704736009E-4,1.527922228E-3,1.580708726E-3
1.061513267E1,2.859693486E-4,-2.276720479E-4,2.860834822E-3,2.884092389E-3
1.062508967E1,-4.889606498E-5,1.221528277E-3,9.738523513E-4,1.562981305E-3
1.063504567E1,7.180942921E-4,3.442829475E-4,-5.888910964E-4,9.904458005E-4