"Time (s)","Gyroscope x (rad/s)","Gyroscope y (rad/s)","Gyroscope z (rad/s)","Absolute (rad/s)"
5.873124999E-3,4.096425837E-4,1.502512023E-4,-2.124777064E-2,2.125225022E-2
1.583012500E-2,4.658353282E-4,-2.570699900E-3,-2.202168480E-2,2.217611557E-2
2.578712500E-2,1.595409354E-3,-1.627125777E-3,-2.197848633E-2,2.209630581E-2
3.574412500E-2,5.344059318E-4,-1.057475805E-3,-2.453405596E-2,2.456264943E-2
4.570012500E-2,1.326420810E-3,3.125807270E-4,-2.453065664E-2,2.456848009E-2
5.565712500E-2,1.107509015E-3,-1.404229552E-4,-2.445022762E-2,2.447570071E-2
6.561412500E-2,3.111171536E-3,-5.019791424E-4,-2.351817116E-2,2.372837428E-2
7.557112500E-2,6.586663658E-4,3.382479772E-4,-2.468037605E-2,2.469148062E-2
8.552812500E-2,1.238110475E-3,-3.410748206E-3,-2.179123089E-2,2.209126217E-2
9.548512500E-2,-4.439419135E-4,-1.379555091E-3,-2.221227810E-2,2.225950482E-2
1.054421250E-1,-1.740218839E-3,1.371558756E-5,-2.443360351E-2,2.449550020E-2
1.153991250E-1,3.924405901E-4,-1.492035575E-3,-2.418246679E-2,2.423162974E-2
1.253561250E-1,8.205962367E-4,-5.670338869E-4,-2.216700464E-2,2.218943443E-2
1.353121250E-1,7.624272257E-5,1.856176183E-3,-2.088016458E-2,2.096264477E-2
1.452691250E-1,7.506944239E-4,-3.215279430E-4,-1.984622329E-2,1.986301844E-2
1.552261250E-1,-5.302859936E-4,-2.106645145E-3,-1.938229986E-2,1.950365875E-2
1.651831250E-1,-2.339342842E-3,9.181909263E-4,-2.154728025E-2,2.169333736E-2
1.751401250E-1,-1.639197581E-3,1.288298517E-4,-2.193317562E-2,2.199472116E-2
1.850971250E-1,3.113743151E-4,1.584086567E-4,-2.195178345E-2,2.195456317E-2
1.950541250E-1,8.501317352E-4,2.090083435E-4,-2.054749988E-2,2.056614110E-2
2.050111250E-1,-1.144636190E-3,5.638087168E-4,-2.011449449E-2,2.015492398E-2
2.149671250E-1,-1.674338942E-3,5.741948262E-4,-1.999891363E-2,2.007709284E-2
2.249241250E-1,-2.102762228E-3,1.565353945E-3,-1.933723874E-2,1.951411654E-2
2.348811250E-1,1.448030234E-3,1.741182059E-4,-1.955907978E-2,1.961338091E-2
2.448381250E-1,2.437479561E-4,-4.797112197E-4,-2.091128752E-2,2.091820933E-2
2.547951250E-1,9.674148168E-5,1.514463685E-3,-1.975121349E-2,1.980942689E-2
2.647521250E-1,-1.361130271E-3,1.124170609E-3,-2.199456096E-2,2.206529281E-2
2.747091250E-1,-9.896191768E-4,-4.204632714E-4,-1.991596445E-2,1.994496868E-2
2.846661250E-1,-4.965527914E-4,-3.117138520E-3,-2.098051272E-2,2.121662158E-2
2.946231250E-1,4.557935754E-4,7.173046470E-5,-1.986864209E-2,1.987399888E-2
3.045791250E-1,1.152319368E-3,-1.890999265E-3,-2.021868154E-2,2.033958705E-2
3.145361250E-1,-6.021710578E-4,-9.386530146E-4,-2.050550282E-2,2.053580593E-2
3.244931250E-1,1.153577352E-3,-1.417219639E-3,-1.820874400E-2,1.830020793E-2
3.344501250E-1,-2.594555495E-3,-1.198840328E-3,-1.765320823E-2,1.788308410E-2
3.444071250E-1,-4.397968296E-4,-6.072409451E-4,-1.835753582E-2,1.837284094E-2
3.543641250E-1,8.518361719E-4,1.176544465E-3,-1.898151450E-2,1.903701065E-2
3.643211250E-1,2.015171340E-4,-5.739042535E-4,-2.018903010E-2,2.019819080E-2
3.742781250E-1,-2.272101119E-5,-1.457007602E-3,-1.814984903E-2,1.820825107E-2
3.842351250E-1,-2.053088509E-3,2.506943420E-4,-1.838855259E-2,1.850450990E-2
3.941911250E-1,2.283869311E-3,-1.019101590E-3,-2.044025064E-2,2.059268009E-2
4.041481250E-1,-5.388524150E-4,-7.482888177E-4,-1.973426342E-2,1.975579537E-2
4.141051250E-1,2.481705043E-3,-1.023393124E-3,-2.271966822E-2,2.287770788E-2
4.240621250E-1,1.103980700E-3,2.553569153E-3,-1.937777549E-2,1.957645708E-2
4.340191250E-1,-2.159723081E-3,3.394167870E-4,-1.730024256E-2,1.743783244E-2
4.439761250E-1,1.522967825E-3,-2.150300890E-3,-1.845998690E-2,1.864710007E-2
4.539331250E-1,-2.288015559E-3,-2.753773704E-3,-1.951939240E-2,1.984502367E-2
4.638901250E-1,-1.728468924E-3,-2.757078037E-4,-1.842251420E-2,1.850547619E-2
4.738461250E-1,-1.159884152E-3,-2.972424030E-3,-2.167610079E-2,2.190967780E-2
4.838031250E-1,-6.135186413E-4,-6.488403305E-4,-2.032101527E-2,2.034062586E-2
4.937601250E-1,-3.486802801E-3,-1.460351050E-4,-2.001102269E-2,2.031305366E-2
5.037171250E-1,9.235104080E-4,-3.427267075E-7,-1.802312210E-2,1.804676708E-2
5.136741250E-1,-6.967567606E-4,1.217254438E-3,-1.611576602E-2,1.617668361E-2
5.236311250E-1,9.614344453E-4,9.824819863E-4,-1.643096283E-2,1.648836458E-2
5.335881250E-1,5.483782152E-4,9.625079110E-4,-1.952928491E-2,1.956067763E-2
5.435451250E-1,-3.265617415E-4,6.286613643E-5,-2.080067992E-2,2.080333819E-2
5.535021250E-1,6.255183835E-4,6.892420352E-4,-1.946031302E-2,1.948255914E-2
5.634581250E-1,9.793068748E-4,-1.631583087E-3,-1.826199703E-2,1.836087255E-2
5.734151250E-1,2.021135530E-3,1.193764620E-3,-1.554211043E-2,1.571837331E-2
5.833721250E-1,-2.671700204E-4,2.444319427E-3,-1.684073731E-2,1.701929818E-2
5.933291250E-1,-7.643821882E-4,-4.380196333E-4,-1.745166630E-2,1.747388903E-2
6.032861250E-1,-4.311196972E-5,8.281627670E-4,-1.674786769E-2,1.676838646E-2
6.132431250E-1,9.640955832E-4,-1.485059038E-3,-1.868292131E-2,1.876663073E-2
6.232001250E-1,8.893095655E-4,-1.063200645E-3,-1.879079081E-2,1.884184403E-2
6.331571250E-1,1.957503380E-3,-1.041096635E-3,-1.920757443E-2,1.933511358E-2
6.431131250E-1,7.796997670E-5,-8.773859590E-4,-1.739732549E-2,1.741961020E-2
6.530701250E-1,1.010608859E-3,1.137295738E-3,-1.704525575E-2,1.711302181E-2
6.630271250E-1,-4.305467010E-4,-5.370015278E-4,-1.622838154E-2,1.624297105E-2
6.729841250E-1,-1.565053128E-3,4.973700270E-4,-1.607498340E-2,1.615864659E-2
6.829411250E-1,5.712539423E-4,2.735326998E-3,-1.743308641E-2,1.765561799E-2
6.928981250E-1,1.855696552E-3,5.805119872E-5,-1.701816544E-2,1.711913942E-2
7.028551250E-1,7.135779597E-4,1.596026123E-3,-1.859367080E-2,1.867568169E-2
7.128121250E-1,-2.398337238E-4,-3.420038149E-3,-1.723439433E-2,1.757209518E-2
7.227691250E-1,1.486324472E-3,7.867813110E-4,-1.909008995E-2,1.916402148E-2
7.327251250E-1,2.865704009E-4,-1.487025991E-3,-1.558377221E-2,1.565718127E-2
7.426821250E-1,-1.547677675E-4,-3.276587464E-3,-1.608806290E-2,1.641906655E-2
7.526391250E-1,1.265762374E-3,2.265184186E-3,-1.743801869E-2,1.763002297E-2
7.625961250E-1,-8.008666337E-4,-2.373573370E-3,-1.769807376E-2,1.787448049E-2
7.725531250E-1,3.967568045E-4,1.619303599E-3,-1.928212307E-2,1.935406496E-2
7.825101250E-1,-6.380153354E-4,2.595398575E-3,-1.676491648E-2,1.697661868E-2
7.924671250E-1,1.128992066E-3,3.996221349E-4,-1.615638286E-2,1.620071073E-2
8.024241250E-1,5.301171914E-4,2.232359722E-3,-1.763821766E-2,1.778682592E-2
8.123811250E-1,5.197308492E-4,-1.147724688E-3,-1.904623210E-2,1.908785869E-2
8.223371250E-1,-5.981666036E-4,1.593740657E-3,-1.558774803E-2,1.568042414E-2
8.322941250E-1,-1.464492874E-3,1.148725860E-3,-1.311021019E-2,1.324167367E-2
8.422511250E-1,-2.163425088E-4,1.033524051E-3,-1.639591902E-2,1.642988547E-2
8.522081250E-1,2.268387005E-3,1.263088547E-3,-1.860847324E-2,1.878872664E-2
8.621651250E-1,1.631092979E-3,-3.759823740E-4,-1.744878292E-2,1.752888623E-2
8.721221250E-1,-7.875900483E-4,-1.795713790E-3,-1.665888913E-2,1.677389261E-2
8.820791250E-1,6.507283542E-4,-9.147068486E-4,-1.539273188E-2,1.543361042E-2
8.920361250E-1,-4.856425803E-4,-4.944605753E-4,-1.550005749E-2,1.551554453E-2
9.019921250E-1,-7.489782292E-4,-8.155591786E-6,-1.467742026E-2,1.469652001E-2
9.119491250E-1,-4.994401243E-4,-2.164151520E-4,-1.977817155E-2,1.978566011E-2
9.219061250E-1,-1.454801764E-3,-3.962041810E-4,-1.652254537E-2,1.659120042E-2
9.318631250E-1,4.158025840E-4,-5.637165159E-4,-1.809620671E-2,1.810975884E-2
9.418201250E-1,-3.810131457E-4,1.834467053E-3,-1.661996171E-2,1.672523744E-2
9.517771250E-1,1.457602484E-4,2.698600292E-4,-1.533658616E-2,1.533965272E-2
9.617341250E-1,8.974791272E-4,2.152379602E-5,-1.637293771E-2,1.639753095E-2
9.716911250E-1,2.282589208E-3,-7.838159800E-4,-1.430552546E-2,1.450767520E-2
9.816480833E-1,-2.616902115E-3,5.680602044E-5,-1.820747182E-2,1.839465775E-2
9.916040833E-1,-3.010174260E-4,1.085851341E-3,-1.734434068E-2,1.738090442E-2
1.001561083E0,6.100464379E-4,-2.146046609E-5,-1.751764864E-2,1.752828089E-2
1.011518083E0,-3.761221888E-4,1.292740926E-4,-1.397884078E-2,1.398449746E-2
1.021475083E0,1.217468060E-3,1.245848835E-3,-1.238768920E-2,1.250956480E-2
1.031432083E0,1.484849490E-3,3.688698635E-4,-1.502528414E-2,1.510298005E-2
1.041389083E0,-2.984064631E-4,2.836046740E-3,-1.532984897E-2,1.559283416E-2
1.051346083E0,4.932308104E-3,-1.165352762E-3,-1.758501306E-2,1.830077579E-2
1.061303083E0,2.352342475E-3,-1.004099846E-3,-1.577208936E-2,1.597812675E-2
1.071259083E0,-4.746030318E-4,1.176232472E-4,-1.394995395E-2,1.395852064E-2
1.081216083E0,2.279657172E-3,-5.030389875E-4,-1.420594938E-2,1.439648856E-2
1.091173083E0,3.563221544E-4,5.622254685E-4,-1.690559648E-2,1.691869544E-2
1.101130083E0,-1.212404575E-3,7.852846757E-4,-1.663447544E-2,1.669707669E-2
1.111087083E0,-3.170094220E-3,7.432065904E-4,-1.462645270E-2,1.498449105E-2
1.121044083E0,2.145135775E-3,-1.071604900E-3,-1.798940822E-2,1.814851930E-2
1.131001083E0,3.181638196E-3,-1.223404892E-3,-1.858728752E-2,1.889726960E-2
1.140958083E0,-2.610250376E-4,2.835141495E-4,-1.640894450E-2,1.641346929E-2
1.150915083E0,2.140880097E-3,-3.226213157E-4,-1.603317261E-2,1.617869203E-2
1.160871083E0,-2.830550075E-4,-1.999840140E-3,-1.477633137E-2,1.491373359E-2
1.170828083E0,8.384021930E-4,-1.025921665E-3,-1.559791621E-2,1.565408648E-2
1.180785083E0,2.224581316E-3,2.642164007E-3,-1.356878504E-2,1.400148993E-2
1.190742083E0,7.374720881E-4,-2.721441910E-3,-1.524071768E-2,1.549934149E-2
1.200699083E0,-3.897048300E-4,1.778478734E-3,-1.582332514E-2,1.592772661E-2
1.210656083E0,-1.705266768E-4,-3.781495616E-4,-2.007825673E-2,2.008254141E-2
1.220613083E0,-2.836144995E-4,-2.179714851E-3,-1.854996197E-2,1.867973991E-2
1.230570083E0,9.467659984E-4,8.328529075E-4,-1.617282443E-2,1.622190679E-2
1.240527083E0,1.099591143E-3,1.168779097E-3,-1.231040992E-2,1.241456152E-2
1.250483083E0,-2.277283929E-4,-2.641937695E-3,-1.200494543E-2,1.229432429E-2
1.260440083E0,-1.563339960E-3,-1.042228192E-3,-1.448788773E-2,1.460921498E-2
1.270397083E0,2.237789799E-3,-2.852378413E-3,-1.433102880E-2,1.478249479E-2
1.280354083E0,-5.373279564E-4,-2.305028960E-3,-1.716416888E-2,1.732658573E-2
1.290311083E0,-3.869208740E-3,1.390106976E-3,-1.680171303E-2,1.729741988E-2
1.300268083E0,1.245879102E-3,-6.503760815E-4,-1.640916243E-2,1.646923846E-2
1.310225083E0,-2.769164275E-4,-7.425220683E-4,-1.335025486E-2,1.337375514E-2
1.320182083E0,2.147514839E-3,2.691886388E-3,-1.227395143E-2,1.274786084E-2
1.330138083E0,-1.493292511E-3,-8.498514071E-4,-1.204811595E-2,1.217001512E-2
1.340095083E0,-9.581594495E-4,5.752518773E-4,-1.392445527E-2,1.396923186E-2
1.350052083E0,-3.012255765E-3,1.702301204E-3,-1.568826661E-2,1.606528006E-2
1.360009083E0,-2.296769526E-3,6.541796029E-4,-1.542763785E-2,1.561137760E-2
1.369966083E0,3.761389293E-3,-1.117887907E-3,-1.499540731E-2,1.550032139E-2
1.379923083E0,-1.788449008E-3,-8.059572428E-5,-1.491618343E-2,1.502323446E-2
1.389880083E0,-3.261072561E-4,1.672031358E-3,-1.327833906E-2,1.338717009E-2
1.399837083E0,1.471062424E-4,-1.435086131E-3,-1.390916947E-2,1.398378017E-2
1.409794083E0,1.038466115E-3,6.009005010E-4,-1.411236916E-2,1.416327845E-2
1.419750083E0,-1.907540951E-3,-9.836992249E-4,-1.918594912E-2,1.930562147E-2
1.429707083E0,-1.506735105E-3,1.076522283E-3,-1.690228656E-2,1.700342442E-2
1.439664083E0,-2.117768396E-3,-9.584445506E-4,-1.417185459E-2,1.436123329E-2
1.449621083E0,4.433934810E-4,1.208836213E-3,-1.541422028E-2,1.546790450E-2
1.459578083E0,-1.573866699E-3,-7.482124493E-4,-1.380273886E-2,1.391231391E-2
1.469535083E0,-7.637331728E-4,-1.120256260E-3,-1.497426443E-2,1.503551986E-2
1.479492083E0,2.344551263E-3,-1.153388061E-3,-1.613876969E-2,1.634891775E-2
1.489449083E0,6.262797397E-4,6.013689563E-4,-1.618271321E-2,1.620598895E-2
1.499405083E0,-5.732360296E-4,-1.832504757E-3,-1.654467918E-2,1.665572221E-2
1.509362083E0,3.002808662E-4,-7.561780512E-5,-1.567435823E-2,1.567741665E-2
1.519319083E0,3.691236489E-4,-2.375232987E-3,-1.461458765E-2,1.481094717E-2
1.529276083E0,4.183921264E-4,-1.769896597E-3,-1.304731891E-2,1.317346259E-2
1.539233083E0,-1.872887835E-3,6.839009002E-4,-1.357600931E-2,1.372164196E-2
1.549190083E0,-2.941659186E-4,6.884289905E-4,-1.453740988E-2,1.455667387E-2
1.559147083E0,6.142561324E-4,7.486585528E-4,-1.401967835E-2,1.405308440E-2
1.569104083E0,1.462206594E-3,1.859320328E-4,-1.348145399E-2,1.356179268E-2
1.579061083E0,-1.645195298E-4,1.748054288E-3,-1.221545972E-2,1.234099739E-2
1.589017083E0,8.605311159E-4,9.714765474E-4,-1.468314417E-2,1.474038680E-2
1.598974083E0,-2.442941302E-3,-1.920615323E-3,-1.280160248E-2,1.317337282E-2
1.608931083E0,6.476570852E-4,-1.128325239E-3,-1.385940984E-2,1.392033831E-2
1.618888083E0,8.614623803E-4,-1.012800261E-3,-1.376101375E-2,1.382509968E-2
1.628845083E0,-1.929530408E-3,6.444845349E-4,-1.137908176E-2,1.155949608E-2
1.638802083E0,-2.380623482E-5,1.445240341E-3,-1.301801112E-2,1.309801129E-2
1.648759083E0,3.437100677E-4,3.043422475E-4,-1.380231138E-2,1.380994426E-2
1.658716083E0,-2.333952580E-5,-1.458107494E-3,-1.375129819E-2,1.382840642E-2
1.668673083E0,8.445847197E-4,-1.092988066E-3,-1.143780909E-2,1.152091243E-2
1.678629083E0,-4.179633688E-4,3.731139004E-4,-1.347204577E-2,1.348369106E-2
1.688586083E0,-5.780193023E-4,-9.978814051E-4,-1.300918963E-2,1.306020246E-2
1.698543083E0,5.397375207E-4,6.253244355E-4,-1.610186324E-2,1.612303777E-2
1.708500083E0,-4.067498958E-4,4.911012948E-4,-1.430449449E-2,1.431870065E-2
1.718457083E0,1.002142671E-3,-1.331266947E-3,-1.192898303E-2,1.204479962E-2
1.728414083E0,2.025861759E-3,-2.852996811E-3,-1.017742231E-2,1.076213880E-2
1.738371083E0,-9.203989757E-4,-2.039559186E-4,-1.248167269E-2,1.251722355E-2
1.748328083E0,2.005882328E-3,-8.479086682E-4,-1.157246903E-2,1.177559138E-2
1.758284083E0,6.020669825E-4,1.816477627E-3,-1.561447699E-2,1.573130532E-2
1.768241083E0,-1.635254594E-3,2.651644871E-3,-1.634178683E-2,1.663608352E-2
1.778198083E0,1.476136385E-3,2.840291709E-4,-1.625007391E-2,1.631945322E-2
1.788155083E0,6.782533601E-4,4.933541641E-4,-1.139566209E-2,1.142648417E-2
1.798112083E0,-1.669960329E-3,-4.160841927E-4,-1.180668361E-2,1.193145723E-2
1.808069083E0,3.630968276E-4,-8.826702833E-4,-1.036484726E-2,1.040869852E-2
1.818026083E0,-1.324092736E-3,-1.097756438E-3,-9.973296896E-3,1.012052082E-2
1.827983083E0,-4.399232566E-4,7.094647735E-4,-1.481412537E-2,1.483762728E-2
1.837940083E0,2.737571485E-4,-4.784818739E-4,-1.884380542E-2,1.885186703E-2
1.847896083E0,2.961276332E-4,-6.806161255E-4,-1.547224261E-2,1.549003619E-2
1.857853083E0,-6.364694564E-4,-6.791632622E-4,-1.487477124E-2,1.490386445E-2
1.867810083E0,-1.689217170E-3,1.815686002E-3,-1.115220599E-2,1.142461679E-2
1.877767083E0,3.724460257E-4,1.572845504E-3,-9.684289806E-3,9.818249745E-3
1.887724083E0,-8.640596643E-4,-4.841797054E-4,-9.714649990E-3,9.765011701E-3
1.897681083E0,2.420375822E-3,-1.054141670E-3,-1.458851807E-2,1.482546098E-2
1.907638083E0,7.772053941E-4,1.106214710E-3,-1.604340412E-2,1.610026630E-2
1.917595083E0,1.717568724E-3,-1.328232698E-3,-1.524619758E-2,1.540002549E-2
1.927551083E0,2.081356477E-3,2.608755603E-4,-1.300488226E-2,1.317296715E-2
1.937508083E0,-2.692447044E-3,1.381188631E-3,-1.180150453E-2,1.218328619E-2
1.947465083E0,2.168887295E-3,-1.113660634E-3,-1.091839932E-2,1.118730333E-2
1.957422083E0,1.226040768E-3,3.581028432E-4,-1.175024826E-2,1.181946478E-2
1.967379083E0,-1.422914211E-4,1.897942275E-3,-1.227382477E-2,1.242051554E-2
1.977336458E0,2.308221068E-3,-2.197473310E-3,-1.557563804E-2,1.589834186E-2
1.987293458E0,1.914605964E-3,-5.250079557E-4,-1.654982194E-2,1.666847191E-2
1.997250458E0,-9.239944629E-4,-2.340227365E-4,-1.301858574E-2,1.305343277E-2
2.007207458E0,-8.302510250E-4,1.531653106E-3,-1.292537525E-2,1.304226221E-2
2.017163458E0,-3.438104177E-4,-8.201655000E-4,-1.109964680E-2,1.113521603E-2
2.027120458E0,1.723068766E-3,-2.270797268E-4,-1.241205167E-2,1.253313839E-2
2.037077458E0,-8.532428183E-5,-6.148647517E-4,-1.364792138E-2,1.366203122E-2
2.047034458E0,-1.808655914E-3,-2.279873006E-3,-1.430891827E-2,1.460185602E-2
2.056991458E0,-2.916713245E-3,6.114197895E-4,-1.783706807E-2,1.808430390E-2
2.066948458E0,-3.235930344E-4,-1.120433211E-3,-1.523941942E-2,1.528397812E-2
2.076905458E0,2.578037558E-3,-9.012399241E-4,-1.233127899E-2,1.263008126E-2
2.086862458E0,-6.582357455E-4,-8.533028886E-4,-1.267296262E-2,1.271870204E-2
2.096818458E0,4.940571962E-4,-1.829628833E-3,-1.223443728E-2,1.238035095E-2
2.106775458E0,-8.316643070E-4,-4.394585267E-4,-1.281900052E-2,1.285346504E-2
2.116732458E0,-1.953020925E-3,3.287978470E-4,-1.347420365E-2,1.361897803E-2
2.126689458E0,-1.493625809E-3,-1.497715712E-4,-1.497010142E-2,1.504517484E-2
2.136646458E0,-1.232537441E-3,-7.505966350E-4,-1.191833429E-2,1.200538363E-2
2.146603458E0,-7.795337588E-4,-1.120244153E-3,-9.949726984E-3,1.004289236E-2
2.156560458E0,6.390478229E-4,-1.095563173E-3,-1.073377021E-2,1.080844409E-2
2.166517458E0,-2.656880300E-3,1.033926383E-4,-1.273939759E-2,1.301391385E-2
2.176474458E0,-1.904946635E-3,-2.135492861E-3,-1.591441780E-2,1.616965817E-2
2.186430458E0,1.645845943E-3,-1.190603711E-3,-1.707928441E-2,1.719965994E-2
2.196387458E0,-2.053898526E-3,1.784565859E-3,-1.543767750E-2,1.567561996E-2
2.206344458E0,1.246556989E-3,1.307427883E-4,-1.208981872E-2,1.215461701E-2
2.216301458E0,-5.861453246E-4,2.375654876E-4,-1.078388654E-2,1.080241698E-2
2.226258458E0,1.534144394E-4,2.460773103E-3,-1.073222049E-2,1.101178899E-2
2.236215458E0,3.156106686E-4,-1.066757366E-3,-1.027097739E-2,1.033104825E-2
2.246172458E0,4.881834611E-4,1.664314419E-3,-1.593046263E-2,1.602460312E-2
2.256129458E0,-6.929647643E-4,-6.505185738E-4,-1.488991547E-2,1.492021975E-2
2.266086458E0,3.270884044E-3,-2.851621248E-3,-1.532454323E-2,1.592708546E-2
2.276042458E0,-7.614447968E-4,1.653352752E-3,-1.420921180E-2,1.432532979E-2
2.285999458E0,-1.955339685E-3,-1.008477062E-3,-1.330480259E-2,1.348547927E-2
2.295956458E0,1.550036133E-3,6.532343104E-4,-1.602705941E-2,1.611508487E-2
2.305913458E0,-1.056665904E-3,4.496891052E-5,-1.020911895E-2,1.026375539E-2
2.315870458E0,1.054448076E-3,3.820341080E-4,-1.282896847E-2,1.287789745E-2
2.325827458E0,1.128483796E-3,-1.619864255E-3,-1.651904546E-2,1.663659517E-2
2.335784458E0,1.035528956E-3,8.767591789E-4,-1.236100309E-2,1.243524926E-2
2.345741458E0,8.823971148E-4,-1.304635778E-3,-1.655627973E-2,1.663102816E-2
2.355697458E0,9.120482136E-4,4.816437140E-4,-1.554724015E-2,1.558141486E-2
2.365654458E0,3.605569247E-3,-1.047543250E-3,-1.454083249E-2,1.501776568E-2
2.375611458E0,-9.785846341E-4,-1.833324321E-3,-1.218575053E-2,1.236168362E-2
2.385568458E0,-8.845750708E-4,-6.679249927E-4,-1.098120213E-2,1.103700127E-2
2.395525458E0,8.285755175E-4,-3.632195294E-4,-1.155591197E-2,1.159127117E-2
2.405482458E0,-1.740575884E-3,1.599796116E-3,-1.349842176E-2,1.370388054E-2
2.415439458E0,-1.043318538E-3,2.658866346E-3,-1.499195490E-2,1.526161183E-2
2.425396458E0,-4.063837696E-5,1.566704363E-3,-1.465799566E-2,1.474154167E-2
2.435353458E0,-2.791080624E-5,1.812242903E-3,-1.701971889E-2,1.711595263E-2
2.445309458E0,1.443219371E-3,-9.521190077E-4,-1.609853096E-2,1.619111213E-2
2.455266458E0,-9.814272635E-4,-6.246007979E-5,-1.180677116E-2,1.184765571E-2
2.465223458E0,7.605463034E-4,1.026559621E-4,-1.286910474E-2,1.289196749E-2
2.475180458E0,-2.597884741E-3,-6.389282644E-4,-1.106328145E-2,1.138215405E-2
2.485137458E0,-2.948090434E-3,8.015763015E-4,-1.184705086E-2,1.223463836E-2
2.495094458E0,-1.323244651E-3,-2.342443913E-4,-1.174727455E-2,1.182388710E-2
2.505051458E0,2.499456750E-3,-3.839144483E-4,-1.635454409E-2,1.654889080E-2
2.515008458E0,2.322679386E-3,-1.498899423E-3,-1.301122271E-2,1.330163356E-2
2.524964458E0,-1.941041555E-3,-2.621156164E-3,-1.461843960E-2,1.497787963E-2
2.534921458E0,7.099931827E-4,-2.201414667E-3,-1.386962179E-2,1.406117795E-2
2.544878458E0,1.666067983E-3,1.651647501E-3,-1.198490243E-2,1.221235474E-2
2.554835458E0,-7.649164181E-4,9.737703949E-4,-1.106800325E-2,1.113705625E-2
2.564792458E0,3.735850332E-4,7.657781243E-4,-1.552533545E-2,1.554869842E-2
2.574749458E0,-2.127261832E-3,-2.000294626E-4,-1.567999460E-2,1.582490080E-2
2.584706458E0,3.484126646E-4,-2.513783984E-3,-1.594737545E-2,1.614804276E-2
2.594663458E0,-3.835291136E-4,9.289430454E-4,-1.156685129E-2,1.161042973E-2
2.604620458E0,-3.640882205E-4,-1.198655926E-3,-1.346728392E-2,1.352542319E-2
2.614576458E0,-1.715206658E-3,-2.060172148E-3,-1.351686846E-2,1.378012976E-2
2.624533458E0,2.145199105E-4,2.506524324E-4,-1.327265706E-2,1.327675679E-2
2.634490458E0,8.747450192E-4,-5.861641839E-4,-1.422375068E-2,1.426267334E-2
2.644447458E0,4.486392718E-4,-5.329027772E-6,-1.342506893E-2,1.343256421E-2
2.654404458E0,1.187925227E-5,1.373197883E-3,-1.354731992E-2,1.361674302E-2
2.664361458E0,7.407864323E-4,-2.028456889E-3,-1.172625087E-2,1.192343748E-2
2.674318458E0,-4.069297574E-5,1.546172425E-4,-1.099563763E-2,1.099679995E-2
2.684275458E0,5.087171448E-4,-6.456021219E-5,-1.330619492E-2,1.331607241E-2
2.694231458E0,-3.573150607E-4,3.062188625E-4,-1.087037381E-2,1.088055471E-2
2.704188458E0,1.400104957E-3,-7.928675041E-4,-1.152231451E-2,1.163411640E-2
2.714145458E0,3.482130123E-4,-8.212029934E-5,-1.218095422E-2,1.218620703E-2
2.724102458E0,2.352241660E-3,1.796740107E-3,-1.373943686E-2,1.405465906E-2
2.734059458E0,-3.597176401E-4,-1.590470783E-3,-1.255405135E-2,1.265951024E-2
2.744016458E0,1.651235274E-3,-4.210770130E-4,-1.372584142E-2,1.383121854E-2
2.753973458E0,3.241201397E-3,-9.845998138E-4,-1.186591759E-2,1.233996854E-2
2.763930458E0,-1.439304207E-3,1.896407455E-3,-1.178895310E-2,1.202694362E-2
2.773887458E0,8.263625205E-4,8.829804137E-4,-1.145157591E-2,1.151525597E-2
2.783843458E0,-1.310438383E-4,7.482245564E-4,-1.347903907E-2,1.350042617E-2
2.793800458E0,1.162855187E-4,6.506601349E-4,-1.569505408E-2,1.570896571E-2
2.803757458E0,1.843345468E-3,-6.428370252E-4,-1.239672862E-2,1.254950367E-2
2.813714458E0,3.424240276E-6,-9.919293225E-4,-1.477722637E-2,1.481048125E-2
2.823671458E0,8.420536178E-4,-1.282480545E-3,-1.132763363E-2,1.143105832E-2
2.833628458E0,9.342455305E-4,2.750009298E-4,-1.132906228E-2,1.137084396E-2
2.843585458E0,1.912957290E-3,4.936465994E-4,-1.223693416E-2,1.239538826E-2
2.853542458E0,2.202303614E-3,1.240139827E-4,-1.244603377E-2,1.263998723E-2
2.863498458E0,3.548687091E-4,-8.051749319E-5,-1.331102755E-2,1.331600050E-2
2.873455458E0,-1.115357270E-3,-2.980008721E-4,-1.361884922E-2,1.366769477E-2
2.883412458E0,2.241291106E-3,1.997444779E-4,-1.110748760E-2,1.133311804E-2
2.893369458E0,-1.764137647E-3,6.127990782E-4,-9.572687559E-3,9.753155974E-3
2.903326458E0,-6.362890126E-4,1.751299948E-3,-1.225023065E-2,1.239112853E-2
2.913283458E0,2.743977355E-3,5.030399188E-4,-1.474006847E-2,1.500173587E-2
2.923240458E0,-4.621653352E-5,-2.039746381E-3,-1.477362402E-2,1.491384149E-2
2.933197458E0,1.976849511E-3,-1.174749807E-3,-1.661540940E-2,1.677378314E-2
2.943154458E0,1.629839535E-3,1.198127866E-4,-1.346728764E-2,1.356608155E-2
2.953110458E0,-3.131624544E-4,7.202038541E-4,-8.964203298E-3,8.998539053E-3
2.963067458E0,1.410168945E-3,5.966331810E-4,-8.492024615E-3,8.628964577E-3
2.973024458E0,-7.298912387E-4,-2.750130370E-4,-9.864813648E-3,9.895601129E-3
2.982980875E0,6.533545675E-4,-1.293672249E-3,-1.050317381E-2,1.060269400E-2
2.992937875E0,-2.713595750E-4,1.641504467E-3,-1.516903937E-2,1.526001076E-2
3.002894875E0,7.249289192E-4,7.187183946E-4,-1.313012280E-2,1.316974573E-2
3.012851875E0,-5.813548341E-4,8.843271062E-4,-1.324943826E-2,1.329163729E-2
3.022808875E0,2.194577828E-4,-2.097880468E-3,-1.073488221E-2,1.094015357E-2
3.032764875E0,9.071175009E-5,-3.197863698E-4,-1.048152056E-2,1.048679003E-2
3.042721875E0,3.232057206E-4,-1.029519364E-3,-1.035821717E-2,1.041427074E-2
3.052678875E0,-1.751966076E-3,9.135678411E-4,-1.201369800E-2,1.217509470E-2
3.062635875E0,2.604166511E-3,4.624277353E-4,-1.485129632E-2,1.508497680E-2
3.072592875E0,9.555850993E-4,-1.008529216E-3,-1.198185794E-2,1.206213886E-2
3.082549875E0,1.027224120E-3,-1.185096800E-3,-9.998336434E-3,1.012059165E-2
3.092506875E0,1.795396674E-3,-1.381496899E-3,-1.118991338E-2,1.141692359E-2
3.102463875E0,-5.244830390E-4,-6.038537249E-4,-1.036193781E-2,1.039276079E-2
3.112420875E0,3.908624407E-3,-6.344597787E-4,-1.226816792E-2,1.289138581E-2
3.122376875E0,-7.867948152E-4,7.394142449E-5,-1.348603237E-2,1.350916661E-2
3.132333875E0,-1.625988050E-3,2.972660586E-4,-1.415470149E-2,1.425088694E-2
3.142290875E0,1.953479368E-4,7.670475170E-4,-1.430676784E-2,1.432864714E-2
3.152247875E0,9.336874355E-4,1.342307776E-3,-1.285543479E-2,1.295900328E-2
3.162204875E0,2.192031126E-3,-8.979812264E-6,-8.136845194E-3,8.426940774E-3
3.172161875E0,1.649977756E-3,2.965644002E-3,-7.514914963E-3,8.245690865E-3
3.182118875E0,-6.307533477E-4,-4.013907164E-4,-8.992170915E-3,9.023197995E-3
3.192075875E0,2.042710083E-3,2.801390365E-4,-1.380548812E-2,1.395860468E-2
3.202032875E0,-7.775773993E-4,-1.232536510E-3,-1.283689775E-2,1.291935434E-2
3.211988875E0,1.428059535E-3,-3.692293540E-4,-1.544173434E-2,1.551202256E-2
3.221945875E0,8.156523108E-5,-9.836209938E-4,-1.334955543E-2,1.338599243E-2
3.231902875E0,4.416445270E-3,1.992404461E-3,-1.177980565E-2,1.273728721E-2
3.241859875E0,1.878782641E-4,-6.848713383E-4,-8.040195331E-3,8.071498495E-3
3.251816875E0,1.275048591E-3,-2.430165187E-4,-6.570888218E-3,6.697863682E-3
3.261773875E0,2.968818881E-3,8.307704702E-4,-8.979450911E-3,9.493924572E-3
3.271730875E0,2.658803714E-3,5.469014868E-4,-1.307426579E-2,1.335308071E-2
3.281687875E0,-1.144989161E-3,-3.420002759E-5,-1.290036179E-2,1.295111980E-2
3.291643875E0,2.750009764E-3,-6.081331521E-4,-1.332069561E-2,1.361518678E-2
3.301600875E0,6.341270637E-5,2.459418029E-4,-1.075713709E-2,1.076013508E-2
3.311557875E0,1.039305702E-3,-1.203352585E-4,-1.026654989E-2,1.031972303E-2
3.321514875E0,-3.934750566E-4,2.877584659E-3,-9.636979550E-3,1.006512250E-2
3.331471875E0,-1.420038403E-3,1.321294345E-3,-1.123272721E-2,1.139896874E-2
3.341428875E0,-2.778782975E-3,-1.655055210E-3,-1.017864700E-2,1.068015437E-2
3.351385875E0,-2.445532940E-3,-5.953740329E-4,-1.461826079E-2,1.483336273E-2
3.361342875E0,2.322753426E-4,7.893890142E-5,-1.360519417E-2,1.360740576E-2
3.371299875E0,-2.230100567E-3,2.635819837E-4,-1.171488967E-2,1.192817941E-2
3.381255875E0,-8.846714627E-4,1.075846143E-3,-9.122035466E-3,9.227763519E-3
3.391212875E0,1.263662823E-3,-1.114103943E-4,-7.043533027E-3,7.156857796E-3
3.401169875E0,-8.463596459E-4,2.854010090E-4,-8.431306109E-3,8.478484599E-3
3.411126875E0,-1.875329879E-3,1.507150009E-3,-1.145012863E-2,1.170016277E-2
3.421083875E0,-1.012465567E-3,-1.842307858E-3,-1.278703474E-2,1.295868211E-2
3.431040875E0,-6.630651187E-4,1.158312894E-3,-1.489181444E-2,1.495150432E-2
3.440997875E0,-7.397641893E-4,1.666976139E-3,-1.311122626E-2,1.323745877E-2
3.450954875E0,-6.381517742E-4,1.011401415E-3,-1.190030389E-2,1.196024260E-2
3.460911875E0,-1.920996467E-3,1.609814353E-3,-8.495984599E-3,8.857961616E-3
3.470867875E0,-1.428982476E-3,-9.994376451E-4,-8.879859000E-3,9.049461995E-3
3.480824875E0,-4.657171667E-4,1.751873642E-3,-1.027322374E-2,1.043192599E-2
3.490781875E0,-7.307210471E-4,-2.180034295E-3,-1.062664483E-2,1.087253802E-2
3.500738875E0,2.210207749E-3,1.035199501E-3,-1.271216478E-2,1.294433427E-2
3.510695875E0,-1.826799824E-3,3.849300556E-3,-1.267722249E-2,1.337408997E-2
3.520652875E0,-6.174583687E-4,-1.864535734E-4,-1.237388887E-2,1.239068785E-2
3.530609875E0,3.199853236E-4,2.240734175E-4,-1.052456908E-2,1.053181626E-2
3.540566875E0,1.726667047E-3,-1.092859544E-3,-9.643062949E-3,9.857199608E-3
3.550523875E0,1.364502590E-3,2.058831975E-3,-6.319594570E-3,6.785125787E-3
3.560479875E0,-7.706647739E-5,6.433622912E-4,-1.064962707E-2,1.066932102E-2
3.570436875E0,1.131730620E-3,3.053154796E-5,-1.207515132E-2,1.212810891E-2
3.580393875E0,-2.537040040E-3,-1.892536879E-3,-1.193213928E-2,1.234480522E-2
3.590350875E0,9.731005994E-4,9.269164875E-4,-1.303542219E-2,1.310451566E-2
3.600307875E0,-7.496983744E-4,1.460779458E-4,-8.695533499E-3,8.729014220E-3
3.610264875E0,2.382157836E-4,9.293118492E-4,-7.166087162E-3,7.230018844E-3
3.620221875E0,-1.379388385E-3,4.683192819E-4,-7.937604561E-3,8.070167374E-3
3.630178875E0,8.724543732E-4,-3.172829747E-5,-1.090166345E-2,1.093656479E-2
3.640134875E0,-1.246331958E-4,-2.951147035E-4,-1.111844555E-2,1.112305972E-2
3.650091875E0,-1.132853562E-3,-5.285898224E-4,-1.107116509E-2,1.114151969E-2
3.660048875E0,2.191570355E-3,-6.484324113E-4,-1.017367933E-2,1.042723340E-2
3.670005875E0,1.977594104E-3,-5.253776908E-5,-8.748679422E-3,8.969561320E-3
3.679962875E0,3.762353444E-4,9.956816211E-4,-8.343347348E-3,8.410967834E-3
3.689919875E0,-6.729403976E-4,-5.446411669E-4,-1.003389433E-2,1.007117263E-2
3.699876875E0,-1.071881969E-3,9.877420962E-4,-1.305658370E-2,1.313769171E-2
3.709833875E0,-2.340020146E-3,1.940870658E-3,-1.394134294E-2,1.426897741E-2
3.719790875E0,-4.965799162E-4,7.131537423E-4,-1.204170939E-2,1.207302550E-2
3.729746875E0,9.283914114E-4,2.020929009E-3,-8.276468143E-3,8.570063570E-3
3.739703875E0,-1.827713917E-3,2.222293988E-4,-8.956639096E-3,9.143921914E-3
3.749660875E0,3.510405077E-4,-1.093568280E-4,-8.023668081E-3,8.032088011E-3
3.759617875E0,1.171560492E-3,1.437673345E-3,-1.354706287E-2,1.367341841E-2
3.769574875E0,-4.540849477E-4,1.155911013E-4,-1.484916545E-2,1.485655644E-2
3.779531875E0,-2.471962012E-3,1.332921907E-3,-1.474583521E-2,1.501089382E-2
3.789488875E0,6.038326537E-4,-1.485990360E-4,-1.261680573E-2,1.263212106E-2
3.799445875E0,4.128839355E-4,-3.872178495E-4,-1.059040613E-2,1.060552275E-2
3.809402875E0,1.861136174E-3,-5.798581988E-4,-1.038755942E-2,1.056889087E-2
3.819358875E0,6.723011029E-4,7.181670517E-4,-1.000406500E-2,1.005231661E-2
3.829315875E0,-1.068989746E-3,2.147539519E-3,-1.071140449E-2,1.097674138E-2
3.839272875E0,-1.571528148E-3,-2.584364265E-3,-1.174311433E-2,1.212639161E-2
3.849229875E0,-1.277536619E-3,-1.034249552E-3,-9.027771652E-3,9.176188367E-3
3.859186875E0,-1.694587758E-3,3.018584102E-4,-8.641613647E-3,8.811369508E-3
3.869143875E0,-1.993896905E-3,-8.556768298E-4,-1.021946780E-2,1.044726423E-2
3.879100875E0,4.011797719E-3,-2.960107289E-3,-8.902801201E-3,1.020375545E-2
3.889057875E0,-1.341672149E-3,9.449161589E-4,-7.467483170E-3,7.645669075E-3
3.899013875E0,-8.700264152E-4,-7.720477879E-5,-1.014928706E-2,1.018680197E-2
3.908970875E0,8.855053457E-4,-3.186045215E-4,-8.625676855E-3,8.676861747E-3
3.918927875E0,5.563386949E-4,-9.729526937E-5,-1.130747981E-2,1.132157581E-2
3.928884875E0,4.520763177E-4,-1.964296214E-3,-1.120257005E-2,1.138246056E-2
3.938841875E0,1.214006683E-3,1.619786024E-3,-9.679773822E-3,9.889162768E-3
3.948798875E0,-3.415116109E-3,-2.168798819E-4,-6.199579686E-3,7.081302366E-3
3.958755875E0,5.165085895E-4,1.785817556E-3,-7.787089795E-3,8.005916121E-3
3.968712875E0,-7.076539332E-4,-1.073539257E-3,-8.853212930E-3,8.946096345E-3
3.978669875E0,1.352364197E-4,-7.523624226E-4,-1.098666992E-2,1.101323086E-2
3.988626458E0,-1.647184836E-4,-1.407310367E-3,-1.204213873E-2,1.212521174E-2
3.998583458E0,-1.744239358E-3,2.300012857E-4,-1.105383970E-2,1.119297296E-2
4.008540458E0,-1.426356845E-3,-3.405278549E-4,-7.257383317E-3,7.404057379E-3
4.018497458E0,-2.816526918E-3,-1.749873161E-3,-6.857642904E-3,7.617226934E-3
4.028454458E0,-1.096948981E-4,8.396413177E-4,-6.832300685E-3,6.884574291E-3
4.038411458E0,-8.631033124E-4,-1.041616313E-3,-9.654453024E-3,9.748762746E-3
4.048368458E0,1.482819091E-3,-4.854118451E-4,-9.335627779E-3,9.465110837E-3
4.058325458E0,-1.230669441E-4,9.566899389E-4,-1.115856133E-2,1.120017376E-2
4.068282458E0,2.735452028E-3,5.421452224E-4,-9.984343313E-3,1.036647146E-2
4.078238458E0,7.841619663E-5,1.634443179E-4,-6.586416624E-3,6.588910919E-3
4.088195458E0,-1.699919114E-3,1.776553690E-4,-5.997287109E-3,6.236083635E-3
4.098152458E0,-2.082615392E-3,-1.888535917E-5,-7.675079629E-3,7.952640495E-3
4.108109458E0,1.417838619E-3,-9.035449475E-4,-9.570470080E-3,9.717024101E-3
4.118066458E0,-1.870099921E-3,5.358932540E-4,-1.379743963E-2,1.393390813E-2
4.128023458E0,8.646892966E-4,7.760711014E-5,-1.068723015E-2,1.072243437E-2
4.137980458E0,8.625587798E-4,-1.071546227E-3,-7.670935243E-3,7.793296252E-3
4.147937458E0,-4.147577565E-4,-2.471492626E-3,-7.963946089E-3,8.348936286E-3
4.157894458E0,-1.824368956E-3,1.634387299E-4,-8.214816451E-3,8.416545825E-3
4.167850458E0,6.088339724E-4,9.001875296E-4,-6.782722659E-3,6.869231621E-3
4.177807458E0,5.273411516E-4,-5.831932649E-4,-1.014176663E-2,1.017219905E-2
4.187764458E0,-1.750001335E-3,3.375010565E-4,-1.120343246E-2,1.134430740E-2
4.197721458E0,2.108652843E-3,-1.623650081E-3,-9.954942390E-3,1.030453950E-2
4.207678458E0,1.585856080E-5,1.804023050E-3,-9.157152846E-3,9.333177321E-3
4.217635458E0,-1.613197150E-3,2.663135529E-4,-8.805615827E-3,8.956126286E-3
4.227592458E0,-8.192487294E-4,-1.863291487E-3,-8.098685183E-3,8.350552397E-3
4.237549458E0,2.121413825E-3,6.605861709E-4,-7.572178729E-3,7.891429618E-3
4.247506458E0,1.525657019E-3,3.790222108E-4,-8.815439418E-3,8.954510557E-3
4.257462458E0,-8.715328295E-5,-4.899669439E-4,-1.051853225E-2,1.053029838E-2
4.267419458E0,-1.525522675E-4,-7.905652747E-4,-1.109017804E-2,1.111936665E-2
4.277376458E0,-6.351169432E-4,-9.389026091E-4,-1.008350402E-2,1.014701754E-2
4.287333458E0,3.262927290E-3,-1.903215423E-3,-1.100009307E-2,1.163060493E-2
4.297290458E0,9.880551370E-4,-1.092015766E-3,-7.096430287E-3,7.247625418E-3
4.307247458E0,1.119476510E-3,-4.363525659E-5,-8.056312799E-3,8.133837201E-3
4.317204458E0,-3.218261991E-4,-7.027676329E-4,-8.723966777E-3,8.758141971E-3
4.327161458E0,2.057507169E-3,2.673612908E-4,-8.617531508E-3,8.863784017E-3
4.337118458E0,1.207692549E-3,7.459307089E-4,-9.564017877E-3,9.668783371E-3
4.347074458E0,1.103172079E-3,4.315851256E-4,-1.008050609E-2,1.014986982E-2
4.357031458E0,2.092270181E-3,1.224940643E-3,-8.935878985E-3,9.258942019E-3
4.366988458E0,1.650252496E-3,-6.303191185E-6,-6.406561472E-3,6.615693684E-3
4.376945458E0,-5.082394928E-4,8.938452229E-4,-6.490717642E-3,6.571657491E-3
4.386902458E0,2.788948361E-3,2.907728776E-4,-9.477093816E-3,9.883222603E-3
4.396859458E0,1.123940106E-3,-8.586477488E-4,-1.153997891E-2,1.162633349E-2
4.406816458E0,-1.083996613E-3,4.994571209E-4,-9.889953770E-3,9.961711281E-3
4.416773458E0,-6.858541165E-4,9.804246947E-4,-1.006066147E-2,1.013156146E-2
4.426729458E0,-4.076492041E-4,1.949393190E-3,-7.890895009E-3,8.138337406E-3
4.436686458E0,2.109837020E-3,-1.682625152E-3,-5.357696675E-3,5.998962686E-3
4.446643458E0,-2.787810517E-4,1.031504944E-4,-8.803612553E-3,8.808629455E-3
4.456600458E0,9.998024907E-4,-1.360010356E-4,-8.660600521E-3,8.719180161E-3
4.466557458E0,-9.158058092E-4,-8.813207969E-4,-9.672468528E-3,9.755617564E-3
4.476514458E0,-1.938992413E-3,1.340555027E-3,-8.167250082E-3,8.500632521E-3
4.486471458E0,1.494292985E-3,-9.185038507E-4,-8.679999039E-3,8.855447146E-3
4.496428458E0,-1.729996060E-3,-3.856047988E-4,-1.044274494E-2,1.059209608E-2
4.506385458E0,-9.019476129E-4,4.393057898E-4,-9.151203558E-3,9.206032024E-3
4.516341458E0,1.169192721E-3,-8.965358138E-4,-8.973570541E-3,9.093720709E-3
4.526298458E0,-1.182522741E-3,9.970897809E-4,-7.204188034E-3,7.368369785E-3
4.536255458E0,-5.859745434E-4,8.388981223E-4,-6.484068930E-3,6.564317643E-3
4.546212458E0,4.306277260E-4,-1.650712453E-3,-7.703747600E-3,7.890375082E-3
4.556169458E0,-2.290372504E-4,-3.314388916E-3,-7.144218311E-3,7.878926781E-3
4.566126458E0,-1.239004778E-3,1.499056816E-4,-9.522000328E-3,9.603441820E-3
4.576083458E0,-8.488516323E-4,-5.041668192E-4,-1.035956480E-2,1.040650355E-2
4.586040458E0,-1.818461576E-3,-6.710533053E-4,-8.346755058E-3,8.568864279E-3
4.595997458E0,-1.017516479E-5,2.999352291E-4,-6.964307278E-3,6.970770441E-3
4.605953458E0,-1.811774215E-3,2.628378570E-5,-5.311391316E-3,5.611959939E-3
4.615910458E0,-7.763372269E-4,-2.131409012E-3,-5.226702429E-3,5.697720786E-3
4.625867458E0,5.139257992E-4,6.356444210E-4,-8.307739161E-3,8.347855624E-3
4.635824458E0,-8.112632204E-4,-1.000335440E-3,-1.055304985E-2,1.063135364E-2
4.645781458E0,-2.035363577E-4,-5.807392299E-4,-9.832717478E-3,9.851955040E-3
4.655738458E0,-2.943929285E-3,7.228786126E-4,-1.192622818E-2,1.230545374E-2
4.665695458E0,1.372697763E-3,2.530589700E-4,-7.681939751E-3,7.807722864E-3
4.675652458E0,-2.661192324E-3,5.337558687E-4,-4.880561493E-3,5.584507176E-3
4.685609458E0,1.841331250E-3,-4.063530825E-3,-4.452783614E-3,6.303178996E-3
4.695565458E0,-9.901416488E-4,-1.934333704E-3,-6.624856964E-3,6.972141504E-3
4.705522458E0,-1.170114847E-3,-2.578711137E-4,-8.320374414E-3,8.406205842E-3
4.715479458E0,-4.438706674E-4,7.045958191E-4,-9.741170332E-3,9.776700664E-3
4.725436458E0,2.191632055E-3,-1.749292947E-3,-9.527996182E-3,9.932068673E-3
4.735393458E0,-2.044391818E-3,2.583404072E-3,-7.986824960E-3,8.639611533E-3
4.745350458E0,1.634553191E-3,-2.596834674E-4,-6.162814796E-3,6.381182167E-3
4.755307458E0,-5.146176554E-4,-1.110030338E-3,-4.142008722E-3,4.318939098E-3
4.765264458E0,-1.703083166E-3,1.164032146E-4,-6.914326921E-3,7.121935043E-3
4.775221458E0,-2.918283455E-3,4.816800356E-6,-1.152905263E-2,1.189266396E-2
4.785177458E0,-3.058555303E-4,4.629418254E-4,-1.077757496E-2,1.079184807E-2
4.795134458E0,8.009542362E-4,-1.123236492E-3,-9.387138300E-3,9.487968874E-3
4.805091458E0,-1.458916813E-3,-6.778538227E-4,-7.277739234E-3,7.453416159E-3
4.815048458E0,1.120354747E-3,-1.607030630E-3,-6.781325676E-3,7.058620271E-3
4.825005458E0,-7.987683639E-4,1.911213621E-4,-6.018359214E-3,6.074142401E-3
4.834962458E0,-1.808639150E-3,-4.874514416E-4,-6.249787286E-3,6.524463626E-3
4.844919458E0,-1.798319863E-4,4.766471684E-4,-1.068140566E-2,1.069354754E-2
4.854876458E0,-1.342301723E-3,6.811777130E-4,-7.623031735E-3,7.770224568E-3
4.864833458E0,5.436375504E-4,1.731909811E-3,-7.617076859E-3,7.830383979E-3
4.874789458E0,1.001967583E-3,1.835240051E-3,-8.211493492E-3,8.473527627E-3
4.884746458E0,-2.980787074E-3,5.845278502E-4,-5.726577714E-3,6.482318775E-3
4.894703458E0,-1.891554333E-3,6.495090201E-4,-5.312189460E-3,5.676195611E-3
4.904660458E0,-2.988605760E-3,2.316646278E-4,-4.063250497E-3,5.049300693E-3
4.914617458E0,6.681808154E-4,9.051784873E-4,-9.106478654E-3,9.175716167E-3
4.924574458E0,1.139408443E-3,-8.746581152E-4,-1.037450507E-2,1.047347287E-2
4.934531458E0,-3.208026756E-4,1.789036207E-3,-9.502319619E-3,9.674587487E-3
4.944488458E0,-4.494411405E-5,-7.022777572E-4,-6.565243937E-3,6.602851049E-3
4.954445458E0,5.883555859E-4,-2.335617319E-4,-5.138321780E-3,5.177167574E-3
4.964401458E0,-4.101498052E-4,-1.838518307E-3,-6.667803973E-3,6.928779275E-3
4.974358458E0,-2.492949134E-4,1.753552817E-3,-7.939197123E-3,8.134368223E-3
4.984315208E0,8.396466728E-5,2.213704400E-3,-9.566370398E-3,9.819520346E-3
4.994272208E0,-1.313928515E-3,1.934871078E-3,-1.001111791E-2,1.028069141E-2
5.004229208E0,-7.733349921E-4,1.012377441E-3,-7.389247417E-3,7.498261965E-3
5.014186208E0,-1.064951182E-3,9.065680206E-5,-6.518127397E-3,6.605174066E-3
5.024143208E0,2.929811832E-3,-6.248066202E-4,-5.585318431E-3,6.337977805E-3
5.034100208E0,-2.520879731E-3,4.045050591E-4,-8.229836822E-3,8.616766973E-3
5.044057208E0,-2.993960632E-3,-5.291784182E-4,-8.481066674E-3,9.009568358E-3
5.054013208E0,1.072153915E-3,1.151009463E-3,-9.468035772E-3,9.597814240E-3
5.063970208E0,2.115002833E-3,1.947725192E-3,-9.508097544E-3,9.933317136E-3
5.073927208E0,1.226305962E-3,3.644758835E-4,-6.146123633E-3,6.277858289E-3
5.083884208E0,-6.179959746E-4,-2.662493847E-3,-8.167726919E-3,8.612929556E-3
5.093841208E0,-5.727222888E-4,9.000170976E-4,-7.478766143E-3,7.554467858E-3
5.103798208E0,-1.042511663E-3,-4.679458216E-4,-9.138939902E-3,9.210104581E-3
5.113755208E0,1.078429865E-3,-1.956652850E-3,-7.230252028E-3,7.567565377E-3
5.123712208E0,-1.783923479E-3,2.688560635E-4,-7.778082043E-3,7.984561781E-3
5.133669208E0,-1.792445546E-3,7.852427661E-4,-7.007362321E-3,7.275478949E-3
5.143625208E0,6.086042849E-4,-3.781262785E-5,-8.848417550E-3,8.869403707E-3
5.153582208E0,-1.186632551E-3,-8.769752458E-4,-5.667537451E-3,5.856463365E-3
5.163539208E0,-3.038647352E-3,1.047574915E-3,-6.829531863E-3,7.548065739E-3
5.173496208E0,7.070885622E-4,7.753996179E-4,-7.671624422E-3,7.743063998E-3
5.183453208E0,-7.966631092E-4,-4.148576409E-4,-6.055172533E-3,6.121429030E-3
5.193410208E0,5.647448124E-4,6.653200835E-4,-6.230141968E-3,6.290966257E-3
5.203367208E0,1.745512709E-4,1.860606484E-3,-7.285982370E-3,7.521825825E-3
5.213324208E0,-5.274580326E-4,-8.515566587E-4,-6.736837327E-3,6.810898465E-3
5.223281208E0,-6.284647388E-4,1.698611304E-3,-6.967736408E-3,7.199277668E-3
5.233237208E0,6.369070616E-5,2.688508481E-3,-6.077706814E-3,6.646100697E-3
5.243194208E0,7.488618139E-4,-1.009493135E-3,-8.396113291E-3,8.489675424E-3
5.253151208E0,-1.804577070E-3,-1.536265947E-3,-6.620850414E-3,7.032230917E-3
5.263108208E0,-1.992235659E-3,1.873626374E-3,-9.725434706E-3,1.010265108E-2
5.273065208E0,9.478940628E-4,-5.109682679E-4,-7.988788188E-3,8.061037677E-3
5.283022208E0,1.761386986E-3,-1.413961872E-4,-6.936809048E-3,7.158337570E-3
5.292979208E0,6.218204508E-4,-1.717987470E-3,-5.795644596E-3,6.076811492E-3
5.302936208E0,-6.803127471E-4,6.664870307E-4,-8.168548346E-3,8.223880621E-3
5.312893208E0,5.141149741E-4,6.377249956E-4,-6.562927738E-3,6.613851213E-3
5.322849208E0,3.042333992E-4,2.916567028E-4,-9.110083804E-3,9.119827219E-3
5.332806208E0,-5.945833400E-4,2.868631855E-4,-7.709793746E-3,7.738006168E-3
5.342763208E0,-1.690665958E-3,5.591139197E-4,-5.868411623E-3,6.132635219E-3
5.352720208E0,1.304036705E-4,-3.614857793E-3,-6.968830712E-3,7.851675202E-3
5.362677208E0,-1.809303416E-3,2.115830779E-3,-5.332913250E-3,6.015835974E-3
5.372634208E0,-4.683386534E-3,1.163750887E-3,-4.406399094E-3,6.534889328E-3
5.382591208E0,-1.755908597E-4,-1.335122623E-3,-8.306026459E-3,8.414479194E-3
5.392548208E0,-4.264607560E-4,2.040966414E-3,-9.129475802E-3,9.364547031E-3
5.402505208E0,2.132583875E-3,7.663751021E-4,-9.899202734E-3,1.015526758E-2
5.412461208E0,2.906764857E-3,-7.231310010E-4,-9.033408016E-3,9.517072069E-3
5.422418208E0,1.185353380E-3,1.371065155E-3,-5.573736504E-3,5.861008523E-3
5.432375208E0,-6.828540936E-4,6.394954398E-4,-5.515946075E-3,5.594721194E-3
5.442332208E0,-1.555666677E-3,-9.180419147E-4,-5.195004866E-3,5.500088665E-3
5.452289208E0,-9.252963355E-4,-1.156927086E-3,-8.668033406E-3,8.793716889E-3
5.462246208E0,8.523045690E-4,1.812390983E-4,-7.974679582E-3,8.022143424E-3
5.472203208E0,-6.039119326E-4,2.762108110E-3,-8.063097484E-3,8.544442163E-3
5.482160208E0,-2.960697515E-3,1.303181052E-4,-7.681256160E-3,8.233128736E-3
5.492117208E0,2.447117353E-3,3.609480336E-4,-7.499096915E-3,7.896525905E-3
5.502073208E0,-6.604241207E-6,-5.141636357E-4,-6.879780442E-3,6.898969980E-3
5.512030208E0,2.665611450E-3,-4.342682660E-4,-4.407035187E-3,5.168755408E-3
5.521987208E0,3.879485885E-4,8.272668347E-4,-6.061783060E-3,6.130260059E-3
5.531944208E0,-2.470798790E-6,-7.980596274E-5,-6.460458040E-3,6.460951415E-3
5.541901208E0,-1.914715394E-3,-5.395077169E-4,-6.992821582E-3,7.270265283E-3
5.551858208E0,7.546495181E-5,2.741240896E-3,-7.879919372E-3,8.343454077E-3
5.561815208E0,-9.417515248E-4,-1.693796366E-4,-8.596195839E-3,8.649287156E-3
5.571772208E0,-6.573260762E-4,1.144874841E-5,-4.672561772E-3,4.718584762E-3
5.581729208E0,-1.238775440E-3,2.853414044E-4,-4.636099562E-3,4.807224090E-3
5.591685208E0,-1.725601265E-3,-1.525342464E-3,-5.290437490E-3,5.770017174E-3
5.601642208E0,-6.952139083E-4,-1.362971961E-4,-7.712205872E-3,7.744676799E-3
5.611599208E0,-2.063013380E-3,-2.076144330E-3,-6.184617057E-3,6.842213650E-3
5.621556208E0,-6.013108650E-4,1.006199047E-3,-6.154669449E-3,6.265298660E-3
5.631513208E0,1.079143723E-3,5.300259218E-4,-5.966650322E-3,6.086574958E-3
5.641470208E0,2.210303443E-3,1.189438626E-3,-2.521229908E-3,3.557640482E-3
5.651427208E0,-1.956478227E-3,-4.393504933E-4,-3.837896511E-3,4.330159990E-3
5.661384208E0,-3.539751749E-3,9.022681043E-4,-3.931957297E-3,5.366956155E-3
5.671341208E0,8.134514210E-4,-1.778736711E-3,-6.938398816E-3,7.208813052E-3
5.681297208E0,-6.527010119E-4,-1.222011633E-3,-6.721180864E-3,6.862477923E-3
5.691254208E0,-4.391154507E-4,5.551157519E-4,-7.334507070E-3,7.368579907E-3
5.701211208E0,3.385957098E-3,5.806060508E-4,-3.780242056E-3,5.108036693E-3
5.711168208E0,2.142527141E-3,1.421365887E-3,-4.911286756E-3,5.543594604E-3
5.721125208E0,-1.806328190E-3,1.447736286E-3,-5.394488573E-3,5.870201772E-3
5.731082208E0,-1.906995545E-3,9.649051353E-4,-8.314112201E-3,8.584412363E-3
5.741039208E0,-6.403209409E-4,4.884973168E-4,-9.557804093E-3,9.591676580E-3
5.750996208E0,7.511807489E-4,-8.308328688E-4,-9.900819510E-3,9.963974245E-3
5.760953208E0,8.096494130E-4,-3.096788190E-3,-9.028572589E-3,9.579183278E-3
5.770909208E0,-5.653405096E-4,8.787782863E-4,-7.829084992E-3,7.898508276E-3
5.780866208E0,5.352817243E-4,1.938988455E-3,-7.484532893E-3,7.750124862E-3
5.790823208E0,1.985372975E-3,2.164561301E-4,-6.062138826E-3,6.382639442E-3
5.800780208E0,-1.767039415E-3,1.071332954E-3,-4.436182790E-3,4.893863539E-3
5.810737208E0,-1.067693462E-3,1.556294970E-3,-7.105735131E-3,7.352108208E-3
5.820694208E0,8.591276128E-5,-7.889699191E-5,-7.409147918E-3,7.410066033E-3
5.830651208E0,1.824690611E-3,-1.960759982E-4,-5.453055725E-3,5.753586565E-3
5.840608208E0,1.402311027E-4,-1.838658936E-3,-8.383061737E-3,8.583475725E-3
5.850565208E0,9.775289800E-4,-6.958972663E-4,-5.939610302E-3,6.059604480E-3
5.860522208E0,2.157977317E-3,1.031366177E-3,-3.404196352E-3,4.160424869E-3
5.870478208E0,-1.794792479E-4,2.003686503E-3,-3.773044795E-3,4.275843709E-3
5.880435208E0,6.074302364E-4,3.524422646E-4,-6.283245981E-3,6.322370370E-3
5.890392208E0,4.569616867E-4,-9.747222066E-6,-8.091798052E-3,8.104696460E-3
5.900349208E0,7.094424218E-4,8.298773319E-4,-5.720360205E-3,5.823617931E-3
5.910306208E0,1.370438957E-3,3.294693306E-4,-5.987741053E-3,6.151397881E-3
5.920263208E0,-2.377290512E-4,8.362308145E-4,-4.635639489E-3,4.716455295E-3
5.930220208E0,5.444412818E-4,-1.576326787E-3,-3.907531500E-3,4.248532084E-3
5.940177208E0,6.861402653E-5,2.745958045E-4,-7.256884128E-3,7.262401668E-3
5.950134208E0,1.593007473E-3,-6.308788434E-4,-6.339158863E-3,6.566628969E-3
5.960090208E0,2.439993434E-3,-6.379410625E-4,-8.083349094E-3,8.467648394E-3
5.970047208E0,-1.030904241E-3,2.438668162E-5,-6.550166756E-3,6.630840278E-3
5.980004208E0,2.217970323E-3,-1.107431017E-3,-5.566880107E-3,6.093927300E-3
5.989960958E0,2.558322391E-3,-1.808907837E-3,-4.249148071E-3,5.279433714E-3
5.999917958E0,2.263764152E-3,-2.495916560E-4,-3.822732717E-3,4.449742639E-3
6.009874958E0,-1.193018979E-3,8.036885411E-4,-5.696266890E-3,5.875088598E-3
6.019831958E0,2.250525635E-3,-1.911485568E-3,-8.158650249E-3,8.676532522E-3
6.029788958E0,2.067300258E-3,5.143871531E-4,-5.333302543E-3,5.743034086E-3
6.039745958E0,-4.975136835E-5,-9.826021269E-4,-5.356512964E-3,5.446119102E-3
6.049701958E0,3.367084078E-3,-1.127211377E-3,-5.227616057E-3,6.319480225E-3
6.059658958E0,8.274557185E-4,1.048043370E-3,-4.838261753E-3,5.019148799E-3
6.069615958E0,6.378386170E-4,6.759995595E-4,-3.824664280E-3,3.935971336E-3
6.079572958E0,-3.311653854E-4,1.758906990E-3,-4.955145530E-3,5.268480952E-3
6.089529958E0,5.684505450E-4,5.674092099E-4,-7.397531532E-3,7.441005443E-3
6.099486958E0,1.021220116E-3,4.088543355E-4,-7.510207593E-3,7.590340604E-3
6.109443958E0,-5.428562872E-6,6.938129663E-4,-5.650788546E-3,5.693225543E-3
6.119400958E0,1.948623220E-3,-9.310878813E-4,-6.641164422E-3,6.983489241E-3
6.129357958E0,9.086588398E-4,1.494785771E-3,-8.155969903E-3,8.341456135E-3
6.139313958E0,-1.908828039E-3,1.213090494E-3,-6.686791778E-3,7.058923240E-3
6.149270958E0,2.976009855E-4,2.628751099E-4,-6.461488083E-3,6.473677310E-3
6.159227958E0,-4.011411220E-4,1.701533794E-3,-4.201047122E-3,4.550266847E-3
6.169184958E0,1.077890629E-4,2.474477515E-4,-2.029505558E-3,2.047374339E-3
6.179141958E0,-3.317504888E-4,-1.119157299E-3,-6.533797830E-3,6.637249847E-3
6.189098958E0,-1.869726111E-3,-1.020087861E-3,-8.145809174E-3,8.419659261E-3
6.199055958E0,4.221340641E-4,5.477936938E-4,-7.164060138E-3,7.197362903E-3
6.209012958E0,1.094049541E-3,8.945371956E-4,-8.246102370E-3,8.366322101E-3
6.218969958E0,-1.837856602E-3,1.625954174E-3,-6.497200578E-3,6.945146451E-3
6.228925958E0,5.147799384E-4,-3.684870899E-4,-6.372831762E-3,6.404199074E-3
6.238882958E0,4.279112443E-3,-7.765907794E-4,-5.123592913E-3,6.720498559E-3
6.248839958E0,-3.007259220E-4,1.252738759E-3,-3.614645451E-3,3.837375694E-3
6.258796958E0,8.286351804E-4,7.336586714E-4,-4.620358348E-3,4.751063310E-3
6.268753958E0,1.514399191E-3,9.951815009E-4,-4.448318854E-3,4.803262616E-3
6.278710958E0,9.458920686E-4,-4.960997030E-4,-7.324077189E-3,7.401549391E-3
6.288667958E0,-3.352183849E-3,3.744876012E-4,-6.944311783E-3,7.720158266E-3
6.298624958E0,-2.598416759E-3,-1.926991157E-3,-8.123949170E-3,8.744347585E-3
6.308581958E0,-2.161125885E-3,-1.014326699E-3,-7.898645476E-3,8.251540710E-3
6.318538958E0,-1.816986827E-3,9.368062019E-4,-3.940558061E-3,4.439261743E-3
6.328494958E0,2.125290455E-3,-1.268291846E-3,-3.553867340E-3,4.330750142E-3
6.338451958E0,1.624544384E-4,7.594265044E-4,-3.984648734E-3,4.059623824E-3
6.348408958E0,-2.058607060E-4,-1.443007961E-3,-7.996434346E-3,8.128198623E-3
6.358365958E0,-5.010454915E-4,2.450373955E-3,-5.149941891E-3,5.725144591E-3
6.368322958E0,-1.303988509E-3,-4.665860906E-4,-8.597137406E-3,8.707976814E-3
6.378279958E0,6.648111157E-4,1.683450304E-3,-5.461672321E-3,5.753767747E-3
6.388236958E0,3.359663766E-3,-1.530656591E-4,-3.521826118E-3,4.869705219E-3
6.398193958E0,-8.225260535E-4,-2.351301722E-3,-5.368264392E-3,5.918059773E-3
6.408150958E0,2.808694262E-3,8.926950395E-4,-9.121989831E-3,9.586259248E-3
6.418106958E0,-1.504155807E-5,2.927888185E-3,-8.616352454E-3,9.100235441E-3
6.428063958E0,1.524798223E-3,7.651355118E-4,-7.367329672E-3,7.562274028E-3
6.438020958E0,9.113103151E-4,2.968357876E-4,-4.957981408E-3,5.049770056E-3
6.447977958E0,1.842883998E-3,8.777715266E-5,-1.221566461E-3,2.212724763E-3
6.457934958E0,1.380261499E-3,2.366881818E-4,-2.376074903E-3,2.758056389E-3
6.467891958E0,-2.014203463E-3,-1.647232100E-3,-7.804129273E-3,8.226470865E-3
6.477848958E0,1.150348689E-4,8.829813451E-4,-7.953912020E-3,8.003599534E-3
6.487805958E0,1.019854099E-4,1.505669206E-5,-7.956575602E-3,7.957243432E-3
6.497762958E0,-3.893533722E-4,6.409808993E-4,-7.543934509E-3,7.581121318E-3
6.507719958E0,-2.948110923E-4,2.056983300E-3,-2.867956646E-3,3.541647808E-3
6.517675958E0,7.955034380E-4,-2.039876767E-3,-1.823299564E-3,2.849270827E-3
6.527632958E0,1.408296754E-3,-8.920542896E-4,-5.004178733E-3,5.274548833E-3
6.537589958E0,1.432726393E-3,1.414548606E-4,-6.167624146E-3,6.333427350E-3
6.547546958E0,2.846598625E-3,1.225360669E-3,-7.453398779E-3,8.072037281E-3
6.557503958E0,1.405626303E-3,2.057878301E-3,-7.157254964E-3,7.578716714E-3
6.567460958E0,-2.492709085E-3,1.034958288E-3,-5.086380988E-3,5.758125459E-3
6.577417958E0,-1.826370019E-3,-8.061798289E-4,-6.736341864E-3,7.025941579E-3
6.587374958E0,1.284734579E-3,8.247401565E-4,-4.800757393E-3,5.037659259E-3
6.597331958E0,1.945869531E-3,-3.797756508E-4,-5.172152072E-3,5.539114987E-3
6.607287958E0,-9.223548695E-4,-2.620639279E-4,-1.743598841E-3,1.989862540E-3
6.617244958E0,1.058431342E-3,2.420628443E-4,-5.824178457E-3,5.924519055E-3
6.627201958E0,3.391329665E-5,8.796239272E-4,-8.118757978E-3,8.166340641E-3
6.637158958E0,-2.723067999E-3,3.052087501E-3,-1.187972538E-2,1.256416382E-2
6.647115958E0,-1.240219804E-3,-1.109634526E-3,-5.518499762E-3,5.763963356E-3
6.657072958E0,-9.946080390E-4,-8.106231689E-6,-1.362395473E-3,1.686840919E-3
6.667029958E0,-1.877712086E-3,2.744004130E-3,-4.487881437E-3,5.585377439E-3
6.676986958E0,-3.102527699E-3,2.161376178E-4,-3.638777882E-3,4.786762796E-3
6.686943958E0,1.076466870E-4,-1.479497179E-3,-3.448095173E-3,3.753646232E-3
6.696899958E0,8.534422377E-4,-9.609386325E-6,-7.057145238E-3,7.108569118E-3
6.706856958E0,1.171689946E-3,-1.659374684E-4,-6.818259135E-3,6.920191486E-3
6.716813958E0,-2.589651383E-3,1.306115650E-3,-5.624739453E-3,6.328501110E-3
6.726770958E0,8.554137894E-4,-4.979101941E-4,-6.586674601E-3,6.660625317E-3
6.736727958E0,5.286808591E-4,3.587566316E-4,-5.128964782E-3,5.168606147E-3
6.746684958E0,-1.327808714E-3,1.694057137E-4,-3.612292930E-3,3.852328451E-3
6.756641958E0,1.780967577E-3,1.059687696E-3,-7.338590920E-3,7.625595073E-3
6.766598958E0,-2.758507617E-5,-1.590690576E-3,-6.654158235E-3,6.841701488E-3
6.776555958E0,-3.852527589E-4,-3.559868783E-4,-8.804768324E-3,8.820379333E-3
6.786512958E0,-1.021215692E-3,-1.294750720E-3,-7.466262206E-3,7.646197241E-3
6.796468958E0,1.720429631E-3,-6.204182282E-4,-9.343415499E-3,9.520725291E-3
6.806425958E0,2.674373798E-3,-1.009239815E-3,-5.139881745E-3,5.881260457E-3
6.816382958E0,-4.248785554E-4,5.120839924E-4,-3.615243360E-3,3.675967404E-3
6.826339958E0,4.600897664E-4,-9.457310662E-4,-4.757739604E-3,4.872594379E-3
6.836296958E0,1.093947794E-4,5.734199658E-4,-4.942703992E-3,4.977057407E-3
6.846253958E0,-9.987466037E-4,8.686073124E-5,-3.114443272E-3,3.271818525E-3
6.856210958E0,2.036108403E-3,6.397692487E-4,-7.609890774E-3,7.903510594E-3
6.866167958E0,1.483502449E-3,5.675973371E-4,-5.017304793E-3,5.262726825E-3
6.876124958E0,9.475043043E-6,5.216058344E-5,-4.970488138E-3,4.970770849E-3
6.886080958E0,9.602236096E-4,-1.398996450E-3,-3.746232949E-3,4.112600364E-3
6.896037958E0,-2.500866773E-3,1.912638545E-4,-3.381371498E-3,4.210058157E-3
6.905994958E0,1.456590486E-3,-1.214618795E-3,-6.012307480E-3,6.304347380E-3
6.915951958E0,3.305836581E-4,1.548527740E-3,-4.455124959E-3,4.728145738E-3
6.925908958E0,-5.700974725E-4,1.904591918E-3,-7.190192118E-3,7.459982855E-3
6.935865958E0,2.263837727E-3,1.434335485E-3,-5.128115416E-3,5.786177257E-3
6.945822958E0,6.337169325E-4,-1.774104312E-4,-3.976831213E-3,4.030912813E-3
6.955779958E0,2.675874857E-4,-2.266398631E-3,-2.688415349E-3,3.526434872E-3
6.965736958E0,-4.184428835E-4,-6.000585854E-4,-4.339842126E-3,4.401067419E-3
6.975693958E0,2.237879904E-3,-1.202981919E-3,-5.857875571E-3,6.385137286E-3
6.985650000E0,-1.907596597E-3,8.452553302E-4,-3.513494506E-3,4.086321695E-3
6.995607000E0,-7.820307510E-4,3.768345341E-4,-6.147291511E-3,6.208282314E-3
7.005564000E0,-8.627247298E-4,-6.711194292E-4,-3.960834816E-3,4.108881562E-3
7.015521000E0,3.018039744E-3,1.162789762E-3,-3.087554127E-3,4.471424204E-3
7.025478000E0,1.893120469E-3,3.476011567E-3,-1.827877946E-3,4.359782025E-3
7.035435000E0,-2.884621499E-4,1.054238528E-4,-4.698845558E-3,4.708871858E-3
7.045392000E0,3.770617768E-4,-1.318036579E-3,-4.487390630E-3,4.692128586E-3
7.055349000E0,-5.504372530E-4,-1.268371008E-3,-4.523577169E-3,4.730168769E-3
7.065306000E0,-1.373087754E-3,-4.300083965E-4,-3.980027512E-3,4.232126675E-3
7.075262000E0,2.822807292E-3,-7.806401700E-4,-5.425848067E-3,6.165830627E-3
7.085219000E0,5.197057035E-4,9.490828961E-4,-2.555759624E-3,2.775384589E-3
7.095176000E0,-8.740311023E-5,1.607022248E-3,-5.592782050E-3,5.819739760E-3
7.105133000E0,-1.521249069E-3,8.834414184E-4,-3.601802513E-3,4.008447182E-3
7.115090000E0,1.278605545E-3,-2.099201083E-6,-5.085567012E-3,5.243837181E-3
7.125047000E0,7.712733932E-4,-2.389356494E-3,-4.252530634E-3,4.938411070E-3
7.135004000E0,7.012913702E-4,-1.841962337E-3,-2.574957907E-3,3.242690713E-3
7.144961000E0,1.865891740E-3,5.405014381E-4,-4.711613059E-3,5.096370415E-3
7.154918000E0,-1.287180698E-3,-1.237416640E-3,-6.124919280E-3,6.379864441E-3
7.164875000E0,3.331806045E-3,-9.956015274E-4,-6.074054167E-3,6.999020499E-3
7.174831000E0,-1.902227523E-3,-1.998509280E-3,-4.745654762E-3,5.489421464E-3
7.184788000E0,-1.411407022E-3,2.226862125E-3,-6.087621674E-3,6.634012538E-3
7.194745000E0,1.813118812E-3,-4.668496549E-4,-2.667238936E-3,3.258759268E-3
7.204702000E0,1.849870430E-3,-2.988046035E-4,-5.728542805E-3,6.027230497E-3
7.214659000E0,-1.800673548E-3,2.866266295E-4,-3.997087479E-3,4.393323157E-3
7.224616000E0,-2.112796064E-3,9.851735085E-4,-4.754491150E-3,5.295248828E-3
7.234573000E0,7.599933306E-4,-1.962188631E-3,-5.423789844E-3,5.817668808E-3
7.244530000E0,3.268406726E-5,8.003078401E-4,-6.464553997E-3,6.513986434E-3
7.254487000E0,-1.911963220E-3,2.917193808E-3,-7.281720638E-3,8.073975385E-3
7.264443000E0,-8.277903544E-4,-1.700194553E-3,-5.349596962E-3,5.673983261E-3
7.274400000E0,-1.967590302E-3,1.630307175E-3,-5.470968783E-3,6.038278936E-3
7.284357000E0,9.400488925E-4,1.557868905E-3,-2.710070461E-3,3.264219562E-3
7.294314000E0,8.981799474E-4,2.490114421E-4,-3.293355927E-3,3.422707580E-3
7.304271000E0,-3.063678741E-4,7.864376530E-4,-2.023560926E-3,2.192520075E-3
7.314228000E0,-8.120646235E-4,7.599163800E-4,-6.233265623E-3,6.331707684E-3
7.324185000E0,-1.040830044E-3,-7.671406493E-4,-5.373064429E-3,5.526450335E-3
7.334142000E0,3.035889473E-3,-2.218335867E-4,-5.030527711E-3,5.879799663E-3
7.344099000E0,-1.790024806E-3,2.053837292E-3,-4.031309858E-3,4.865582760E-3
7.354056000E0,-2.672688570E-4,-1.505968161E-3,-2.151446417E-3,2.639714839E-3
7.364012000E0,-4.773922265E-4,1.534475014E-4,-2.479014918E-3,2.529222101E-3
7.373969000E0,1.284110476E-3,2.566166222E-4,-4.076406360E-3,4.281574549E-3
7.383926000E0,1.422062283E-3,1.166085713E-3,-5.724370480E-3,6.012523132E-3
7.393883000E0,-1.409475226E-4,6.211083382E-4,-5.992309190E-3,6.026061002E-3
7.403840000E0,-1.351354294E-3,-6.936946884E-4,-5.084437318E-3,5.306493531E-3
7.413797000E0,4.196955124E-4,-2.797106281E-4,-2.451643348E-3,2.502985710E-3
7.423754000E0,-9.110860992E-4,2.582121640E-3,-2.713166177E-3,3.854698529E-3
7.433711000E0,1.155367587E-3,3.062095493E-4,-2.908828668E-3,3.144824760E-3
7.443668000E0,-6.760882679E-4,8.713323623E-4,-3.722422756E-3,3.882363534E-3
7.453624000E0,1.581740216E-3,2.452544868E-5,-4.713173956E-3,4.971570410E-3
7.463581000E0,2.017699648E-3,-3.240825608E-4,-4.134470597E-3,4.611939775E-3
7.473538000E0,1.052224310E-3,1.525482163E-3,-4.973948933E-3,5.307960043E-3
7.483495000E0,3.709876910E-4,-1.876972616E-3,-3.140362911E-3,3.677300270E-3
7.493452000E0,5.877275253E-4,-9.520743042E-4,-4.303591326E-3,4.446658006E-3
7.503409000E0,-1.818971126E-3,-5.299039185E-5,-3.986675292E-3,4.382355968E-3
7.513366000E0,-5.985812750E-4,-4.222132266E-4,-4.531892017E-3,4.590708965E-3
7.523323000E0,-1.352255931E-3,-2.429829910E-4,-4.157716408E-3,4.378840322E-3
7.533280000E0,9.666171391E-4,6.709815934E-4,-6.192361936E-3,6.303166771E-3
7.543237000E0,-9.204987437E-4,-2.683269791E-3,-5.587026477E-3,6.265949215E-3
7.553193000E0,5.158246495E-5,-1.000382006E-3,-2.530423924E-3,2.721483078E-3
7.563150000E0,6.760937395E-4,7.434552535E-4,-5.769627169E-3,5.856485817E-3
7.573107000E0,-2.767702099E-4,2.874956466E-3,-3.155931830E-3,4.278069909E-3
7.583064000E0,2.279598033E-3,-1.112594269E-3,-8.165072650E-3,8.550020151E-3
7.593021000E0,2.057104139E-3,2.470053732E-4,-5.708277225E-3,6.072653290E-3
7.602978000E0,-8.073919453E-4,9.609991685E-4,-4.598539323E-3,4.766756241E-3
7.612935000E0,1.507096924E-3,-2.763485536E-4,-7.120226510E-3,7.283222859E-3
7.622892000E0,-2.945175860E-3,-1.025762409E-3,-5.021921359E-3,5.911509410E-3
7.632849000E0,2.074070508E-4,-2.083389089E-3,-2.413865179E-3,3.195351762E-3
7.642806000E0,-5.164400209E-4,8.391644806E-4,-5.836293101E-3,5.918887099E-3
7.652762000E0,-3.498942824E-4,6.140032783E-4,-4.482092336E-3,4.537463801E-3
7.662719000E0,-1.309697400E-3,7.138717920E-4,-5.278909579E-3,5.485599927E-3
7.672676000E0,-1.897185575E-5,7.589971647E-4,-4.428135231E-3,4.492751746E-3
7.682633000E0,1.179983257E-3,1.551819965E-3,-3.426786512E-3,3.942508274E-3
7.692590000E0,3.691371530E-4,7.568281144E-4,-4.841592163E-3,4.914271635E-3
7.702547000E0,9.747400181E-4,-1.635222696E-3,-4.337454215E-3,4.736832320E-3
7.712504000E0,-8.353668964E-4,1.078185625E-3,-3.996731713E-3,4.223054165E-3
7.722461000E0,-4.356264835E-4,-7.687164471E-4,-3.629747778E-3,3.735741472E-3
7.732418000E0,-2.080464270E-3,-9.729340672E-5,-4.137517884E-3,4.632154124E-3
7.742374000E0,-1.849301741E-3,7.245587185E-4,-6.850214675E-3,7.132344871E-3
7.752331000E0,1.166078495E-3,-1.441380940E-3,-5.724164657E-3,6.016924388E-3
7.762288000E0,-3.022008575E-3,-3.484198824E-4,-5.527623929E-3,6.309402392E-3
7.772245000E0,-1.090703765E-3,7.370952517E-4,-5.798626691E-3,5.946176554E-3
7.782202000E0,1.485638204E-3,-9.031454101E-4,-5.661474541E-3,5.922422349E-3
7.792159000E0,4.636653466E-4,1.445865259E-3,-3.592495807E-3,3.900197177E-3
7.802116000E0,-2.364796819E-4,5.174875259E-4,-2.334152348E-3,2.402495196E-3
7.812073000E0,7.175849751E-4,-1.868894324E-4,-5.924689583E-3,5.970913039E-3
7.822030000E0,1.777256723E-3,-8.931597695E-4,-6.140938960E-3,6.455037346E-3
7.831987000E0,-2.836635336E-3,-1.404713839E-4,-7.750516757E-3,8.254498304E-3
7.841943000E0,-6.427235203E-4,1.260617748E-3,-6.790714338E-3,6.936573495E-3
7.851900000E0,3.576643066E-4,-4.426268861E-4,-4.243340343E-3,4.281329184E-3
7.861857000E0,-8.354317397E-4,6.418125704E-4,-2.088310197E-3,2.338997445E-3
7.871814000E0,-8.833096363E-4,1.409890130E-3,1.235231757E-4,1.668317736E-3
7.881771000E0,-4.574700724E-4,9.156074375E-4,-2.214733511E-3,2.439807446E-3
7.891728000E0,1.417271560E-4,1.461110078E-3,-4.563257098E-3,4.793562828E-3
7.901685000E0,-1.470817020E-3,-1.966910437E-3,-5.186170340E-3,5.738327471E-3
7.911642000E0,-5.650582025E-4,7.096063346E-4,-5.449023098E-3,5.524009834E-3
7.921599000E0,-9.953766130E-5,1.085307449E-4,-4.805868492E-3,4.808124232E-3
7.931556000E0,-1.817269833E-3,9.831301868E-4,-2.372802235E-3,3.146300217E-3
7.941512000E0,2.906645183E-3,-5.806777626E-4,-4.273499362E-3,5.200823942E-3
7.951469000E0,-5.993354134E-4,-2.506383695E-3,-5.831625313E-4,2.642203758E-3
7.961426000E0,-2.010011813E-3,3.136377782E-4,-3.427417949E-3,3.985688139E-3
7.971383000E0,-1.992440317E-3,5.751652643E-4,-3.800613806E-3,4.329584137E-3
7.981340000E0,1.163671724E-3,2.782659605E-3,-4.189433530E-3,5.162235917E-3
7.991297208E0,-1.240220154E-3,1.161924563E-3,-5.467789248E-3,5.725812953E-3
8.001254208E0,-2.252893755E-4,1.904033124E-4,-2.875734121E-3,2.890822626E-3
8.011211208E0,-1.286620507E-3,-1.835495234E-3,-3.773685545E-3,4.389206953E-3
8.021168208E0,6.305892020E-4,9.075598791E-4,-1.667390577E-3,2.000374718E-3
8.031125208E0,-2.546114847E-4,9.482866153E-4,-3.613918088E-3,3.744927030E-3
8.041081208E0,-3.675294574E-4,2.822619863E-3,-5.387851037E-3,6.093537527E-3
8.051038208E0,-3.860907163E-4,1.540547237E-3,-5.666747689E-3,5.885098232E-3
8.060995208E0,-3.554644063E-4,4.643639550E-4,-4.713069648E-3,4.749211969E-3
8.070952208E0,-3.878439311E-4,8.947057649E-4,-5.085300654E-3,5.177953656E-3
8.080909208E0,-7.692086510E-4,-5.745599046E-4,-1.838373020E-3,2.073985630E-3
8.090866208E0,-1.129179727E-3,-6.212387234E-5,-2.285187133E-3,2.549703211E-3
8.100823208E0,-3.651187290E-4,7.703797892E-4,-2.967755310E-3,3.087777241E-3
8.110780208E0,2.028394956E-3,-1.080411486E-3,-7.030684501E-3,7.396769540E-3
8.120737208E0,-2.517887158E-3,2.192119136E-4,-8.279973641E-3,8.657122680E-3
8.130693208E0,5.434752675E-4,5.994997919E-4,-6.128024310E-3,6.181217300E-3
8.140650208E0,2.677466255E-3,1.212292351E-3,-6.144003943E-3,6.810819535E-3
8.150607208E0,6.349972682E-4,-3.756312653E-4,-5.900544114E-3,5.946489824E-3
8.160564208E0,-7.985823322E-4,-9.990772232E-4,-3.546576016E-3,3.770157885E-3
8.170521208E0,-1.955361804E-4,-2.699158154E-3,-5.217785016E-3,5.877837154E-3
8.180478208E0,-7.966116536E-4,-7.105758414E-4,-5.262259394E-3,5.369439643E-3
8.190435208E0,1.361010480E-3,1.553576440E-3,-6.478479132E-3,6.799753021E-3
8.200392208E0,-3.732551588E-3,8.158804849E-4,-5.376463756E-3,6.595753546E-3
8.210349208E0,-1.271389425E-3,7.087457925E-4,-4.812078550E-3,5.027410033E-3
8.220306208E0,1.430387609E-3,-1.236693002E-3,-5.843520164E-3,6.141835736E-3
8.230262208E0,9.297439829E-4,1.126351766E-3,-4.369189963E-3,4.606833306E-3
8.240219208E0,1.169428462E-3,-1.090463251E-3,-5.873877555E-3,6.087619450E-3
8.250176208E0,-2.136331517E-3,7.509281859E-4,-4.712358117E-3,5.228204712E-3
8.260133208E0,5.316230236E-4,-8.943723515E-4,-6.239948794E-3,6.326095628E-3
8.270090208E0,1.221215585E-3,6.433436647E-4,-5.289111286E-4,1.478176430E-3
8.280047208E0,-2.488301601E-3,2.428460866E-3,2.508629113E-4,3.485971778E-3
8.290004208E0,-2.053720877E-3,1.247487962E-4,2.317670733E-4,2.070518698E-3
8.299961208E0,9.431343642E-4,1.125831157E-3,-2.484923229E-3,2.886492972E-3
8.309918208E0,4.554626066E-4,-6.781863049E-4,-5.805954337E-3,5.863146648E-3
8.319875208E0,1.674391446E-3,-2.168491483E-3,-8.427569643E-3,8.861708193E-3
8.329831208E0,4.920418141E-4,-9.536547586E-4,-4.547295161E-3,4.672200319E-3
8.339788208E0,7.620864199E-4,4.301238805E-4,-3.457264043E-3,3.566294566E-3
8.349745208E0,1.457330771E-3,-9.455904365E-5,-4.104644060E-3,4.356702566E-3
8.359702208E0,4.043686204E-6,-6.029559299E-4,-3.514753655E-3,3.566099474E-3
8.369659208E0,1.157755964E-3,1.841598190E-3,-2.249864861E-3,3.129500705E-3
8.379616208E0,2.247521421E-3,9.129540995E-4,-3.314597532E-3,4.107480313E-3
8.389573208E0,2.476689871E-3,5.779294297E-4,-4.963343963E-3,5.576986502E-3
8.399530208E0,-9.902132442E-4,-2.947878093E-4,-3.284752369E-3,3.443402423E-3
8.409487208E0,-2.528324258E-4,3.709942102E-4,-3.604160622E-3,3.632015243E-3
8.419444208E0,3.606887069E-3,-8.905455470E-4,-4.456639290E-3,5.802097850E-3
8.429400208E0,1.055399422E-3,5.057044327E-4,-2.528904937E-3,2.786568695E-3
8.439357208E0,1.230267808E-4,1.786686480E-4,-4.954245873E-3,4.958992866E-3
8.449314208E0,1.926638652E-5,-1.879328862E-3,-5.028922111E-3,5.368640960E-3
8.459271208E0,-1.901139040E-3,3.415253013E-5,-4.575120285E-3,4.954515281E-3
8.469228208E0,-1.152916113E-3,2.830541693E-3,-6.455816329E-3,7.142740812E-3
8.479185208E0,4.258058034E-4,-5.556680262E-4,-4.769768566E-3,4.820868149E-3
8.489142208E0,1.243887353E-3,1.303219236E-3,-1.366076060E-3,2.260928996E-3
8.499099208E0,8.225752390E-4,8.480846882E-4,-5.144035444E-3,5.277971041E-3
8.509056208E0,5.392880412E-4,1.398108900E-3,-5.221361294E-3,5.432140817E-3
8.519013208E0,2.157158451E-3,-1.494539902E-4,-3.936652094E-3,4.491425029E-3
8.528969208E0,1.996039413E-3,-6.596297026E-4,-3.902725875E-3,4.432894533E-3
8.538926208E0,-2.848250559E-3,-5.405871198E-4,-2.875810489E-3,4.083509722E-3
8.548883208E0,2.511641942E-3,-9.873798117E-4,-3.114573658E-3,4.121144647E-3
8.558840208E0,-4.149058368E-4,-4.323776811E-4,-2.331070602E-3,2.406862577E-3
8.568797208E0,-1.151730772E-3,7.618451491E-4,-5.006313324E-3,5.193271118E-3
8.578754208E0,2.787350910E-3,-3.412365913E-4,-4.948522896E-3,5.689784386E-3
8.588711208E0,2.184282523E-3,7.564807311E-4,-4.788052291E-3,5.316840977E-3
8.598668208E0,-2.854418010E-3,-8.086590096E-4,-5.102304742E-3,5.902130568E-3
8.608625208E0,1.069195569E-4,7.393211126E-4,-2.676283941E-3,2.778582954E-3
8.618582208E0,-3.612642176E-4,-2.505741082E-3,-2.164958045E-3,3.331109956E-3
8.628538208E0,-6.473200629E-4,8.790064603E-4,-2.594606951E-3,2.814899794E-3
8.638495208E0,-1.838019467E-3,8.808709681E-4,-2.983694896E-3,3.613403445E-3
8.648452208E0,-8.859464433E-4,3.283089027E-4,-2.801492810E-3,2.956526645E-3
8.658409208E0,-5.397491623E-5,1.613283530E-4,-4.465701059E-3,4.468940151E-3
8.668366208E0,2.030068077E-3,8.153039962E-4,-1.476282254E-3,2.639186673E-3
8.678323208E0,3.438081359E-3,-9.679486975E-4,-3.057666123E-3,4.701770968E-3
8.688280208E0,-8.663849439E-5,1.584717073E-3,-7.351869717E-4,1.749095284E-3
8.698237208E0,-1.097041764E-3,1.948771998E-3,-3.524582833E-3,4.174194183E-3
8.708194208E0,3.414788516E-4,-1.014056616E-3,-4.323711619E-3,4.454144226E-3
8.718151208E0,2.134052571E-3,6.573433056E-4,-5.061673000E-3,5.532342556E-3
8.728107208E0,-5.365104880E-5,8.295914158E-4,-4.683613777E-3,4.756820195E-3
8.738064208E0,3.178893821E-3,-6.958674639E-4,-3.883866593E-3,5.066953441E-3
8.748021208E0,-2.425198909E-3,1.400455832E-3,-6.736405194E-4,2.880391959E-3
8.757978208E0,-4.618311767E-3,1.852549613E-4,-7.820306346E-4,4.687717450E-3
8.767935208E0,1.086825156E-3,5.713803694E-4,-4.914997146E-3,5.066049880E-3
8.777892208E0,3.143850714E-3,-9.202556685E-4,-5.259610713E-3,6.196303144E-3
8.787849208E0,9.954306297E-4,9.189797565E-4,-3.719013184E-3,3.958088553E-3
8.797806208E0,1.863088575E-3,1.591797918E-4,-3.232985735E-3,3.734787010E-3
8.807763208E0,1.210474642E-3,-3.439299762E-4,3.153458238E-5,1.258781600E-3
8.817720208E0,-9.687105194E-5,-3.300821409E-4,-3.823391162E-3,3.838835526E-3
8.827676208E0,1.137912041E-4,-5.056876689E-4,-5.087936297E-3,5.114270644E-3
8.837633208E0,-4.306901246E-5,1.118840650E-3,-4.854910076E-3,4.982349966E-3
8.847590208E0,1.612312393E-3,1.230960712E-3,-7.243506610E-3,7.522180770E-3
8.857547208E0,-1.175484504E-3,-1.075070351E-3,-5.777435377E-3,5.993020909E-3
8.867504208E0,1.370045356E-5,-1.372953877E-3,-4.687597975E-3,4.884543461E-3
8.877461208E0,1.050735358E-3,-9.284717962E-4,-3.500893712E-3,3.771254626E-3
8.887418208E0,-1.559826778E-3,-3.493918106E-3,-4.631255753E-3,6.007416513E-3
8.897375208E0,2.682056045E-3,-1.210524701E-3,-4.232048057E-3,5.154515054E-3
8.907332208E0,-3.660524962E-4,1.015385613E-3,-2.083236352E-3,2.346247231E-3
8.917289208E0,2.153154928E-4,2.002619207E-3,-8.497726172E-3,8.733166353E-3
8.927245208E0,2.318316605E-3,-1.919665374E-3,-3.061532974E-3,4.293331012E-3
8.937202208E0,-1.509977505E-3,7.741218433E-4,-9.136926383E-4,1.927208066E-3
8.947159208E0,-1.781327883E-3,3.078802489E-3,9.230552241E-4,3.674804041E-3
8.957116208E0,-3.291061148E-4,-5.324445665E-4,-1.692168415E-3,1.804228920E-3
8.967073208E0,-1.362787094E-3,-3.361739218E-4,-1.171709970E-3,1.828416206E-3
8.977030208E0,-5.297504831E-4,8.228337392E-4,-7.454639301E-3,7.518599473E-3
8.986987208E0,3.891204949E-3,-1.354449429E-3,-6.396191195E-3,7.608368486E-3
8.996944208E0,1.950825797E-3,-4.476429895E-4,-2.399053425E-3,3.124349992E-3
9.006901208E0,-1.650874503E-3,1.334630884E-3,-3.821007907E-3,4.371124300E-3
9.016858208E0,8.423768450E-4,3.780238330E-4,8.954498917E-4,1.286208100E-3
9.026814208E0,-1.533799921E-3,-2.096155658E-3,-3.837741911E-3,4.634077440E-3
9.036771208E0,-1.405435498E-3,2.266531810E-4,-3.076877445E-3,3.390250052E-3
9.046728208E0,-1.780863735E-3,4.570297897E-4,-3.200298175E-3,3.690834632E-3
9.056685208E0,1.555207418E-4,-2.166183665E-3,-4.338532686E-3,4.851742392E-3
9.066642208E0,-1.821353799E-4,2.158853225E-3,-4.972597584E-3,5.424071098E-3
9.076599208E0,-1.002921606E-3,1.790804788E-3,-5.995783955E-3,6.337370020E-3
9.086556208E0,2.357998630E-3,2.821801230E-3,-4.229184240E-3,5.604348228E-3
9.096513208E0,-1.489203889E-3,2.992553636E-4,-1.733003184E-3,2.304470011E-3
9.106470208E0,-1.671508653E-3,-7.757917047E-7,-4.844460636E-5,1.672210710E-3
9.116427208E0,-4.054417368E-4,-5.267504603E-4,-3.869548440E-3,3.926226455E-3
9.126383208E0,-5.317889154E-4,-8.566491306E-5,-1.647345722E-3,1.733172194E-3
9.136340208E0,6.968504749E-6,-1.874776557E-3,-4.746465012E-3,5.103309300E-3
9.146297208E0,2.080890816E-3,-7.003778592E-4,-2.992040478E-3,3.711191447E-3
9.156254208E0,-1.825297950E-4,-3.058074042E-3,-4.535608925E-3,5.473288070E-3
9.166211208E0,-8.687989321E-4,5.440767854E-4,-2.974590287E-3,3.146270571E-3
9.176168208E0,-5.540132988E-4,-3.382284194E-4,-2.935707569E-3,3.006610738E-3
9.186125208E0,8.233143599E-4,-2.087850124E-3,-3.133867867E-3,3.854619629E-3
9.196082208E0,6.952163531E-4,-1.031640917E-3,-2.876873128E-3,3.134327321E-3
9.206039208E0,1.598363975E-3,-1.261475496E-3,-4.983711988E-3,5.383630095E-3
9.215996208E0,-3.183130175E-4,-1.247094944E-3,-5.061475560E-3,5.222557211E-3
9.225952208E0,2.174660796E-3,-2.145926468E-3,-4.826003686E-3,5.711782695E-3
9.235909208E0,-1.425555674E-4,-7.059555501E-4,-2.365509048E-3,2.472716802E-3
9.245866208E0,1.207079273E-3,-5.771005526E-4,-3.312619403E-3,3.572608673E-3
9.255823208E0,-1.157128718E-4,-1.808013767E-3,-3.436990082E-3,3.885254699E-3
9.265780208E0,-4.743188620E-4,7.993550971E-4,-1.146597788E-3,1.476019458E-3
9.275737208E0,5.800266517E-4,4.619322717E-4,-4.776120186E-4,8.820008961E-4
9.285694208E0,-1.059196657E-3,1.439617015E-3,-4.747154191E-3,5.072461693E-3
9.295651208E0,-7.153826300E-4,-3.123709001E-3,-7.769310847E-3,8.404256140E-3
9.305608208E0,-1.177869271E-3,2.651009709E-4,-6.619222462E-3,6.728429278E-3
9.315565208E0,-1.183195738E-3,-6.805881858E-4,-1.943245530E-3,2.374732748E-3
9.325522208E0,-1.080001588E-3,-3.330485895E-3,-2.981924452E-3,4.598957835E-3
9.335478208E0,-5.468470044E-5,6.695818156E-4,-3.171646968E-4,7.429156541E-4
9.345435208E0,-9.553958662E-4,5.663298070E-4,-7.654521614E-4,1.348861640E-3
9.355392208E0,-6.960041355E-4,1.019333489E-3,-1.818466932E-3,2.197790823E-3
9.365349208E0,-1.605328172E-3,-1.098348759E-3,-4.297815263E-3,4.717484984E-3
9.375306208E0,9.001738508E-4,1.933660358E-3,-3.894878551E-3,4.440656964E-3
9.385263208E0,-1.672692830E-3,-1.252037473E-3,-4.316745326E-3,4.795809561E-3
9.395220208E0,4.826033255E-4,6.787544116E-4,-2.291411161E-3,2.438068627E-3
9.405177208E0,3.334459383E-3,9.580049664E-5,4.914999008E-4,3.371849532E-3
9.415134208E0,1.110719983E-3,-3.841016442E-4,-3.636414185E-4,1.230230886E-3
9.425091208E0,-2.165953396E-3,-1.610201783E-3,-1.555420458E-3,3.115033980E-3
9.435047208E0,4.274330568E-4,1.219185069E-4,-5.333647132E-3,5.352135543E-3
9.445004208E0,-3.294688649E-4,-5.820384249E-4,-4.176663235E-3,4.229874022E-3
9.454961208E0,2.385091269E-3,-1.129584387E-3,-7.194025442E-3,7.662807795E-3
9.464918208E0,2.232523402E-4,6.531700492E-4,-3.703960218E-3,3.767730619E-3
9.474875208E0,1.167259179E-4,5.181478336E-4,-3.248027526E-3,3.291167715E-3
9.484832208E0,6.129887188E-4,6.424803287E-4,1.320837997E-3,1.591586993E-3
9.494789208E0,-3.073997796E-4,4.555266351E-4,-1.734340563E-3,1.819323042E-3
9.504746208E0,1.689672237E-3,7.490115240E-4,-4.837668501E-3,5.178710945E-3
9.514703208E0,-6.840033457E-4,-1.138523221E-4,-4.655509256E-3,4.706866193E-3
9.524660208E0,-7.959140930E-5,-4.872838035E-4,-4.814749584E-3,4.839999365E-3
9.534616208E0,-1.746996655E-3,6.778491661E-4,-5.064554513E-3,5.400110111E-3
9.544573208E0,-1.133154146E-4,-3.246363252E-3,-1.749543473E-3,3.689528034E-3
9.554530208E0,-2.193776891E-3,-1.978698187E-3,-3.698710352E-3,4.733747123E-3
9.564487208E0,3.383541480E-5,4.726983607E-4,-3.503424115E-3,3.535331542E-3
9.574444208E0,7.867109962E-4,4.497952759E-4,-2.774517052E-3,2.918762555E-3
9.584401208E0,1.328375773E-3,1.664482988E-3,-4.720223136E-3,5.178377378E-3
9.594358208E0,-2.333018929E-4,8.064126596E-4,-6.069912575E-3,6.127688783E-3
9.604315208E0,-1.891043619E-3,-2.556331456E-4,-4.928490147E-3,5.285017446E-3
9.614272208E0,3.473361954E-3,-4.822677001E-4,-1.577435061E-3,3.845143271E-3
9.624229208E0,6.183935329E-5,-5.151825026E-4,-1.187037677E-3,1.295490472E-3
9.634185208E0,1.066650031E-3,3.175884485E-4,-3.548711538E-5,1.113491826E-3
9.644142208E0,-3.127926029E-4,8.180439472E-4,2.518892288E-4,9.113085622E-4
9.654099208E0,2.278290922E-4,-1.919419505E-3,-4.370559007E-3,4.778897714E-3
9.664056208E0,-1.769806375E-3,3.418279812E-4,-4.663970321E-3,5.000168010E-3
9.674013208E0,-7.213199278E-4,-8.880533278E-5,-6.220854819E-3,6.263164017E-3
9.683970208E0,5.773687735E-4,4.763863981E-4,-3.471413627E-3,3.551198568E-3
9.693927208E0,9.201175999E-4,3.283144906E-4,-2.159807831E-3,2.370480261E-3
9.703884208E0,2.753773937E-3,-4.428569227E-4,-1.041729003E-3,2.977346548E-3
9.713841208E0,2.361224033E-3,-8.647013456E-4,-3.872137517E-3,4.616983463E-3
9.723798208E0,1.864044229E-3,1.528561115E-4,-3.586154431E-3,4.044567898E-3
9.733755208E0,6.967807421E-4,-7.960284129E-4,-4.588035867E-3,4.708422002E-3
9.743711208E0,2.304383088E-3,-5.490453914E-4,-3.414431587E-3,4.155715982E-3
9.753668208E0,8.255298599E-4,-8.779456839E-4,-2.551034093E-3,2.821358381E-3
9.763625208E0,1.266986597E-3,-6.174203008E-5,-2.906620502E-3,3.171357732E-3
9.773582208E0,1.121311681E-3,3.598360345E-4,-1.645879820E-3,2.023794021E-3
9.783539208E0,6.160184275E-4,-6.046919152E-4,-3.844767809E-3,3.940478463E-3
9.793496208E0,2.307658317E-3,2.378314734E-3,-5.661310628E-3,6.559886120E-3
9.803453208E0,-5.318187177E-4,6.604976952E-4,-4.984810017E-3,5.056423564E-3
9.813410208E0,3.306062892E-3,-2.068443224E-3,-5.470571108E-3,6.718307634E-3
9.823367208E0,-1.400203444E-3,2.022688277E-3,-2.491624095E-3,3.501432304E-3
9.833324208E0,5.601493176E-4,7.949704304E-4,5.070948973E-4,1.096763638E-3
9.843280208E0,3.306273371E-3,9.460067376E-4,-1.382289454E-3,3.706358926E-3
9.853237208E0,-1.794212963E-3,-3.264451399E-3,-1.987891272E-3,4.222268917E-3
9.863194208E0,7.611366455E-4,6.664330140E-4,-4.143763334E-3,4.265470258E-3
9.873151208E0,6.602028152E-4,-1.152046025E-4,-3.594620153E-3,3.656560393E-3
9.883108208E0,-1.496202196E-3,8.441023529E-4,-3.897953779E-3,4.259715184E-3
9.893065208E0,1.109967241E-3,-6.150435656E-4,-1.635598019E-3,2.070141720E-3
9.903022208E0,-1.565520186E-3,-9.399559349E-4,-3.402929753E-3,3.861903872E-3
9.912979208E0,1.632936182E-3,-1.989241689E-3,-7.181977853E-4,2.671960167E-3
9.922936208E0,-1.202328131E-3,-8.755270392E-5,-3.071718849E-3,3.299805312E-3
9.932893208E0,6.347204326E-4,-1.007408835E-3,-2.872248180E-3,3.109268756E-3
9.942850208E0,2.496860689E-4,1.987610012E-3,-3.536753356E-3,4.064672311E-3
9.952806208E0,-3.212956944E-4,4.096869379E-4,-2.633940428E-3,2.684905304E-3
9.962763208E0,-4.435589071E-4,8.526360616E-4,-3.695365973E-3,3.818306225E-3
9.972720208E0,5.042600678E-4,1.604179852E-3,-4.292978905E-3,4.610568196E-3
9.982677208E0,-3.521200269E-4,-8.565671742E-4,-3.690436482E-3,3.804867576E-3
9.992634458E0,-1.430618577E-4,-5.652178079E-4,-4.483258352E-3,4.521011315E-3
1.000259146E1,-7.876980817E-4,-6.711604074E-4,7.623946294E-4,1.285367703E-3
1.001254846E1,2.577472245E-3,-2.010197379E-3,-2.768956125E-3,4.283850452E-3
1.002250546E1,4.487798549E-3,1.930377446E-3,-3.472961485E-3,5.994009875E-3
1.003246246E1,-2.326543909E-4,-9.860498831E-4,-5.408545956E-3,5.502616813E-3
1.004241946E1,7.631748449E-4,1.418497413E-3,-4.065396264E-3,4.372872916E-3
1.005237546E1,8.491949993E-4,2.999696881E-4,-4.443563521E-3,4.533913401E-3
1.006233246E1,-1.150282449E-3,-1.010485925E-3,-2.369079739E-4,1.549308525E-3
1.007228946E1,1.050820109E-3,8.358834311E-4,-1.501910388E-3,2.014611334E-3
1.008224646E1,-2.701028716E-4,2.468448132E-3,-3.371665254E-3,4.187399949E-3
1.009220346E1,7.663995493E-4,-8.184248582E-4,-4.301374778E-3,4.445111078E-3
1.010216046E1,-1.613607164E-4,-1.618886366E-3,-5.671684630E-3,5.900409892E-3
1.011211746E1,-3.149960190E-3,6.226962432E-4,-3.353935666E-3,4.643154560E-3
1.012207446E1,1.006213133E-3,-8.631497622E-5,-4.377763718E-3,4.492741960E-3
1.013203146E1,-1.593298279E-3,-7.574316114E-4,-2.861892805E-3,3.361953669E-3
1.014198846E1,-3.687676508E-4,-5.151638761E-4,-2.356907353E-3,2.440572816E-3
1.015194546E1,5.303154467E-4,-5.186265334E-4,-3.478631377E-3,3.556836265E-3
1.016190146E1,-2.618015278E-4,-2.188578248E-3,-4.490800202E-3,5.002569464E-3
1.017185846E1,-5.171988159E-4,-1.195687801E-4,-3.823678941E-3,3.860351273E-3
1.018181546E1,-1.253571012E-3,1.220435835E-3,-2.203209326E-3,2.813367243E-3
1.019177246E1,4.718910204E-4,9.088460356E-4,1.994939521E-4,1.043302491E-3
1.020172946E1,5.862796679E-4,5.230559036E-4,-1.537716016E-3,1.726812634E-3
1.021168646E1,7.023934741E-4,-6.894813851E-4,-3.418972716E-3,3.557824561E-3
1.022164346E1,9.742070688E-4,9.877821431E-4,-6.265416741E-3,6.417183176E-3
1.023160046E1,1.586201484E-3,8.029583842E-4,-4.363920540E-3,4.712173574E-3
1.024155746E1,-1.321873046E-3,1.456979662E-3,-3.299186938E-3,3.841194155E-3
1.025151446E1,1.894426649E-3,-4.212358035E-3,-4.549541511E-3,6.483142795E-3
1.026147046E1,9.374372312E-4,-1.600235701E-4,2.300394699E-4,9.784243778E-4
1.027142746E1,-1.174715697E-3,9.784772992E-4,-1.454941928E-3,2.110504871E-3
1.028138446E1,-1.122616930E-3,2.008351497E-3,-4.968810827E-4,2.353855416E-3
1.029134146E1,3.748786403E-4,-1.980264671E-3,-2.179466188E-3,2.968510574E-3
1.030129846E1,-7.675806992E-4,6.770687178E-4,-3.771748394E-3,3.908156615E-3
1.031125546E1,5.986208562E-4,-1.032680273E-3,-4.521427676E-3,4.676332292E-3
1.032121246E1,-3.006889019E-4,-1.960350201E-4,-3.822816536E-3,3.839631468E-3
1.033116946E1,1.089481171E-3,4.791002721E-5,-2.127980813E-3,2.391143437E-3
1.034112646E1,-9.047449566E-5,1.339085400E-3,-3.056902438E-3,3.338560747E-3
1.035108346E1,-8.593291277E-4,-2.723932266E-4,-1.021448523E-3,1.362351535E-3
1.036104046E1,-9.566938970E-4,7.287971675E-4,-7.485896349E-4,1.416613908E-3
1.037099646E1,-8.070240729E-4,1.120282337E-3,-1.680163667E-3,2.174688556E-3
1.038095346E1,-1.923012547E-3,-1.858870499E-3,-3.360621631E-3,4.295015080E-3
1.039091046E1,6.253662286E-4,1.181661151E-3,-4.050379619E-3,4.265323089E-3
1.040086746E1,1.056578476E-3,-1.533310860E-3,-2.257602289E-3,2.926460040E-3
1.041082446E1,-7.899338380E-5,1.421466470E-3,-2.815801650E-3,3.155241007E-3
1.042078146E1,-8.394155884E-4,1.492043957E-4,-1.370187849E-3,1.613782892E-3
1.043073846E1,-1.877400791E-4,5.572009832E-4,-3.952030092E-4,7.084523212E-4
1.044069546E1,-1.106157433E-4,-5.567278713E-4,-2.312658355E-3,2.381295956E-3
1.045065246E1,1.188961323E-5,-4.874859005E-4,-2.520386130E-3,2.567124872E-3
1.046060946E1,-1.461250475E-3,-2.821228467E-3,-2.632199787E-3,4.125900960E-3
1.047056546E1,1.604846795E-3,5.942760035E-4,-3.951529972E-3,4.306191627E-3
1.048052246E1,-7.001822814E-5,-1.939514652E-3,-2.443660051E-3,3.120591944E-3
1.049047946E1,1.266089734E-3,-1.561611891E-3,-2.612238750E-3,3.296271560E-3
1.050043646E1,3.785622539E-4,8.990075439E-4,-2.664229833E-3,2.837189550E-3
1.051039346E1,2.954638097E-3,9.469445795E-4,-2.083129250E-3,3.737113564E-3
1.052035046E1,-1.739683677E-3,7.795598358E-4,-1.712672412E-3,2.562705529E-3
1.053030746E1,2.020166954E-3,-5.837129429E-4,-1.915872097E-3,2.844707580E-3
1.054026446E1,-1.844822662E-3,4.010405391E-4,-2.539290115E-3,3.164205818E-3
1.055022146E1,1.908103935E-3,-5.957810208E-4,-3.311073408E-3,3.867689590E-3
1.056017846E1,1.655322732E-3,-9.694611654E-4,-2.471709624E-3,3.128785190E-3
1.057013546E1,-3.480583197E-3,-1.068264246E-3,-1.003775746E-3,3.776667001E-3
1.058009146E1,6.801005220E-4,5.433373153E-4,-1.744054258E-3,1.949224824E-3
1.059004846E1,8.124596789E-4,2.009673975E-3,-4.009339958E-3,4.557816047E-3
1.060000546E1,-1.261084923E-3,2.049489878E-3,-1.328792423E-3,2.748896732E-3
1.060996246E1,8.114823140E-5,-8.110115305E-4,-3.565847874E-3,3.657812980E-3
1.061991946E1,-1.847312320E-3,-1.471862197E-5,-7.448773831E-4,1.991888993E-3
1.062987646E1,-9.631428402E-4,-1.777465455E-3,-9.235758334E-4,2.222615553E-3
1.063983346E1,-1.442914247E-3,-1.037839800E-3,-2.083420753E-3,2.738568058E-3
1.064979046E1,1.919326605E-3,2.255635336E-4,-3.227515146E-3,3.761854269E-3
1.065974746E1,6.027987693E-4,-1.645859331E-3,-3.264481202E-3,3.705274188E-3
1.066970446E1,4.944081884E-4,-1.425044611E-4,-2.919601277E-3,2.964594170E-3
1.067966146E1,2.379809273E-3,-5.065910518E-4,-1.234140247E-3,2.728228147E-3
1.068961746E1,-1.204272732E-3,1.251110807E-4,-1.883419231E-3,2.239016211E-3
1.069957446E1,1.055770554E-4,6.989827380E-4,-2.078795806E-3,2.195703847E-3
1.070953146E1,-1.345845754E-3,-3.774669021E-4,-3.069937229E-4,1.431093010E-3
1.071948846E1,-2.227282617E-3,-4.618987441E-5,-8.273711428E-4,2.376439431E-3
1.072944546E1,-9.207357652E-4,-1.106927171E-3,-3.819164820E-3,4.081551425E-3
1.073940246E1,-1.889626030E-3,-1.611299813E-4,-3.726506606E-3,4.181327646E-3
1.074935946E1,-2.206808655E-3,1.345419325E-3,-5.969686434E-3,6.505175917E-3
1.075931646E1,1.197141362E-3,1.929001883E-4,-9.560491890E-4,1.544146358E-3
1.076927346E1,1.170243486E-3,-1.093689352E-4,-1.167770475E-3,1.656840144E-3
1.077923046E1,2.563487040E-3,-1.664411277E-3,-6.682407111E-4,3.128622117E-3
1.078918646E1,-7.625347935E-4,-1.919542439E-3,-1.837367192E-3,2.764420497E-3
1.079914346E1,4.486251855E-4,1.028615050E-3,-4.800834693E-3,4.930246163E-3
1.080910046E1,9.556910372E-4,-1.364502124E-3,-4.396832548E-3,4.701845155E-3
1.081905746E1,-1.727028750E-3,2.014743164E-3,-1.882684417E-3,3.253662388E-3
1.082901446E1,-1.672167564E-3,-8.763838559E-4,-2.601205371E-3,3.214103671E-3
1.083897146E1,2.130032517E-3,-7.944824174E-4,6.573265418E-4,2.366499317E-3
1.084892846E1,-3.315273207E-4,6.513474509E-4,-1.635922119E-3,1.791760320E-3
1.085888546E1,-7.472893922E-4,1.696320251E-3,-3.170464188E-4,1.880548393E-3
1.086884246E1,1.643106807E-4,2.215902321E-3,-4.966659471E-3,5.441041022E-3
1.087879946E1,-1.242664875E-4,5.834661424E-4,-3.001900390E-3,3.060601387E-3
1.088875646E1,-1.352250110E-3,1.413839869E-3,-3.970490769E-3,4.426321326E-3
1.089871246E1,-4.603362177E-4,-1.180883497E-3,-1.121316105E-3,1.692260345E-3
1.090866946E1,1.133299433E-3,5.986411124E-4,-7.183793932E-4,1.469288174E-3
1.091862646E1,-1.709310920E-3,3.137458116E-4,-9.253621101E-6,1.737891218E-3
1.092858346E1,9.168321849E-4,-1.251926646E-3,-6.822347641E-4,1.695094645E-3
1.093854046E1,-3.434973769E-4,9.959144518E-4,-1.447238028E-3,1.790065349E-3
1.094849746E1,8.772957372E-4,-1.654730178E-3,-2.385471016E-3,3.032861972E-3
1.095845446E1,1.673653838E-3,1.855338924E-3,-2.561870962E-3,3.578628581E-3
1.096841146E1,1.561801066E-3,-1.591057517E-3,-7.820799947E-4,2.362696703E-3
1.097836846E1,3.210114781E-3,-1.265523955E-3,2.832375467E-4,3.462168583E-3
1.098832496E1,1.028985949E-3,-1.756660640E-5,-1.861672848E-3,2.127192155E-3
1.099828196E1,5.206910428E-4,-1.411465928E-4,-4.053972661E-4,6.748247669E-4
1.100823796E1,-2.578960266E-5,2.042111941E-3,-2.318613231E-3,3.089798310E-3
1.101819496E1,5.363490200E-4,5.527315661E-4,-3.526153043E-3,3.609284934E-3
1.102815196E1,-7.749915821E-4,7.223747671E-4,-1.622259617E-3,1.937566391E-3
1.103810896E1,-6.661835359E-4,-7.492303848E-4,-2.409050241E-3,2.609342779E-3
1.104806596E1,3.346323501E-4,-1.801445149E-3,-1.642325893E-3,2.460572651E-3
1.105802296E1,-5.268191453E-4,3.380235285E-4,-2.159669995E-3,2.248549045E-3
1.106797996E1,2.262309426E-3,1.541771926E-3,4.454348236E-4,2.773718947E-3
1.107793696E1,4.756459966E-4,-2.053700387E-3,-2.835536376E-3,3.533297459E-3
1.108789396E1,-1.870598877E-3,-6.685899571E-4,-4.891229793E-3,5.279231154E-3
1.109785096E1,-2.206929494E-3,-5.012722686E-4,-1.659274101E-3,2.806243436E-3
1.110780796E1,-4.564337432E-4,1.280382276E-3,-1.512266695E-3,2.033386607E-3
1.111776396E1,5.970178172E-4,-1.102193259E-3,-3.953389823E-3,4.147354741E-3
1.112772096E1,2.998090349E-4,7.034298033E-4,-2.313680947E-3,2.436763934E-3
1.113767796E1,-1.060779323E-3,1.448096707E-3,-4.516392946E-4,1.851003754E-3
1.114763496E1,3.573538270E-4,1.075521111E-3,-5.707655102E-3,5.819087057E-3
1.115759196E1,-2.929146867E-4,1.949246973E-3,-4.574138671E-3,4.980773771E-3
1.116754896E1,-4.827980883E-4,2.336390316E-4,-3.457209095E-3,3.498567696E-3
1.117750596E1,2.637113677E-3,-5.753943697E-4,-1.377828419E-3,3.030488142E-3
1.118746296E1,-2.340401988E-4,-2.904357389E-4,-3.002356738E-3,3.025437772E-3
1.119741996E1,-2.458689734E-3,7.885172963E-4,-1.222999766E-3,2.857033980E-3
1.120737696E1,-2.155089751E-4,2.079475671E-4,-3.563119099E-3,3.575682315E-3
1.121733396E1,5.906014703E-4,-1.145344228E-3,-3.112019971E-3,3.368277274E-3
1.122728996E1,2.101945458E-3,-1.514526084E-4,-7.531004027E-3,7.820302695E-3
1.123724696E1,3.565752646E-3,-5.875341594E-5,-4.187783226E-3,5.500506545E-3
1.124720396E1,1.240280457E-3,1.650996506E-3,-4.360355437E-3,4.824602016E-3
1.125716096E1,1.327643637E-3,-2.094753087E-3,5.406141281E-5,2.480635152E-3
1.126711796E1,-1.243105857E-3,5.444400012E-4,1.677684486E-5,1.357206155E-3
1.127707496E1,4.320509033E-4,9.852675721E-4,-3.502050415E-3,3.663574386E-3
1.128703196E1,-4.675649107E-4,4.395861179E-4,-2.401100472E-3,2.485384553E-3
1.129698896E1,-9.675554466E-4,9.874403477E-4,-1.536289230E-3,2.066733311E-3
1.130694596E1,-2.751606982E-3,2.706244588E-3,-2.800758928E-3,4.768579592E-3
1.131690296E1,-2.978698816E-3,2.920413390E-3,-7.625985891E-4,4.240638821E-3
1.132685996E1,4.764865153E-4,-2.114642411E-4,-7.602013648E-4,9.217714681E-4
1.133681596E1,-3.314006608E-4,-7.704487070E-4,-1.919599250E-3,2.094821923E-3
1.134677296E1,1.619098475E-3,3.928197548E-4,-1.749688759E-3,2.416029385E-3
1.135672996E1,8.985191816E-4,-1.567696221E-3,-3.239260986E-3,3.709153529E-3
1.136668696E1,-9.803409921E-4,-6.752712652E-4,-2.563351765E-3,2.826275290E-3
1.137664396E1,1.637498382E-3,-1.209650189E-3,-2.705194056E-4,2.053736906E-3
1.138660096E1,-4.588568117E-5,8.881222457E-4,-9.341910481E-5,8.942000605E-4
1.139655796E1,1.126501476E-3,3.717765212E-4,-2.431878820E-3,2.705782318E-3
1.140651496E1,1.192940399E-4,3.217086196E-4,-3.477968276E-3,3.494852047E-3
1.141647196E1,2.072997158E-3,-8.035637438E-5,-7.101707160E-4,2.192741848E-3
1.142642896E1,-3.803068539E-4,-2.070270479E-3,-3.142969683E-3,3.782712200E-3
1.143638596E1,1.260989462E-3,3.665629774E-4,-2.617223188E-3,2.928193992E-3
1.144634196E1,2.315601334E-3,-1.568489708E-3,-6.534084678E-4,2.872126760E-3
1.145629896E1,-5.913962377E-4,1.273184083E-3,-2.051483840E-3,2.485826455E-3
1.146625596E1,-5.474538775E-4,6.569279358E-4,-4.070425406E-3,4.159281554E-3
1.147621296E1,1.961713424E-3,-2.605037764E-3,-3.146955743E-3,4.531872875E-3
1.148616996E1,-2.548355842E-4,-3.165835515E-4,-2.571711317E-3,2.603625437E-3
1.149612696E1,2.134176902E-3,-7.571000606E-5,-1.438932493E-3,2.575066946E-3
1.150608396E1,-3.465577029E-4,1.723522320E-3,-1.185400411E-3,2.120331475E-3
1.151604096E1,2.251851838E-3,8.509289473E-4,-2.532649785E-3,3.494171105E-3
1.152599796E1,5.591466324E-4,6.775576621E-4,-2.808019519E-3,2.942227551E-3
1.153595496E1,1.517486526E-4,-1.010552980E-3,-4.229901358E-3,4.351587122E-3
1.154591196E1,-2.489574254E-3,1.837165095E-3,-1.622665673E-3,3.493737174E-3
1.155586796E1,-5.739231128E-4,-4.440639168E-4,-2.409059554E-3,2.515978624E-3
1.156582496E1,-2.892313059E-4,1.476873644E-3,-1.815974712E-3,2.358511112E-3
1.157578196E1,3.081124742E-3,9.161662310E-4,-3.208685666E-4,3.230425185E-3
1.158573896E1,1.705560135E-4,8.711591363E-4,-3.149410710E-3,3.272123991E-3
1.159569596E1,-1.211056253E-3,3.531537950E-4,1.155082136E-3,1.710435498E-3
1.160565296E1,3.189018462E-3,-1.403467730E-3,-2.615153790E-3,4.356442328E-3
1.161560996E1,-5.534652155E-5,-2.256035805E-4,-1.008842140E-3,1.035240396E-3
1.162556696E1,-2.782689873E-3,-1.371561550E-3,-4.776682705E-3,5.695721348E-3
1.163552396E1,1.553289825E-3,8.359840140E-4,-4.319027066E-4,1.816072273E-3
1.164548096E1,1.743050525E-4,2.980260178E-4,-3.937421367E-3,3.952529415E-3
1.165543796E1,-1.832301030E-3,1.162886620E-4,-5.462206900E-5,1.836799850E-3
1.166539396E1,3.011573572E-4,6.254855543E-4,6.428603083E-4,9.461486714E-4
1.167535096E1,2.359034959E-3,2.327645198E-4,-1.767197624E-3,2.956723305E-3
1.168530796E1,-2.820220543E-4,1.479656436E-3,-9.770374745E-4,1.795416897E-3
1.169526496E1,-1.144133043E-3,-1.015691087E-4,-1.938346773E-3,2.253118931E-3
1.170522196E1,1.004771795E-3,-8.445912972E-4,-1.261372119E-3,1.820428643E-3
1.171517896E1,-5.104349693E-4,-7.238714024E-4,-2.417219803E-3,2.574390266E-3
1.172513596E1,-1.155985170E-3,4.814751446E-4,-3.008060157E-4,1.287868117E-3
1.173509296E1,7.953224704E-4,-2.484397031E-3,9.706318378E-4,2.783324021E-3
1.174504996E1,4.421873018E-4,-8.004810661E-4,9.285537526E-4,1.303269588E-3
1.175500696E1,-1.784989494E-3,-6.875107065E-4,-2.809733152E-3,3.399037930E-3
1.176496396E1,4.632510245E-4,-4.222597927E-4,-3.061400726E-3,3.124912679E-3
1.177491996E1,1.126407413E-3,1.841247082E-3,-2.686902881E-3,3.446510056E-3
1.178487696E1,-1.662188675E-3,-5.971435457E-4,-3.932995722E-3,4.311369499E-3
1.179483396E1,-5.885938881E-4,-1.779416576E-3,-8.940082043E-4,2.076539618E-3
1.180479096E1,1.006639679E-3,-7.389197126E-4,1.051963307E-3,1.632774505E-3
1.181474796E1,-2.228575759E-4,1.152936369E-3,-8.659232408E-4,1.459023930E-3
1.182470496E1,-2.864446957E-3,-3.855722025E-4,-1.428648829E-3,3.224090534E-3
1.183466196E1,-2.784898737E-3,2.385815606E-4,-3.408778459E-3,4.408214233E-3
1.184461896E1,1.437543076E-3,-7.427930832E-4,-4.569383338E-3,4.847425683E-3
1.185457596E1,5.437260261E-4,1.877265982E-3,-4.163799807E-3,4.599673292E-3
1.186453296E1,-4.227351164E-4,4.540719092E-4,-1.195240766E-4,6.318008248E-4
1.187448996E1,-1.884996891E-3,-3.506215289E-4,-2.347122878E-3,3.030698688E-3
1.188444696E1,9.494054830E-4,7.777595893E-4,-5.489550531E-4,1.344482205E-3
1.189440296E1,8.758652839E-4,-1.921352930E-3,-2.838959917E-3,3.538139411E-3
1.190435996E1,1.352837426E-3,9.679049253E-5,-4.539120942E-3,4.737420863E-3
1.191431696E1,-7.358673029E-4,3.293156624E-5,-3.991506994E-3,4.058905426E-3
1.192427396E1,1.140862238E-3,-1.708243042E-3,-1.892402768E-3,2.793000031E-3
1.193423096E1,1.762339147E-3,1.863341779E-3,-1.475496218E-3,2.958880014E-3
1.194418796E1,-8.416996570E-4,1.037496142E-3,-1.601995900E-3,2.085964387E-3
1.195414496E1,-1.594129950E-3,4.835007712E-4,-1.298157498E-3,2.111927125E-3
1.196410196E1,-2.669780748E-3,1.169264317E-3,-4.232162610E-3,5.138687443E-3
1.197405896E1,-1.323733712E-3,2.540871501E-3,-2.839155495E-3,4.033497595E-3
1.198401596E1,-8.984268643E-4,2.878718078E-6,-1.788271591E-3,2.001273195E-3
1.199397371E1,-5.830290029E-4,-6.759306416E-4,1.932687126E-3,2.128869319E-3
1.200392971E1,5.232479889E-4,2.966560423E-4,1.686085016E-4,6.246775905E-4
1.201388671E1,3.494729754E-5,7.614949718E-4,-1.333612949E-3,1.536105271E-3
1.202384371E1,4.826246295E-4,-9.937947616E-4,-7.897950709E-4,1.358061418E-3
1.203380071E1,-4.106439883E-4,6.928145885E-4,-2.944326028E-3,3.052486904E-3
1.204375771E1,-8.282276103E-4,7.895659655E-5,-3.365371376E-3,3.466687124E-3
1.205371471E1,-2.419787925E-4,8.850088343E-4,-2.929493785E-4,9.631270483E-4
1.206367171E1,1.150321914E-3,-1.164026558E-3,-7.837712765E-4,1.814523560E-3
1.207362871E1,2.034251811E-3,1.183132641E-3,-2.987477928E-4,2.372179066E-3
1.208358571E1,7.261070423E-4,-6.203604862E-4,-3.141937777E-3,3.283877520E-3
1.209354271E1,-1.321185846E-4,4.315758124E-4,-3.090290353E-3,3.123076603E-3
1.210349971E1,-1.666898257E-3,-9.146984667E-5,-2.425830811E-3,2.944753242E-3
1.211345571E1,9.957036236E-4,4.050796852E-4,-1.182641834E-3,1.598173008E-3
1.212341271E1,1.229262911E-3,-1.275375485E-3,1.316202804E-3,2.206821188E-3
1.213336971E1,1.133326441E-4,2.895906568E-3,-1.426320523E-4,2.901631100E-3
1.214332671E1,-1.448078547E-3,1.682303846E-3,3.148987889E-4,2.241927509E-3
1.215328371E1,1.113835024E-3,5.818735808E-4,-3.253862262E-3,3.488097611E-3
1.216324071E1,1.090243459E-4,-1.802721061E-3,-3.934565932E-3,4.329260745E-3
1.217319771E1,-2.808873542E-4,-7.017562166E-4,-6.032496691E-3,6.079669055E-3
1.218315471E1,-3.164025256E-3,-3.699269146E-4,-1.300325617E-3,3.440748241E-3
1.219311171E1,1.147558796E-3,-3.072759137E-3,7.117446512E-4,3.356385012E-3
1.220306871E1,1.778195379E-3,-9.393002838E-4,9.152106941E-4,2.209496423E-3
1.221302571E1,1.245339285E-3,5.847094581E-4,4.324602894E-3,4.538165409E-3
1.222298171E1,-7.565589622E-4,1.574339345E-3,9.631607682E-4,1.994643954E-3
1.223293871E1,-1.487337286E-3,1.715524122E-4,-3.332184628E-3,3.653088669E-3
1.224289571E1,1.922041643E-3,1.854011789E-4,-7.153287530E-3,7.409327916E-3
1.225285271E1,2.278210362E-3,-1.990556717E-3,-3.159943968E-3,4.374677632E-3
1.226280971E1,8.116075769E-4,7.250690833E-4,-1.676157117E-4,1.101148065E-3
1.227276671E1,-5.026930012E-6,1.850689761E-3,1.261929981E-3,2.239987755E-3
1.228272371E1,1.237337710E-3,-1.993848942E-3,-4.475526512E-4,2.388878731E-3
1.229268071E1,-6.344137946E-4,1.871474087E-4,4.425333813E-3,4.474492638E-3
1.230263771E1,2.281840425E-4,9.032720700E-4,-2.056000754E-3,2.257234479E-3
1.231259471E1,3.883172758E-5,-1.467459835E-3,-6.544794887E-3,6.707405339E-3
1.232255171E1,-5.481290864E-4,2.817045897E-4,-4.484040663E-3,4.526193062E-3
1.233250871E1,-1.453135046E-3,1.326370053E-3,-2.697695047E-3,3.338924609E-3
1.234246471E1,9.203096852E-5,-2.145859413E-3,7.487013936E-4,2.274584818E-3
1.235242171E1,3.257743083E-5,1.915190369E-4,1.995521598E-3,2.004955680E-3
1.236237871E1,6.035591941E-4,7.257489488E-4,2.101515420E-3,2.303771320E-3
1.237233571E1,2.364733256E-3,-1.273865812E-3,-1.631006598E-4,2.690966240E-3
1.238229271E1,1.223035972E-3,4.173535854E-5,-4.680620506E-3,4.837950718E-3
1.239224971E1,-1.348638209E-3,4.379060119E-4,-4.261607304E-3,4.491312003E-3
1.240220671E1,-2.303768415E-4,7.963674143E-4,-5.016611889E-3,5.084650371E-3
1.241216371E1,1.866654726E-3,-9.966436774E-4,6.923265755E-4,2.226435396E-3
1.242212071E1,8.887419826E-4,8.396059275E-4,6.318725646E-4,1.376249746E-3
1.243207771E1,1.511852024E-3,1.919008791E-4,1.165688969E-3,1.918685295E-3
1.244203471E1,5.733539583E-4,-1.441892236E-4,-1.082018018E-3,1.232999710E-3
1.245199071E1,9.727244615E-4,-1.976905391E-3,-7.008077577E-3,7.346257491E-3
1.246194771E1,-1.122118090E-3,-1.020831056E-3,-5.152918398E-3,5.371574543E-3
1.247190471E1,-2.445980441E-3,-1.357310452E-3,-3.666142002E-3,4.611475811E-3
1.248186171E1,-9.937585564E-4,8.479040116E-5,-2.724980935E-3,2.901769560E-3
1.249181871E1,-3.378465772E-4,-7.993485779E-4,8.603837341E-4,1.222030535E-3
1.250177571E1,2.256783191E-4,5.452809855E-4,2.267863601E-3,2.343388011E-3
1.251173271E1,6.248148857E-4,-1.615022309E-3,4.772394896E-4,1.796231675E-3
1.252168971E1,-1.855387120E-3,-9.302515537E-5,-1.700693741E-3,2.518625467E-3
1.253164671E1,2.292254707E-3,2.806725912E-3,-4.548491910E-3,5.815575693E-3
1.254160371E1,1.976403873E-3,-8.876109496E-4,-4.257941619E-3,4.777456676E-3
1.255156071E1,-1.098425710E-3,6.534559652E-4,-8.044876158E-4,1.510213251E-3
1.256151771E1,2.182411263E-4,5.591800436E-4,1.199275255E-3,1.341108738E-3