"Time (s)","Gyroscope x (rad/s)","Gyroscope y (rad/s)","Gyroscope z (rad/s)","Absolute (rad/s)"
4.342875000E-3,-2.859410830E-3,-2.193255350E-4,6.730057299E-2,6.736164680E-2
1.429887500E-2,-1.015800284E-3,1.486607827E-3,6.495167315E-2,6.497662424E-2
2.425487500E-2,-3.872942179E-4,-1.432467252E-4,6.523130834E-2,6.523261534E-2
3.421087500E-2,3.928503720E-4,4.991460592E-4,6.085541844E-2,6.085873341E-2
4.416687500E-2,-3.778684186E-4,-4.657171667E-4,6.075900793E-2,6.076196772E-2
5.412387500E-2,-5.949583137E-4,-2.258326858E-4,6.243170798E-2,6.243495124E-2
6.407987500E-2,1.282037469E-3,2.243449911E-3,6.412921101E-2,6.418124642E-2
7.403587500E-2,-1.501532621E-3,3.303950652E-4,6.524887681E-2,6.526698772E-2
8.399187500E-2,-1.118836342E-3,6.816657260E-4,6.416417658E-2,6.417755074E-2
9.394787500E-2,-2.134384587E-3,-6.512822583E-4,6.451130658E-2,6.454989112E-2
1.039038750E-1,-2.701105084E-3,-4.251794890E-4,6.249902770E-2,6.255881400E-2
1.138598750E-1,-4.329644144E-4,-2.993475646E-4,6.268037111E-2,6.268258123E-2
1.238168750E-1,-9.224533569E-4,1.362464391E-3,6.575658917E-2,6.577717119E-2
1.337728750E-1,-7.841953775E-4,-1.952298917E-3,6.359390169E-2,6.362869452E-2
1.437288750E-1,-2.421240788E-3,-3.352276981E-4,6.538300961E-2,6.542868431E-2
1.536848750E-1,-4.418473691E-4,1.005782746E-3,6.406831741E-2,6.407773501E-2
1.636408750E-1,9.163648356E-4,4.955204204E-4,6.363608688E-2,6.364461343E-2
1.735968750E-1,-1.787746558E-3,-3.206388094E-3,6.473585963E-2,6.483986802E-2
1.835528750E-1,-1.225287095E-3,5.862191319E-4,6.740488112E-2,6.741856554E-2
1.935088750E-1,-1.814703224E-3,-1.712833531E-3,6.582735479E-2,6.587463537E-2
2.034658750E-1,-3.913274035E-3,-3.743292764E-4,6.526063383E-2,6.537892752E-2
2.134218750E-1,-6.080326857E-4,-5.594268441E-5,6.462186575E-2,6.462475042E-2
2.233778750E-1,-1.010169857E-3,5.211634561E-4,6.473744661E-2,6.474742503E-2
2.333338750E-1,-1.515974058E-3,1.540752128E-4,6.285327673E-2,6.287174494E-2
2.432898750E-1,1.298595453E-4,-1.228904352E-3,6.071156263E-2,6.072413776E-2
2.532458750E-1,-1.256263931E-3,1.158473082E-3,6.398684531E-2,6.400966046E-2
2.632018750E-1,1.272673835E-3,-1.158500090E-4,6.425182521E-2,6.426453270E-2
2.731588750E-1,-6.309290184E-4,1.408504322E-3,6.413962692E-2,6.415819275E-2
2.831148750E-1,-1.265027677E-3,-1.816051081E-3,6.312602758E-2,6.316481374E-2
2.930708750E-1,-1.156469807E-6,-2.929512411E-4,6.568153948E-2,6.568219279E-2
3.030268750E-1,-1.318622148E-3,2.661559731E-3,6.371878833E-2,6.378798202E-2
3.129828750E-1,1.223510015E-3,-2.141972072E-3,6.368375570E-2,6.373151309E-2
3.229388750E-1,-5.621394375E-4,2.001640387E-3,6.438097358E-2,6.441453503E-2
3.328948750E-1,-2.816316206E-3,-6.290422752E-4,6.316663325E-2,6.323251448E-2
3.428518750E-1,-4.706038162E-4,-9.174626321E-4,6.449608505E-2,6.450432693E-2
3.528078750E-1,-8.110356284E-4,-5.611684173E-5,6.368245929E-2,6.368764833E-2
3.627638750E-1,1.399791799E-4,-9.096600115E-4,6.572163850E-2,6.572808260E-2
3.727198750E-1,-1.472736476E-3,1.717904583E-3,6.542499363E-2,6.546411185E-2
3.826758750E-1,-1.276727766E-3,-6.690863520E-4,6.767562777E-2,6.769097653E-2
3.926318750E-1,-2.874271479E-3,1.957323402E-4,6.686899066E-2,6.693102165E-2
4.025878750E-1,1.352165127E-3,4.282267764E-4,6.479997933E-2,6.481550007E-2
4.125438750E-1,-8.904213319E-4,2.907886170E-3,6.290058047E-2,6.297405557E-2
4.225008750E-1,6.885668263E-4,4.705619067E-4,6.374134123E-2,6.374679706E-2
4.324568750E-1,-2.494520741E-4,1.769226044E-3,6.344919652E-2,6.347434857E-2
4.424128750E-1,-3.719807137E-5,-1.090742648E-3,6.688467413E-2,6.689357770E-2
4.523688750E-1,-2.452332526E-3,7.381178439E-4,6.402279437E-2,6.407399590E-2
4.623248750E-1,-2.108784858E-3,2.063573338E-3,6.654746830E-2,6.661284295E-2
4.722808750E-1,-6.506947102E-4,-1.622843556E-3,6.302495301E-2,6.304920084E-2
4.822368750E-1,-3.750574542E-4,-1.029224135E-3,6.464575231E-2,6.465503277E-2
4.921938750E-1,-5.187079078E-4,1.723709516E-3,6.544926018E-2,6.547400927E-2
5.021498750E-1,-2.578396816E-3,-2.084132284E-4,6.806527823E-2,6.811441600E-2
5.121058750E-1,1.462141983E-3,2.738591284E-4,6.556788087E-2,6.558475326E-2
5.220618750E-1,-5.448161392E-4,1.385196112E-3,6.579957157E-2,6.581640534E-2
5.320178750E-1,-7.447204553E-5,6.570378318E-4,6.313952059E-2,6.314298302E-2
5.419738750E-1,-1.607653918E-3,-1.126214862E-3,6.125932559E-2,6.129076507E-2
5.519298750E-1,6.337420782E-4,2.011834644E-3,6.330599636E-2,6.334112631E-2
5.618868750E-1,1.052657375E-3,1.055439934E-4,6.329561025E-2,6.330445090E-2
5.718428750E-1,-1.369179809E-3,2.042353153E-3,6.584154069E-2,6.588743690E-2
5.817988750E-1,1.259093871E-3,6.409976631E-4,6.552355736E-2,6.553878825E-2
5.917548750E-1,2.548317658E-3,1.164743677E-3,6.418521702E-2,6.424634336E-2
6.017108750E-1,-9.350969922E-4,-1.724254340E-3,6.317241490E-2,6.320285962E-2
6.116668750E-1,1.067681354E-3,2.704827115E-3,6.381700933E-2,6.388322716E-2
6.216228750E-1,-2.188917715E-4,3.457991406E-4,6.614967436E-2,6.615094034E-2
6.315798750E-1,-1.737788669E-3,4.667509347E-5,6.536902487E-2,6.539213638E-2
6.415358750E-1,2.444022102E-4,-1.103011891E-3,6.389975548E-2,6.390974196E-2
6.514918750E-1,4.207165912E-4,5.917921662E-4,6.445819139E-2,6.446228090E-2
6.614478750E-1,-1.559077413E-3,-7.701488212E-4,6.444327533E-2,6.446673241E-2
6.714038750E-1,-3.304830985E-3,8.269185200E-4,6.395543367E-2,6.404610213E-2
6.813598750E-1,-1.577504911E-3,1.586185768E-3,6.496929377E-2,6.500779677E-2
6.913158750E-1,2.749636769E-4,8.593313396E-4,6.666351855E-2,6.666962397E-2
7.012728750E-1,5.578552373E-5,-1.592641696E-3,6.725074351E-2,6.726962258E-2
7.112288750E-1,-4.710120847E-4,9.918669239E-4,6.172128394E-2,6.173105008E-2
7.211848750E-1,-1.828425215E-3,1.461382955E-3,6.591656804E-2,6.595811338E-2
7.311408750E-1,-1.785894856E-4,2.977436408E-3,6.339848042E-2,6.346860910E-2
7.410966667E-1,-1.564498525E-3,-9.531900287E-5,6.465283036E-2,6.467182706E-2
7.510526667E-1,5.444285925E-4,-1.884223893E-4,6.203980371E-2,6.204247860E-2
7.610086667E-1,-3.211427480E-3,-2.161189914E-4,6.343343854E-2,6.351504624E-2
7.709656667E-1,-2.134757815E-4,2.965191379E-4,6.211731583E-2,6.211839036E-2
7.809216667E-1,-2.428426873E-3,-1.610836945E-3,6.010156870E-2,6.017217474E-2
7.908776667E-1,-5.535782548E-4,7.181139663E-4,6.146142632E-2,6.146811419E-2
8.008336667E-1,-9.202955989E-4,1.157065853E-4,6.300632656E-2,6.301315353E-2
8.107896667E-1,-1.474107965E-3,4.010023549E-4,6.366095692E-2,6.367928418E-2
8.207456667E-1,1.159225823E-3,-6.067380309E-4,6.292246282E-2,6.293606488E-2
8.307016667E-1,-3.109979443E-4,-7.917918265E-5,6.604468077E-2,6.604546046E-2
8.406576667E-1,-4.140622914E-4,1.985887066E-4,6.535492092E-2,6.535653429E-2
8.506146667E-1,-1.523519750E-3,-1.194919460E-3,6.396342069E-2,6.399271936E-2
8.605706667E-1,7.863785140E-5,-1.848725602E-3,6.503614038E-2,6.506245865E-2
8.705266667E-1,-1.392173115E-3,-1.581571996E-4,6.439194083E-2,6.440718286E-2
8.804826667E-1,-2.781728981E-4,-1.074017957E-3,6.560341269E-2,6.561279335E-2
8.904386667E-1,1.116336673E-3,1.215719618E-3,6.175222993E-2,6.177428335E-2
9.003946667E-1,1.117135631E-3,-1.491916366E-3,6.358262151E-2,6.360993291E-2
9.103506667E-1,-1.783094485E-3,-1.131867990E-3,6.407362223E-2,6.410842079E-2
9.203076667E-1,-1.583091100E-3,-8.170828223E-4,6.481824815E-2,6.484272585E-2
9.302636667E-1,-1.261803904E-3,2.509412356E-3,6.483568251E-2,6.489649471E-2
9.402196667E-1,4.625929287E-4,-7.846523076E-4,6.691214442E-2,6.691834384E-2
9.501756667E-1,4.549029982E-4,1.931661740E-3,6.537970155E-2,6.540981294E-2
9.601316667E-1,1.293266076E-3,-2.793052234E-3,6.465452909E-2,6.472775147E-2
9.700876667E-1,-1.449260395E-3,-1.184948720E-3,6.185090542E-2,6.187922883E-2
9.800436667E-1,-3.661281662E-3,-9.364755824E-4,6.432098895E-2,6.443191437E-2
9.900006667E-1,-1.355685759E-3,-1.413932070E-3,6.465308368E-2,6.468275131E-2
9.999566667E-1,-2.840297529E-4,1.737119630E-3,6.487918645E-2,6.490305919E-2
1.009912667E0,-3.635735717E-3,6.517227739E-4,6.461409479E-2,6.471958407E-2
1.019868667E0,-6.143794162E-4,1.359591261E-3,6.367426366E-2,6.369174046E-2
1.029824667E0,8.102438296E-4,1.860545948E-3,6.389655918E-2,6.392877600E-2
1.039780667E0,-2.075823955E-3,1.076777466E-3,6.440921873E-2,6.445165593E-2
1.049736667E0,-1.232001348E-3,2.667689696E-3,6.382344663E-2,6.389105364E-2
1.059693667E0,2.115059411E-3,1.273258589E-3,6.679952890E-2,6.684513239E-2
1.069649667E0,2.187190577E-3,7.298206910E-4,6.570222974E-2,6.574267589E-2
1.079605667E0,-2.836330328E-3,-1.218281686E-3,6.405905634E-2,6.413338974E-2
1.089561667E0,-1.151969656E-3,1.886627637E-3,6.690646708E-2,6.694297375E-2
1.099517667E0,-4.180024844E-4,2.002208494E-3,6.555864215E-2,6.559054143E-2
1.109473667E0,1.859562704E-3,-1.892638393E-3,6.573598832E-2,6.578951447E-2
1.119429667E0,-7.029309636E-4,4.541398957E-4,6.697036326E-2,6.697559190E-2
1.129386667E0,2.105118241E-3,2.364815213E-3,6.653924286E-2,6.661452330E-2
1.139342667E0,-2.657679375E-3,1.723259687E-3,6.811450422E-2,6.818811164E-2
1.149298667E0,-8.425698616E-5,-2.136649564E-4,6.603050232E-2,6.603090177E-2
1.159254667E0,-1.186117297E-4,3.847655375E-3,6.597430259E-2,6.608651241E-2
1.169210667E0,-2.709892811E-3,5.196528509E-4,6.593313813E-2,6.599084984E-2
1.179166667E0,1.244368730E-3,7.348358631E-4,6.561622024E-2,6.563213234E-2
1.189122667E0,-2.675863914E-3,1.871129498E-4,6.392356753E-2,6.397982295E-2
1.199078667E0,9.665417601E-4,2.314711921E-3,6.617873162E-2,6.622625320E-2
1.209035667E0,-1.127747586E-3,-2.841381356E-4,6.668882072E-2,6.669896070E-2
1.218991667E0,-5.458469968E-4,-1.815189607E-3,6.411567330E-2,6.414368578E-2
1.228947667E0,-1.242926344E-3,6.799530238E-4,6.383743882E-2,6.385315808E-2
1.238903667E0,-9.635607712E-4,1.680769026E-3,6.835069507E-2,6.837814674E-2
1.248859667E0,6.044853362E-4,2.171844244E-4,6.285698712E-2,6.286026886E-2
1.258815667E0,9.443046874E-4,-7.833652198E-4,6.448257715E-2,6.449424880E-2
1.268771667E0,-1.358981128E-3,1.070851460E-3,6.077338755E-2,6.079801137E-2
1.278728667E0,-3.152883146E-4,5.078595132E-4,5.957923084E-2,5.958222953E-2
1.288684667E0,5.952944048E-5,8.964426816E-4,5.748949572E-2,5.749651530E-2
1.298640667E0,-1.155404607E-3,8.337944746E-5,5.897473916E-2,5.898611507E-2
1.308596667E0,2.588259522E-4,-2.171858214E-3,6.001656875E-2,6.005641084E-2
1.318552667E0,-7.885951782E-4,4.782536998E-4,5.508705601E-2,5.509477606E-2
1.328508667E0,-1.539713703E-3,-9.896643460E-4,5.412289873E-2,5.415383939E-2
1.338464667E0,-1.841648482E-4,-1.205912791E-3,5.250876024E-2,5.252292875E-2
1.348421667E0,-9.600104531E-4,-2.132865600E-3,4.645175487E-2,4.651060380E-2
1.358377667E0,-1.224995009E-3,-1.179453917E-3,4.959774762E-2,4.962689083E-2
1.368333667E0,-1.144642709E-3,-8.337013423E-5,4.716496542E-2,4.717892666E-2
1.378289667E0,-1.455966383E-3,-3.986880183E-4,4.418329149E-2,4.420907189E-2
1.388245667E0,-2.144165337E-4,1.507219858E-3,4.234550521E-2,4.237286275E-2
1.398201667E0,-1.492201234E-3,3.724461421E-4,4.040725902E-2,4.043651768E-2
1.408157667E0,1.995907165E-3,9.087463841E-4,3.984896466E-2,3.990926521E-2
1.418114667E0,2.403514227E-4,1.560155302E-3,3.714852035E-2,3.718204429E-2
1.428070667E0,1.989826560E-4,2.576505765E-3,3.382332623E-2,3.392190109E-2
1.438026667E0,-2.002652735E-3,8.081672713E-4,3.252450377E-2,3.259612090E-2
1.447982667E0,-9.418627014E-4,-2.882396802E-4,3.347290307E-2,3.348739207E-2
1.457938667E0,-7.088360144E-4,1.657466404E-3,3.140735626E-2,3.145904752E-2
1.467894667E0,1.530425157E-3,-6.485711783E-4,2.994627133E-2,2.999236590E-2
1.477850667E0,1.610320061E-3,3.585854545E-3,3.073270246E-2,3.098306770E-2
1.487807667E0,4.921342479E-4,-2.293037251E-4,5.075246468E-2,5.075536866E-2
1.497763667E0,-7.462357171E-4,-7.238518447E-4,7.264497876E-2,7.265241750E-2
1.507719667E0,-3.330582986E-4,8.594859391E-4,9.003011882E-2,9.003483736E-2
1.517675667E0,-1.755452715E-3,-3.185856156E-3,9.757643938E-2,9.764421548E-2
1.527631667E0,2.349515213E-3,-1.672545448E-3,9.293854237E-2,9.298327961E-2
1.537587667E0,3.833033843E-4,1.509932801E-3,8.728252351E-2,8.729642449E-2
1.547543667E0,-1.098976587E-3,-3.236446530E-3,8.031419665E-2,8.038689270E-2
1.557499667E0,3.529788228E-4,-1.455324702E-3,7.584541291E-2,7.586019525E-2
1.567456667E0,4.238926340E-5,-9.619230404E-4,7.396793365E-2,7.397420025E-2
1.577412667E0,-4.905092064E-4,1.332656480E-3,6.732680649E-2,6.734178082E-2
1.587368667E0,-9.088497609E-5,-1.040585339E-4,6.293797493E-2,6.293812657E-2
1.597324667E0,2.177595627E-3,2.586636692E-4,5.886227638E-2,5.890311036E-2
1.607280667E0,-1.533453004E-3,-5.039013922E-4,5.840421468E-2,5.842651527E-2
1.617236667E0,1.490832772E-3,4.455158487E-4,5.808356404E-2,5.810440154E-2
1.627192667E0,-4.355503479E-4,1.477864571E-3,5.858200043E-2,5.860225732E-2
1.637149667E0,1.327681821E-4,4.458902404E-4,5.744030327E-2,5.744218733E-2
1.647105667E0,1.234534662E-3,-2.254850231E-3,5.620320141E-2,5.626196117E-2
1.657061667E0,9.150581900E-5,-2.478822134E-3,5.618855357E-2,5.624327946E-2
1.667017667E0,7.813207339E-4,-4.218406975E-4,5.543365702E-2,5.544076787E-2
1.676973667E0,-8.783611702E-4,-1.323549077E-4,5.697615817E-2,5.698308202E-2
1.686929667E0,1.487267553E-3,-1.244792715E-3,5.685221776E-2,5.688528930E-2
1.696885667E0,1.422552741E-3,-1.904457808E-3,5.652198568E-2,5.657194960E-2
1.706842667E0,-7.419397589E-4,-1.551406458E-4,5.966712907E-2,5.967194345E-2
1.716798667E0,-1.103330636E-3,1.649150625E-3,6.652077287E-2,6.655035883E-2
1.726754667E0,-2.517492976E-4,5.238065496E-4,7.221259177E-2,7.221493032E-2
1.736714750E0,-1.950579812E-3,-1.901534386E-3,7.498653978E-2,7.503600298E-2
1.746670750E0,3.518496873E-3,4.419498146E-5,7.286638021E-2,7.295129292E-2
1.756626750E0,-2.744459081E-3,-2.033868805E-3,7.038804144E-2,7.047088090E-2
1.766582750E0,-2.699433360E-3,1.072498970E-3,6.781900674E-2,6.788118200E-2
1.776539750E0,1.471342868E-3,-6.929105148E-4,6.385914981E-2,6.387985590E-2
1.786495750E0,-2.582017798E-3,-2.206776291E-3,5.961174890E-2,5.970843563E-2
1.796451750E0,6.806208985E-4,2.236245200E-4,6.017288193E-2,6.017714660E-2
1.806407750E0,1.588175073E-4,-7.425574586E-4,6.569857895E-2,6.570296714E-2
1.816363750E0,-1.014837646E-3,1.146955416E-3,6.679101288E-2,6.680856834E-2
1.826319750E0,-8.558784612E-4,6.816349924E-6,6.839691103E-2,6.840226613E-2
1.836275750E0,-1.028451137E-3,-1.178290695E-3,6.871489435E-2,6.873269082E-2
1.846231750E0,-4.789390368E-4,2.008723095E-4,6.839755177E-2,6.839952354E-2
1.856188750E0,-4.072998418E-4,-1.049748622E-3,6.516314298E-2,6.517287065E-2
1.866144750E0,2.865557326E-4,-3.196541220E-4,6.298203021E-2,6.298349326E-2
1.876100750E0,-6.327674491E-4,-4.112664610E-4,6.438871473E-2,6.439313721E-2
1.886056750E0,-4.277669359E-5,-9.064050391E-4,6.539809704E-2,6.540439203E-2
1.896012750E0,-1.113900100E-3,1.542105339E-3,6.752756238E-2,6.755435251E-2
1.905968750E0,-4.488131963E-4,-7.531102747E-4,6.565871835E-2,6.566457114E-2
1.915924750E0,-5.067058373E-5,-1.246035099E-4,6.658656895E-2,6.658670482E-2
1.925881750E0,-3.153609578E-4,3.845710307E-5,6.678756326E-2,6.678831888E-2
1.935837750E0,-3.675471293E-3,5.279462785E-4,6.907574832E-2,6.917547848E-2
1.945793750E0,4.597891821E-4,3.325641155E-4,6.366611272E-2,6.366864153E-2
1.955749750E0,1.361801871E-3,-1.277050003E-3,6.430394202E-2,6.433103700E-2
1.965705750E0,1.008551102E-3,8.285045624E-4,6.495828182E-2,6.497139349E-2
1.975661750E0,-1.586965518E-3,6.364909932E-4,6.718175113E-2,6.720350635E-2
1.985617750E0,8.263602504E-4,-9.928736836E-5,6.598276645E-2,6.598801556E-2
1.995574750E0,-3.079698421E-3,-7.301894948E-4,6.744936854E-2,6.752358873E-2
2.005530750E0,1.488666632E-3,-2.121935599E-3,6.849010289E-2,6.853913431E-2
2.015486750E0,1.567217987E-5,1.718448475E-4,7.074500620E-2,7.074521665E-2
2.025442750E0,1.329828519E-3,1.322474331E-3,6.770918518E-2,6.773515439E-2
2.035398750E0,-1.211892231E-3,-7.699709386E-4,6.582446396E-2,6.584012146E-2
2.045354750E0,-4.367826041E-4,-9.162640199E-4,6.908795238E-2,6.909540855E-2
2.055310750E0,1.384819625E-3,1.376983710E-3,6.603331119E-2,6.606218280E-2
2.065267750E0,1.445086440E-3,5.869911984E-4,6.663348526E-2,6.665173809E-2
2.075223750E0,-1.249766210E-3,-6.681568921E-4,6.986922771E-2,6.988359843E-2
2.085179750E0,-5.277681630E-4,-9.245108813E-4,6.572535634E-2,6.573397695E-2
2.095135750E0,-1.845766557E-3,-2.317876555E-3,6.901009381E-2,6.907367410E-2
2.105091750E0,-2.088978654E-4,2.659410238E-4,6.913855672E-2,6.913938377E-2
2.115047750E0,-3.152490128E-3,-4.821410403E-4,6.711082160E-2,6.718655394E-2
2.125003750E0,-1.330336090E-5,1.962175593E-4,6.836424768E-2,6.836453056E-2
2.134960750E0,-8.973607328E-5,5.349712446E-4,6.493675709E-2,6.493902269E-2
2.144916750E0,6.071698153E-4,-1.653791405E-3,6.527362764E-2,6.529739770E-2
2.154872750E0,-4.221419804E-4,-6.034411490E-4,6.512715667E-2,6.513132028E-2
2.164828750E0,-2.550252248E-5,1.149182208E-3,6.668148935E-2,6.669139594E-2
2.174784750E0,1.897232141E-5,1.243191771E-3,6.955557317E-2,6.956668487E-2
2.184740750E0,-7.172224578E-4,-1.035615802E-3,6.806427985E-2,6.807593628E-2
2.194696750E0,-2.655504504E-4,-1.931502484E-3,6.881555915E-2,6.884317250E-2
2.204652750E0,-1.351822400E-3,2.247318625E-4,6.620906293E-2,6.622324322E-2
2.214609750E0,-3.968128003E-4,-3.185523674E-4,6.438399851E-2,6.438600935E-2
2.224565750E0,-1.411223901E-3,-4.070205614E-4,6.586299837E-2,6.587937289E-2
2.234521750E0,-2.385940868E-3,3.064405173E-4,6.797330081E-2,6.801585288E-2
2.244477750E0,-2.108584158E-3,-9.363126010E-4,6.708063185E-2,6.712029483E-2
2.254433750E0,-1.049711136E-3,2.000583336E-4,6.627822667E-2,6.628684068E-2
2.264389750E0,2.798391506E-4,2.216100693E-4,6.960620731E-2,6.960712260E-2
2.274345750E0,-3.083999502E-3,-6.010411307E-4,6.897556782E-2,6.904709450E-2
2.284302750E0,-1.411215402E-3,1.045696437E-3,6.636546552E-2,6.638870404E-2
2.294258750E0,-2.956171520E-4,1.615613699E-3,6.587304920E-2,6.589352175E-2
2.304214750E0,1.567050349E-4,1.603423618E-3,6.294328719E-2,6.296390177E-2
2.314170750E0,-1.297114650E-3,5.940860137E-4,6.456968188E-2,6.458544157E-2
2.324126750E0,3.726551076E-4,-4.138145596E-4,6.768014282E-2,6.768243381E-2
2.334082750E0,1.466415357E-3,1.801668666E-3,6.705642492E-2,6.709665049E-2
2.344038750E0,4.224139266E-4,1.355777495E-3,6.791533530E-2,6.793017985E-2
2.353995750E0,5.691540428E-4,-3.113616258E-4,6.591077149E-2,6.591396423E-2
2.363951750E0,2.099021338E-3,-1.037873328E-3,6.318563223E-2,6.322900594E-2
2.373907750E0,-3.367059398E-4,-1.287944615E-3,6.389296800E-2,6.390683478E-2
2.383863750E0,5.618848372E-4,5.991766229E-4,6.455341727E-2,6.455864317E-2
2.393819750E0,-9.079136653E-4,2.205329016E-3,6.521654874E-2,6.526014107E-2
2.403775750E0,-1.760036917E-3,-7.813051343E-4,6.534874439E-2,6.537711038E-2
2.413731750E0,-1.266286941E-3,1.437374391E-3,6.728060544E-2,6.730787023E-2
2.423688750E0,-1.351762214E-3,9.286813438E-4,7.005189359E-2,7.007108894E-2
2.433644750E0,3.600119613E-3,2.341289073E-4,6.830112636E-2,6.839634157E-2
2.443600750E0,1.925634220E-3,9.620813653E-4,6.913509220E-2,6.916859577E-2
2.453556750E0,-1.508324640E-4,-1.370068640E-5,6.714171916E-2,6.714188998E-2
2.463512750E0,-8.836822817E-4,1.320172101E-3,6.740278006E-2,6.742149886E-2
2.473468750E0,-1.290080720E-3,-8.106222376E-4,6.502670795E-2,6.504455522E-2
2.483424750E0,1.001180848E-3,-1.869853586E-4,6.655870378E-2,6.656649589E-2
2.493381750E0,-2.595596015E-4,-6.210813299E-4,6.579144299E-2,6.579488646E-2
2.503337750E0,-2.503613476E-3,4.913564771E-5,6.734810024E-2,6.739463704E-2
2.513293750E0,1.392058562E-3,1.173131168E-4,6.903281063E-2,6.904694441E-2
2.523249750E0,8.249468519E-4,-1.861836761E-3,6.965396553E-2,6.968372757E-2
2.533205750E0,3.868568456E-4,-2.191988751E-4,6.740678847E-2,6.740825497E-2
2.543161750E0,5.150912330E-6,-4.594633356E-4,6.789238006E-2,6.789393495E-2
2.553117750E0,-6.119036116E-4,9.213853627E-4,6.652911007E-2,6.653830374E-2
2.563073750E0,1.354205888E-4,3.250576556E-4,6.088109314E-2,6.088211152E-2
2.573030750E0,-2.784469165E-3,-7.029222324E-4,6.379459053E-2,6.385919785E-2
2.582986750E0,3.348616883E-4,-8.256146684E-4,6.635688245E-2,6.636286327E-2
2.592942750E0,-1.638540649E-3,-1.031743363E-3,6.919501722E-2,6.922210426E-2
2.602898750E0,1.869827975E-5,-4.815310240E-5,7.159144431E-2,7.159146295E-2
2.612854750E0,-1.222068560E-3,-1.701256260E-4,6.924307346E-2,6.925406571E-2
2.622810750E0,1.115828054E-4,-2.259008586E-3,7.122847438E-2,7.126437492E-2
2.632766750E0,3.168092808E-3,-2.265666611E-3,6.768220663E-2,6.779418228E-2
2.642723750E0,-2.585400827E-3,-3.022094257E-3,6.547740102E-2,6.559807463E-2
2.652679750E0,3.691100283E-4,-1.453758217E-3,6.410666555E-2,6.412420934E-2
2.662635750E0,2.547396347E-3,-4.384312779E-4,6.544927508E-2,6.550029815E-2
2.672591750E0,-3.521414939E-3,-2.213694155E-3,6.885519624E-2,6.898071364E-2
2.682547750E0,-2.411793917E-3,1.069838181E-4,6.571814418E-2,6.576247159E-2
2.692503750E0,-1.412309706E-3,-1.761103049E-4,6.681749970E-2,6.683265594E-2
2.702459750E0,-1.386473188E-3,1.004852355E-3,6.575623155E-2,6.577852251E-2
2.712416750E0,-2.411524067E-3,-1.023411751E-3,6.635490805E-2,6.640660089E-2
2.722372750E0,-1.155612757E-3,9.992560372E-4,6.685462594E-2,6.687207910E-2
2.732328750E0,4.334953846E-4,3.055026755E-4,6.260688603E-2,6.260913215E-2
2.742281250E0,2.282863483E-3,9.648408741E-5,6.503222883E-2,6.507235635E-2
2.752237250E0,-1.802943880E-4,-1.301143318E-3,6.706448644E-2,6.707734955E-2
2.762193250E0,1.209708164E-3,-9.505543858E-4,6.544728577E-2,6.546536613E-2
2.772149250E0,-1.996366773E-4,6.271023303E-4,6.396470964E-2,6.396809511E-2
2.782106250E0,2.361662686E-3,1.871259883E-4,6.731361151E-2,6.735528755E-2
2.792062250E0,-2.513253596E-3,-1.676073298E-4,6.733145565E-2,6.737855338E-2
2.802018250E0,8.626556373E-4,-1.990506425E-4,6.999000907E-2,6.999560819E-2
2.811974250E0,-1.253492082E-3,-4.129027948E-4,6.726373732E-2,6.727668310E-2
2.821930250E0,-1.157786231E-3,-5.666846409E-4,6.685614586E-2,6.686857139E-2
2.831886250E0,-2.587030176E-4,-2.075897530E-3,6.780636311E-2,6.783862584E-2
2.841842250E0,1.142819645E-3,2.608448267E-4,6.526114792E-2,6.527167459E-2
2.851799250E0,-4.817085573E-4,1.306935214E-3,6.476446986E-2,6.477944643E-2
2.861755250E0,1.380886766E-3,-1.463498920E-4,6.727200747E-2,6.728633780E-2
2.871711250E0,-9.629613487E-4,-7.620723918E-4,6.496997178E-2,6.498157648E-2
2.881667250E0,8.071330958E-4,-2.523289993E-3,6.652828306E-2,6.658101008E-2
2.891623250E0,1.452949597E-3,-2.179210074E-3,6.687662005E-2,6.692788902E-2
2.901579250E0,-1.256868709E-4,6.729261950E-4,6.552683562E-2,6.553041136E-2
2.911535250E0,-1.021574135E-3,-1.956945285E-3,6.470178813E-2,6.473943648E-2
2.921491250E0,6.183469668E-4,-3.349073231E-4,6.556060165E-2,6.556437298E-2
2.931448250E0,-1.881296048E-3,-9.847190231E-4,6.551319361E-2,6.554759708E-2
2.941404250E0,1.935614389E-3,-1.287209801E-3,6.672628224E-2,6.676676009E-2
2.951360250E0,-9.110384854E-4,-3.769407049E-4,6.395366043E-2,6.396125982E-2
2.961316250E0,-3.297649091E-4,5.721235648E-4,6.668900698E-2,6.669227634E-2
2.971272250E0,-4.442807985E-4,1.186247915E-3,6.841740012E-2,6.842912544E-2
2.981228250E0,-2.526579192E-4,-2.798680216E-4,6.655170023E-2,6.655276828E-2
2.991184250E0,-2.350163646E-3,-1.020492986E-3,6.464114785E-2,6.469190576E-2
3.001141250E0,-2.508142963E-3,1.577543095E-3,6.578882784E-2,6.585551831E-2
3.011097250E0,1.948124729E-3,9.149964899E-5,6.728712469E-2,6.731538243E-2
3.021053250E0,-2.327916445E-3,-7.871398702E-4,6.577054411E-2,6.581643607E-2
3.031009250E0,2.916113939E-3,1.562033780E-3,6.662035733E-2,6.670244135E-2
3.040965250E0,-2.387077548E-3,-2.699857578E-4,6.984264404E-2,6.988394635E-2
3.050921250E0,-2.193199471E-3,3.710370511E-4,7.085597515E-2,7.089088099E-2
3.060877250E0,-6.174563896E-4,-8.410010487E-4,6.928215921E-2,6.929001458E-2
3.070834250E0,1.476853620E-3,-2.334767953E-3,6.436090171E-2,6.442016693E-2
3.080790250E0,-4.095367622E-4,-1.406297088E-7,6.496957690E-2,6.497086764E-2
3.090746250E0,-1.489981310E-3,-6.778445095E-5,6.881038845E-2,6.882655154E-2
3.100702250E0,9.161187336E-5,-1.121520996E-3,6.321102381E-2,6.322103869E-2
3.110658250E0,-9.685927071E-4,-1.648826525E-3,6.757062674E-2,6.759768042E-2
3.120614250E0,-2.287196694E-4,2.716306131E-3,6.881418079E-2,6.886815018E-2
3.130570250E0,1.153608318E-4,-2.256883308E-4,6.718592346E-2,6.718640156E-2
3.140527250E0,2.489752369E-3,-6.919009611E-4,6.740275025E-2,6.745226709E-2
3.150483250E0,8.971162606E-5,5.898782983E-4,6.462027878E-2,6.462303331E-2
3.160439250E0,-8.440656820E-4,8.492749184E-4,6.636923552E-2,6.638003569E-2
3.170395250E0,3.855082206E-3,-3.054120578E-3,6.446081400E-2,6.464816976E-2
3.180351250E0,4.090219736E-4,3.306195140E-7,6.633260101E-2,6.633386206E-2
3.190307250E0,7.612677291E-5,8.315034211E-4,6.733474880E-2,6.733992567E-2
3.200263250E0,-1.772950171E-3,5.127042532E-4,6.710878015E-2,6.713415368E-2
3.210220250E0,2.254814608E-3,6.570480764E-4,6.628107280E-2,6.632266967E-2
3.220176250E0,5.470890319E-4,-9.939568117E-4,6.733249128E-2,6.734204956E-2
3.230132250E0,5.673291162E-4,-8.682562038E-4,6.523711234E-2,6.524535660E-2
3.240088250E0,1.459490741E-4,1.956873573E-3,6.655102968E-2,6.657995349E-2
3.250044250E0,1.097762841E-3,4.274202511E-4,6.844612956E-2,6.845626650E-2
3.260000250E0,-1.909544226E-4,1.053997315E-3,6.769789010E-2,6.770636379E-2
3.269956250E0,2.527067671E-3,-9.835232049E-5,6.676391512E-2,6.681179616E-2
3.279912250E0,-3.348586382E-3,6.117951125E-4,6.685164571E-2,6.693825407E-2
3.289869250E0,-3.919450101E-4,9.313747287E-4,6.534989178E-2,6.535770372E-2
3.299825250E0,9.036380798E-4,-6.735520437E-4,6.334307045E-2,6.335309628E-2
3.309781250E0,-6.601699861E-4,-1.406453550E-3,6.513644755E-2,6.515497475E-2
3.319737250E0,1.246462925E-3,1.657554880E-3,6.827415526E-2,6.830564716E-2
3.329693250E0,1.609585015E-4,-1.313733868E-3,6.820464134E-2,6.821748240E-2
3.339649250E0,1.045496203E-3,1.750029624E-4,6.831119955E-2,6.831942382E-2
3.349605250E0,-5.039444659E-5,4.572989419E-4,6.862412393E-2,6.862566610E-2
3.359562250E0,-2.141042380E-3,1.754221506E-3,6.557981670E-2,6.563820316E-2
3.369518250E0,-5.900172982E-4,1.262305304E-4,6.512867659E-2,6.513147142E-2
3.379474250E0,8.409152506E-4,-3.276206553E-4,6.282773614E-2,6.283421761E-2
3.389430250E0,-1.832898357E-3,-1.515848562E-4,6.716442853E-2,6.718960451E-2
3.399386250E0,-7.646558806E-4,1.457433216E-3,6.509546936E-2,6.511627247E-2
3.409342250E0,-8.560023271E-4,1.543720253E-3,6.765769422E-2,6.768071660E-2
3.419298250E0,1.908526756E-4,6.334530190E-4,6.928750128E-2,6.929065969E-2
3.429255250E0,-3.950428218E-4,1.500312239E-3,6.746456772E-2,6.748240432E-2
3.439211250E0,-3.385985037E-4,8.306019008E-4,6.738810241E-2,6.739407166E-2
3.449167250E0,-7.095768815E-4,4.809284583E-4,6.545225531E-2,6.545786826E-2
3.459123250E0,-5.758623593E-4,8.257115260E-4,6.379508227E-2,6.380302453E-2
3.469079250E0,-1.356434776E-3,-6.214501336E-4,6.133777276E-2,6.135591644E-2
3.479035250E0,-2.397971693E-4,-1.018499956E-3,6.469003856E-2,6.469850025E-2
3.488991250E0,5.480018444E-6,1.458239742E-3,6.964565068E-2,6.966091553E-2
3.498948250E0,-1.466107671E-3,-9.900368750E-4,6.834337115E-2,6.836626379E-2
3.508904250E0,-2.019778825E-3,1.663081348E-4,6.985525042E-2,6.988464192E-2
3.518860250E0,8.375349571E-4,4.668086767E-4,6.905477494E-2,6.906143147E-2
3.528816250E0,-7.406505756E-5,1.001837663E-3,6.615778804E-2,6.616541455E-2
3.538772250E0,9.765720461E-4,-2.996083349E-4,6.535533071E-2,6.536331318E-2
3.548728250E0,1.736290287E-4,-1.366231591E-4,6.295981258E-2,6.296020023E-2
3.558684250E0,-5.614813417E-4,-1.828419045E-4,6.540453434E-2,6.540719995E-2
3.568641250E0,-1.001169207E-3,1.453670673E-3,6.703412533E-2,6.705735945E-2
3.578597250E0,9.824344888E-4,-8.495841175E-4,6.671814620E-2,6.673078753E-2
3.588553250E0,-8.828435093E-4,-1.552658156E-3,6.813787669E-2,6.816128226E-2
3.598509250E0,-1.160055981E-3,-8.308636025E-4,7.107431442E-2,7.108863646E-2
3.608465250E0,3.622448537E-3,1.104455441E-3,6.918373704E-2,6.928731071E-2
3.618421250E0,-8.582214359E-4,1.234796830E-3,6.500941515E-2,6.502680467E-2
3.628377250E0,-7.506296970E-4,-4.938617349E-4,6.415107846E-2,6.415737068E-2
3.638334250E0,-1.977438107E-3,1.752423123E-3,6.434477121E-2,6.439899712E-2
3.648290250E0,-3.350665793E-4,6.480095908E-4,6.698981673E-2,6.699378875E-2
3.658246250E0,-2.889006864E-4,-4.073483869E-4,6.590944529E-2,6.591133722E-2
3.668202250E0,3.033863613E-4,-2.004215494E-4,6.907940656E-2,6.908036351E-2
3.678158250E0,1.366153127E-3,-3.732759506E-4,6.720521301E-2,6.722013363E-2
3.688114250E0,1.209026668E-3,-1.344264485E-3,6.317345053E-2,6.319931680E-2
3.698070250E0,1.216997625E-4,-1.063141972E-4,6.462493539E-2,6.462513743E-2
3.708026250E0,1.618129900E-3,-8.248351514E-4,6.495170295E-2,6.497709145E-2
3.717983250E0,9.446886834E-4,1.822019927E-3,6.196935475E-2,6.200333153E-2
3.727939250E0,1.363603864E-3,5.058860406E-4,6.424715370E-2,6.426361408E-2
3.737895042E0,1.987180440E-4,2.122558653E-4,6.649353355E-2,6.649416926E-2
3.747851042E0,-4.801218165E-4,1.187790185E-4,6.744188815E-2,6.744370173E-2
3.757807042E0,-1.196402591E-4,1.257807016E-4,6.739924103E-2,6.739946458E-2
3.767763042E0,-2.118875040E-3,-4.249606282E-4,6.729671359E-2,6.733140339E-2
3.777720042E0,5.877958611E-4,7.082978263E-4,6.787658483E-2,6.788282520E-2
3.787676042E0,-2.478834242E-3,-9.801462293E-4,6.523180008E-2,6.528623934E-2
3.797632042E0,4.742179299E-4,-3.074575216E-5,6.584063172E-2,6.584234666E-2
3.807588042E0,-2.309584059E-3,1.455831341E-3,6.647686660E-2,6.653290477E-2
3.817544042E0,1.637122943E-3,-1.368891448E-3,6.680992991E-2,6.684400324E-2
3.827500042E0,1.366812037E-3,-2.048529685E-3,6.533640623E-2,6.538280071E-2
3.837456042E0,2.954283264E-4,2.158880234E-4,6.693828106E-2,6.693928112E-2
3.847412042E0,-1.463900553E-4,-1.073081978E-3,6.710579246E-2,6.711453134E-2
3.857369042E0,-1.310376916E-3,3.434298560E-4,6.769931316E-2,6.771286462E-2
3.867325042E0,-6.017098203E-4,1.978610642E-3,6.890919060E-2,6.894021688E-2
3.877281042E0,-6.554662250E-4,2.214722335E-4,6.506554782E-2,6.506922621E-2
3.887237042E0,4.622624256E-4,-2.211453393E-4,6.583493203E-2,6.583692632E-2
3.897193042E0,-6.647179835E-4,2.129059285E-4,6.426067650E-2,6.426446704E-2
3.907149042E0,-1.263396582E-3,9.889509529E-4,6.574273109E-2,6.576230597E-2
3.917105042E0,1.035909168E-3,-6.757108495E-4,6.582079083E-2,6.583240994E-2
3.927062042E0,-8.469456807E-4,6.984798238E-4,6.516165286E-2,6.517089991E-2
3.937018042E0,8.470437024E-5,4.147151485E-4,6.552334130E-2,6.552470846E-2
3.946974042E0,-2.471253974E-4,-1.746973023E-3,6.656916440E-2,6.659254188E-2
3.956930042E0,-1.297683106E-3,1.420975663E-3,6.653387100E-2,6.656169426E-2
3.966886042E0,-1.455874997E-3,-3.814520314E-4,6.762736291E-2,6.764410759E-2
3.976842042E0,1.556153875E-4,1.298560761E-3,6.600006670E-2,6.601302357E-2
3.986798042E0,1.326607307E-3,1.507885754E-3,6.587596238E-2,6.590657043E-2
3.996755042E0,7.808220107E-5,-2.055916004E-3,6.673780829E-2,6.676951357E-2
4.006711042E0,-2.679887461E-3,-8.279327303E-4,6.902545691E-2,6.908242157E-2
4.016667042E0,-1.018507406E-3,-2.772648819E-3,6.766156852E-2,6.772601268E-2
4.026623042E0,2.430818742E-3,-6.338637322E-4,6.964428723E-2,6.968957890E-2
4.036579042E0,-6.747944281E-5,3.095716238E-4,6.645531207E-2,6.645606737E-2
4.046535042E0,-1.701328787E-3,1.599873416E-3,6.402863562E-2,6.407121268E-2
4.056491042E0,2.140761353E-5,-3.849156201E-4,6.459099799E-2,6.459214844E-2
4.066448042E0,-8.616965497E-4,-1.423014328E-4,6.848507375E-2,6.849064240E-2
4.076404042E0,-6.186029641E-4,-3.036540002E-4,6.873086840E-2,6.873432291E-2
4.086360042E0,-2.713179216E-3,-3.502592444E-4,6.860490143E-2,6.865942414E-2
4.096316042E0,1.061842777E-4,-4.702992737E-4,6.757342815E-2,6.757514816E-2
4.106272042E0,-1.912907464E-4,5.779210478E-4,6.789700687E-2,6.789973584E-2
4.116228042E0,1.420507906E-3,1.409279183E-3,6.982243806E-2,6.985110427E-2
4.126184042E0,-6.868514465E-4,-2.192445099E-4,6.845357269E-2,6.845736956E-2
4.136141042E0,-1.138032414E-3,6.655557081E-4,7.018436491E-2,7.019674608E-2
4.146097042E0,-1.559077995E-3,1.814975403E-3,6.893693656E-2,6.897844650E-2
4.156053042E0,1.222774736E-3,-8.436217904E-4,6.730885059E-2,6.732524224E-2
4.166009042E0,4.315496190E-4,1.603823155E-3,6.522359699E-2,6.524473993E-2
4.175965042E0,7.666720776E-4,-7.058344781E-4,6.532073766E-2,6.532904987E-2
4.185921042E0,8.716006996E-4,1.214038581E-3,6.392311305E-2,6.394058147E-2
4.195877042E0,-6.521645701E-4,8.013062179E-4,6.894371659E-2,6.895145732E-2
4.205834042E0,-6.452404195E-4,2.606846392E-4,6.845475733E-2,6.845829455E-2
4.215790042E0,1.125468523E-3,1.316611655E-3,6.775508821E-2,6.777722423E-2
4.225746042E0,-6.524579367E-4,1.227129251E-3,6.941423565E-2,6.942814745E-2
4.235702042E0,6.560786860E-4,-2.048428170E-3,6.755962968E-2,6.759386111E-2
4.245658042E0,-1.037691720E-3,8.456297219E-4,6.858707219E-2,6.860013386E-2
4.255614042E0,2.835040446E-3,8.605690673E-4,6.568739563E-2,6.575417841E-2
4.265570042E0,3.472657409E-5,1.654839143E-4,6.290572137E-2,6.290594862E-2
4.275527042E0,2.900176682E-3,-3.121430054E-4,6.151177362E-2,6.158089599E-2
4.285483042E0,-7.883540820E-5,-1.970759593E-3,6.010376289E-2,6.013611579E-2
4.295439042E0,7.636889350E-4,-3.766762093E-4,6.553852558E-2,6.554405725E-2
4.305395042E0,-6.235515466E-4,-1.092799939E-3,6.670525670E-2,6.671712149E-2
4.315351042E0,2.888252260E-3,-1.268554479E-3,6.599114835E-2,6.606650356E-2
4.325307042E0,-9.317859076E-4,6.720917299E-4,7.110362500E-2,7.111290614E-2
4.335263042E0,3.725172020E-3,-9.858543053E-4,6.783019006E-2,6.793955769E-2
4.345219042E0,-1.505010179E-3,-3.022216260E-4,6.817586720E-2,6.819314674E-2
4.355176042E0,7.421255577E-4,-1.944098622E-4,6.517389417E-2,6.517840920E-2
4.365132042E0,-1.316576963E-4,5.139969289E-5,6.415203959E-2,6.415219528E-2
4.375088042E0,1.075789798E-3,7.419856265E-4,6.326089054E-2,6.327438770E-2
4.385044042E0,3.041469026E-3,1.250116155E-3,6.783407182E-2,6.791372927E-2
4.395000042E0,1.690306934E-3,1.026640646E-3,6.678479910E-2,6.681407426E-2
4.404956042E0,-1.038647024E-4,1.089153811E-4,6.610356271E-2,6.610373404E-2
4.414912042E0,2.230638871E-3,1.474330202E-3,6.725040078E-2,6.730353486E-2
4.424869042E0,3.472514218E-4,-1.516399905E-3,6.731139123E-2,6.732936538E-2
4.434825042E0,-1.748008654E-3,1.494172029E-3,6.449793279E-2,6.453891399E-2
4.444781042E0,1.002252102E-4,2.075007185E-3,6.372135133E-2,6.375520618E-2
4.454737042E0,-1.210619230E-4,-2.259276807E-3,6.332344562E-2,6.336385210E-2
4.464693042E0,1.173234545E-3,-1.635298133E-3,6.345900148E-2,6.349090918E-2
4.474649042E0,1.191711053E-4,3.461037762E-3,6.420385838E-2,6.429718823E-2
4.484605042E0,2.710160566E-3,1.347819343E-3,6.430079788E-2,6.437199853E-2
4.494562042E0,-2.023836132E-3,6.355494261E-4,6.530556083E-2,6.534000391E-2
4.504518042E0,-8.358001942E-4,2.171394415E-3,6.675112247E-2,6.679166016E-2
4.514474042E0,5.735183368E-4,-1.753590070E-3,6.496065110E-2,6.498684631E-2
4.524430042E0,-3.687080462E-4,7.654940709E-4,6.854712963E-2,6.855239534E-2
4.534386042E0,-2.405878156E-3,1.977056265E-3,7.011959702E-2,7.018870911E-2
4.544342042E0,-8.487279993E-4,-3.654464148E-3,7.023970783E-2,7.033983227E-2
4.554298042E0,-1.115428982E-3,-1.027109101E-4,7.214849442E-2,7.215718938E-2
4.564255042E0,-1.218226971E-3,3.249676898E-3,6.822618842E-2,6.831440012E-2
4.574211042E0,2.831503516E-4,-2.007782459E-3,6.793784350E-2,6.796809505E-2
4.584167042E0,-2.087354660E-4,8.074445650E-4,6.579293311E-2,6.579821870E-2
4.594123042E0,9.957791772E-4,-4.681795835E-4,6.480997056E-2,6.481931080E-2
4.604079042E0,-2.207737416E-3,-3.262339160E-4,6.629947573E-2,6.633702597E-2
4.614035042E0,-4.125629552E-3,-4.192367196E-4,6.445330381E-2,6.458656943E-2
4.623991042E0,-2.901451662E-4,3.540350590E-3,6.384876370E-2,6.394750107E-2
4.633948042E0,9.653177112E-4,-5.953200161E-5,6.554281712E-2,6.554995239E-2
4.643904042E0,-5.014555063E-5,-1.958850771E-4,6.780117750E-2,6.780147901E-2
4.653860042E0,-8.081861306E-4,9.993277490E-5,6.606778502E-2,6.607280355E-2
4.663816042E0,-1.104380935E-4,3.982074559E-4,6.682625413E-2,6.682753180E-2
4.673772042E0,1.594422851E-3,7.504476234E-4,6.651300937E-2,6.653634925E-2
4.683728042E0,-1.096168766E-3,7.259463891E-4,6.685309857E-2,6.686602555E-2
4.693684042E0,-4.107644781E-5,7.070088759E-4,6.519111991E-2,6.519496655E-2
4.703641042E0,1.807689900E-3,1.055350527E-3,6.650645286E-2,6.653938517E-2
4.713597042E0,-2.979661571E-3,-1.232828014E-3,6.729702652E-2,6.737423859E-2
4.723553042E0,-4.866763484E-4,-3.215285018E-3,6.789170951E-2,6.796954562E-2
4.733509042E0,3.946762299E-4,2.565979958E-4,6.497199833E-2,6.497370375E-2
4.743464625E0,8.985463064E-4,-3.202427179E-4,6.717149913E-2,6.717827206E-2
4.753420625E0,1.355148619E-3,-1.275473274E-3,6.789783388E-2,6.792333256E-2
4.763376625E0,4.238410620E-4,8.606482297E-4,6.755082309E-2,6.755763508E-2
4.773333625E0,-3.946872894E-4,-6.781592965E-4,6.321796775E-2,6.322283705E-2
4.783289625E0,-4.665926099E-4,1.452863216E-5,6.417085230E-2,6.417255025E-2
4.793245625E0,-4.904016387E-4,-2.075645141E-3,6.524477899E-2,6.527962915E-2
4.803201625E0,-1.862687059E-4,-1.488418318E-3,6.644107401E-2,6.645800479E-2
4.813157625E0,9.093132103E-4,-2.509324811E-3,6.709739566E-2,6.715045842E-2
4.823113625E0,-1.170691103E-4,-8.240770549E-4,6.566408277E-2,6.566935795E-2
4.833069625E0,-1.634872053E-3,2.614833415E-3,6.447683275E-2,6.455053928E-2
4.843026625E0,-1.362696989E-3,5.428940058E-4,6.713066995E-2,6.714669407E-2
4.852982625E0,1.717235078E-3,3.111651167E-4,6.785532087E-2,6.787775991E-2
4.862938625E0,-1.662049908E-3,-2.662083134E-4,6.427948922E-2,6.430152417E-2
4.872894625E0,-2.093352843E-3,-1.383412629E-3,6.746732444E-2,6.751396762E-2
4.882850625E0,1.909378334E-3,1.072288491E-3,6.670699269E-2,6.674292773E-2
4.892806625E0,-2.022079425E-4,1.462767832E-3,6.714743376E-2,6.716366903E-2
4.902762625E0,-1.455491525E-3,1.236399636E-3,6.520545483E-2,6.523341535E-2
4.912719625E0,-2.258806489E-6,4.488676786E-4,6.659516692E-2,6.659667968E-2
4.922675625E0,1.162075205E-3,-5.415622145E-4,6.698159128E-2,6.699386001E-2
4.932631625E0,1.389308600E-3,-2.327140421E-3,6.654196978E-2,6.659714335E-2
4.942587625E0,2.326741349E-3,6.462791935E-4,6.567085534E-2,6.571523905E-2
4.952543625E0,1.270794310E-3,-1.566503197E-4,6.606388092E-2,6.607628788E-2
4.962499625E0,9.424266173E-4,-1.523916610E-3,6.552299857E-2,6.554749295E-2
4.972455625E0,7.652292261E-4,-2.107033506E-3,6.530214846E-2,6.534061340E-2
4.982412625E0,6.235489855E-4,7.595960051E-5,6.614051014E-2,6.614349299E-2
4.992368625E0,1.644891454E-4,1.588028856E-3,6.682979316E-2,6.684886047E-2
5.002324625E0,-1.417428488E-3,-8.096145466E-4,6.501644850E-2,6.503693685E-2
5.012280625E0,7.569276495E-4,2.302422188E-3,6.390484422E-2,6.395078735E-2
5.022236625E0,-2.409038134E-3,-2.416432835E-3,6.456610560E-2,6.465620315E-2
5.032192625E0,2.865630668E-4,4.789019004E-4,6.571257114E-2,6.571494101E-2
5.042148625E0,-7.709781639E-4,6.197830662E-4,6.648328900E-2,6.649064788E-2
5.052105625E0,-3.437909763E-3,-8.037062362E-4,6.741590798E-2,6.750829442E-2
5.062061625E0,9.211036377E-5,6.626304239E-4,6.625583768E-2,6.625921513E-2
5.072017625E0,-1.107700868E-3,2.095730044E-3,6.870521605E-2,6.874609660E-2
5.081973625E0,1.002789941E-5,-7.988596335E-4,6.473682821E-2,6.474175781E-2
5.091929625E0,8.781638462E-4,-6.077215075E-4,6.304699183E-2,6.305603599E-2
5.101885625E0,-1.106562559E-5,1.911096275E-3,6.435940415E-2,6.438777301E-2
5.111841625E0,-1.638202462E-3,-1.473158598E-3,6.530471891E-2,6.534187184E-2
5.121798625E0,-1.100806985E-4,6.728162989E-4,6.561338156E-2,6.561692343E-2
5.131754625E0,-4.053839948E-4,-2.562867478E-3,6.765533239E-2,6.770507090E-2
5.141710625E0,-1.245611347E-3,3.522289917E-4,6.832005084E-2,6.833231270E-2
5.151666625E0,-1.018811716E-3,2.709161490E-3,6.826407462E-2,6.832540829E-2
5.161622625E0,-1.258496195E-3,-2.789050341E-4,6.601929665E-2,6.603187965E-2
5.171578625E0,-9.800251573E-4,7.571931928E-5,6.430353224E-2,6.431104448E-2
5.181534625E0,3.595449962E-4,-1.239350066E-3,6.387317181E-2,6.388620616E-2
5.191491625E0,-8.154857205E-4,-9.222757071E-4,6.621757150E-2,6.622901467E-2
5.201447625E0,5.833222531E-6,8.428674191E-4,6.730147451E-2,6.730675249E-2
5.211403625E0,4.756005947E-4,6.872890517E-4,7.077410817E-2,7.077904315E-2
5.221359625E0,9.636639152E-5,-3.023417667E-4,6.854131073E-2,6.854204530E-2
5.231315625E0,-4.521280061E-5,8.097067475E-4,6.738303602E-2,6.738791592E-2
5.241271625E0,-9.392360225E-4,1.301060431E-3,6.896495074E-2,6.898361656E-2
5.251227625E0,-2.409504959E-4,6.762221456E-4,6.435357034E-2,6.435757414E-2
5.261184625E0,5.614600377E-4,-2.154718153E-3,6.449791044E-2,6.453633472E-2
5.271140625E0,-1.715483144E-3,1.068706624E-3,6.515774131E-2,6.518908090E-2
5.281096625E0,-2.189792227E-3,-1.326274127E-3,6.474228948E-2,6.479288727E-2
5.291052625E0,1.362709445E-3,4.402734339E-5,6.315134466E-2,6.316606088E-2
5.301008625E0,7.773423567E-5,6.283242255E-4,6.836342067E-2,6.836635224E-2
5.310964625E0,-2.696997253E-4,-1.659375615E-3,6.669270992E-2,6.671389527E-2
5.320920625E0,-7.690425264E-4,-1.383738592E-3,6.776569784E-2,6.778418667E-2
5.330877625E0,-9.051037487E-4,1.228556968E-3,6.387074292E-2,6.388896905E-2
5.340833625E0,-1.906452468E-3,1.815783791E-3,6.583881378E-2,6.589143368E-2
5.350789625E0,2.863223199E-4,2.920448314E-3,6.276871264E-2,6.283726828E-2
5.360745625E0,-2.349674702E-3,7.132207975E-4,6.375594437E-2,6.380321385E-2
5.370701625E0,-5.266901571E-4,5.194824189E-4,6.694691628E-2,6.695100346E-2
5.380657625E0,-1.834088471E-4,-1.238737255E-3,6.728060544E-2,6.729225792E-2
5.390613625E0,1.854088274E-3,-5.839448422E-4,6.960720569E-2,6.963434295E-2
5.400570625E0,-2.042688429E-4,1.937269233E-3,6.849320233E-2,6.852089829E-2
5.410526625E0,1.595919719E-3,1.401016489E-4,6.493016332E-2,6.494992454E-2
5.420482625E0,-1.509059803E-3,-2.408543602E-3,6.459140778E-2,6.465391173E-2
5.430438625E0,2.079316415E-3,3.048134968E-4,6.693991274E-2,6.697289291E-2
5.440394625E0,1.067847712E-3,5.077458918E-4,6.334145367E-2,6.335248896E-2
5.450350625E0,1.532324823E-4,-3.568921238E-4,6.260921806E-2,6.261042276E-2
5.460306625E0,3.043294884E-3,-5.994923413E-5,6.479939818E-2,6.487085049E-2
5.470263625E0,1.801585313E-4,1.403177157E-3,6.847824901E-2,6.849286059E-2
5.480219625E0,-1.349827391E-3,1.595191658E-3,6.716451049E-2,6.719700990E-2
5.490175625E0,-2.234603977E-3,1.236179844E-3,6.936849654E-2,6.941548752E-2
5.500131625E0,7.433429128E-4,-3.569237888E-4,6.725767255E-2,6.726272720E-2
5.510087625E0,-1.248099725E-3,1.769258641E-3,6.850571930E-2,6.853992710E-2
5.520043625E0,1.622787910E-3,1.341554336E-3,6.514214724E-2,6.517616555E-2
5.529999625E0,-4.375379067E-4,1.526400447E-4,6.625845283E-2,6.626007327E-2
5.539956625E0,-9.880133439E-4,-6.090244278E-4,6.583554298E-2,6.584577283E-2
5.549912625E0,-3.532083938E-4,2.429010347E-4,6.445049495E-2,6.445192050E-2
5.559868625E0,-7.899667835E-4,7.984368131E-4,6.586383283E-2,6.587340908E-2
5.569824625E0,6.838135887E-4,9.976746514E-4,6.603121758E-2,6.604229440E-2
5.579780625E0,1.241213176E-3,1.736925915E-4,6.666558236E-2,6.667736235E-2
5.589736625E0,1.317202928E-3,5.583046004E-4,6.617807597E-2,6.619353795E-2
5.599692625E0,-2.031189390E-3,5.292762071E-4,6.617088616E-2,6.620416935E-2
5.609649625E0,1.646720688E-3,-1.444955356E-3,6.445675343E-2,6.449397373E-2
5.619605625E0,-8.220296586E-4,-5.903476849E-4,6.325566769E-2,6.326376323E-2
5.629561625E0,-1.136140316E-3,9.046206251E-4,6.589356065E-2,6.590956295E-2
5.639517625E0,-1.118563465E-3,2.859681845E-4,6.634470075E-2,6.635474572E-2
5.649473625E0,-1.923989039E-3,3.440212458E-4,6.615045667E-2,6.617932458E-2
5.659429625E0,5.402339157E-4,2.537666820E-3,6.898805499E-2,6.903682595E-2
5.669386625E0,4.291005898E-4,1.094580628E-3,6.812181324E-2,6.813195779E-2
5.679342625E0,4.693144001E-4,-9.653745219E-4,6.869012862E-2,6.869851508E-2
5.689298625E0,5.966913886E-5,1.357598230E-3,7.076781243E-2,7.078085836E-2
5.699254625E0,1.006422797E-3,4.593133926E-4,6.794033200E-2,6.794933824E-2
5.709210625E0,-1.875931164E-3,4.120022058E-4,6.711401790E-2,6.714149434E-2
5.719166625E0,-1.091940794E-5,-1.789527014E-4,6.835451722E-2,6.835475234E-2
5.729122625E0,5.179205909E-4,5.512898788E-4,6.605820358E-2,6.606253418E-2
5.739079625E0,6.875639083E-4,-9.278301150E-4,6.485711783E-2,6.486739818E-2
5.749035625E0,1.022180077E-4,8.919239044E-4,6.639023870E-2,6.639630842E-2
5.758991625E0,-1.808333676E-3,1.789955422E-4,6.899374723E-2,6.901767359E-2
5.768947625E0,-4.787141224E-4,1.046870835E-3,6.707333773E-2,6.708321504E-2
5.778903625E0,5.953387590E-4,2.197623253E-3,6.787681580E-2,6.791499171E-2
5.788859625E0,-3.208399285E-3,3.497704398E-3,6.735406816E-2,6.752109492E-2
5.798815625E0,1.065974357E-3,8.012540638E-4,6.896074861E-2,6.897364104E-2
5.808772625E0,-1.146182185E-4,1.035947353E-4,6.732074916E-2,6.732092644E-2
5.818728625E0,1.372757368E-3,-1.540640369E-3,6.587411463E-2,6.590642620E-2
5.828684625E0,7.988096913E-4,-2.499055117E-4,6.651566923E-2,6.652093507E-2
5.838640625E0,-2.841997892E-3,5.333302543E-4,6.674577296E-2,6.680837972E-2
5.848596625E0,-2.015121281E-3,1.341253519E-3,6.668069214E-2,6.672461599E-2
5.858552625E0,-1.698170090E-4,1.500776969E-3,6.455309689E-2,6.457076341E-2
5.868508625E0,-1.355605782E-3,1.633446664E-4,6.571868062E-2,6.573286340E-2
5.878465625E0,-5.960724084E-4,-1.234815456E-3,6.441532820E-2,6.442991991E-2
5.888421625E0,7.112127496E-4,-1.163123176E-3,6.642111391E-2,6.643510406E-2
5.898377625E0,-1.692290185E-3,-4.477985203E-4,6.693910062E-2,6.696198595E-2
5.908333625E0,-1.474301913E-3,8.296938613E-4,6.725554168E-2,6.727681506E-2
5.918289625E0,-1.570974593E-3,-1.332793385E-3,6.620199978E-2,6.623404770E-2
5.928245625E0,1.548835891E-3,5.002319813E-4,6.556279212E-2,6.558299197E-2
5.938201625E0,9.003562154E-4,-1.186082140E-3,6.794259697E-2,6.795891344E-2
5.948158625E0,1.819822355E-3,-6.076088175E-4,6.654952466E-2,6.657717458E-2
5.958114625E0,6.980989128E-4,-3.396952525E-4,6.655698270E-2,6.656151050E-2
5.968070625E0,7.280462887E-4,6.153723225E-4,6.662286073E-2,6.662968037E-2
5.978026625E0,1.145896269E-3,4.012538120E-4,6.458288431E-2,6.459429564E-2
5.987982625E0,1.636014320E-3,4.019141197E-4,6.764113903E-2,6.766211471E-2
5.997938625E0,-3.363227006E-4,9.245518595E-5,6.704033166E-2,6.704123903E-2
6.007894625E0,1.466581132E-3,1.506376080E-3,6.661923975E-2,6.665240531E-2
6.017851625E0,3.921483178E-3,9.250082076E-4,6.280639023E-2,6.293549335E-2
6.027807625E0,8.437996730E-4,7.282951847E-4,6.617967039E-2,6.618905639E-2
6.037763625E0,2.807343844E-5,-5.622729659E-4,6.480867416E-2,6.481111930E-2
6.047719625E0,2.556057181E-3,4.502404481E-4,6.680555642E-2,6.685595346E-2
6.057675625E0,1.236194512E-3,1.055843197E-3,6.701248884E-2,6.703220601E-2
6.067631625E0,-1.442241482E-4,1.130271703E-4,6.656241417E-2,6.656266638E-2
6.077588625E0,-2.872359473E-4,9.065680206E-5,6.617145985E-2,6.617214537E-2
6.087544625E0,2.699999139E-3,-1.539392397E-4,6.451899558E-2,6.457564931E-2
6.097500625E0,-1.850278000E-3,-4.096031189E-4,6.923119724E-2,6.925712941E-2
6.107456625E0,-5.589287030E-4,4.681805149E-4,6.814650446E-2,6.815040473E-2
6.117412625E0,-1.338169561E-3,-6.293086335E-4,6.892254949E-2,6.893841132E-2
6.127368625E0,2.838188084E-3,-9.985715151E-4,6.670942903E-2,6.677724446E-2
6.137324625E0,-1.115540974E-3,-1.228668727E-3,6.653179973E-2,6.655249382E-2
6.147280625E0,6.576690357E-4,3.850981593E-4,6.319971383E-2,6.320430885E-2
6.157237625E0,1.736515551E-3,-3.797616810E-4,6.522770971E-2,6.525192579E-2
6.167193625E0,-5.213841796E-4,-1.220792532E-3,6.662671268E-2,6.663993561E-2
6.177149625E0,2.457627794E-3,9.233178571E-4,6.699316204E-2,6.704458375E-2
6.187105625E0,2.742310520E-3,-6.457660347E-4,6.631324440E-2,6.637306430E-2
6.197061625E0,-8.383602835E-5,1.130562276E-3,6.774175912E-2,6.775124448E-2
6.207017625E0,-1.126533840E-3,-2.597561106E-4,6.829800457E-2,6.830778857E-2
6.216974625E0,7.938715862E-4,-2.624196932E-4,6.673446298E-2,6.673970067E-2
6.226930625E0,1.845962601E-3,-2.144576982E-3,6.521708518E-2,6.527844199E-2
6.236886625E0,-8.701952174E-4,5.550691858E-4,6.504397839E-2,6.505216727E-2
6.246842625E0,-2.120867372E-3,-2.061622217E-4,6.808499992E-2,6.811833670E-2
6.256798625E0,2.357639605E-4,1.445530914E-3,6.345882267E-2,6.347572228E-2
6.266754625E0,-2.408181550E-3,2.528177574E-4,6.901243329E-2,6.905489993E-2
6.276710625E0,-2.355745528E-4,1.010486856E-3,6.806647778E-2,6.807438561E-2
6.286667625E0,-4.500994692E-4,-1.835757867E-4,6.574600190E-2,6.574779886E-2
6.296623625E0,-5.105532473E-4,6.654392928E-4,6.634707749E-2,6.635237875E-2
6.306579625E0,3.025759943E-4,-1.378414221E-3,6.437064707E-2,6.438611483E-2
6.316535625E0,1.620574389E-3,-2.614846453E-4,6.591660529E-2,6.593704186E-2
6.326491625E0,-1.293614390E-3,-1.087104902E-4,6.635846943E-2,6.637116634E-2
6.336447625E0,-1.315452275E-3,-1.497016288E-3,6.746661663E-2,6.749604308E-2
6.346403625E0,-2.369390568E-3,-1.585775986E-3,6.858443469E-2,6.864366962E-2
6.356360625E0,-1.761657186E-3,-3.165137023E-4,6.904356182E-2,6.906675789E-2
6.366316625E0,-7.505621761E-5,7.872283459E-5,6.691600382E-2,6.691609222E-2
6.376272625E0,1.039082417E-4,-5.023786798E-4,6.653703749E-2,6.653901517E-2
6.386228625E0,-1.228989800E-3,-4.496807232E-4,6.273435056E-2,6.274799893E-2
6.396184625E0,5.060596159E-4,-1.810289919E-3,6.117826700E-2,6.120713683E-2
6.406140625E0,-1.443166984E-3,-5.471175537E-4,6.362040341E-2,6.363912160E-2
6.416096625E0,-2.801646478E-4,-7.520616055E-5,6.581883878E-2,6.581947801E-2
6.426053625E0,1.510866452E-3,1.310291700E-3,7.017938048E-2,7.020787011E-2
6.436009625E0,-2.572061494E-4,2.125751227E-3,7.199832052E-2,7.203015432E-2
6.445965625E0,6.112561096E-4,1.537782140E-3,6.797554344E-2,6.799568305E-2
6.455921625E0,-1.274794573E-3,-1.035629772E-3,6.720215827E-2,6.722222628E-2
6.465877625E0,-5.794597091E-4,-1.284427010E-3,6.655510515E-2,6.657001989E-2
6.475833625E0,2.515399829E-3,-9.328890592E-4,6.201201677E-2,6.207002290E-2
6.485789625E0,-2.921613632E-4,1.878072508E-3,6.515523791E-2,6.518295438E-2
6.495746625E0,2.560616937E-3,5.201259628E-4,6.521888822E-2,6.527120859E-2
6.505702625E0,-1.017252216E-4,-2.279582433E-3,6.542780250E-2,6.546758117E-2
6.515658625E0,-9.731113678E-4,-1.396478154E-3,6.612368673E-2,6.614558975E-2
6.525614625E0,-3.791039344E-4,3.368435428E-4,6.793647259E-2,6.793836539E-2
6.535570625E0,-1.900567906E-3,2.308497205E-4,6.681820750E-2,6.684563040E-2
6.545526625E0,-7.126934361E-5,7.071075961E-4,6.797549874E-2,6.797921380E-2
6.555483625E0,6.761285476E-6,-1.690723002E-4,6.504415721E-2,6.504437730E-2
6.565439625E0,-3.376844805E-3,-1.754406840E-4,6.697811931E-2,6.706342019E-2
6.575395625E0,1.027757418E-3,-1.344035380E-3,6.433599442E-2,6.435823875E-2
6.585351625E0,2.867792500E-4,-1.287002116E-3,6.856981665E-2,6.858249319E-2
6.595307625E0,1.200776082E-3,-1.481945626E-3,6.586244702E-2,6.589005960E-2
6.605263625E0,4.836189328E-4,-2.541523427E-3,6.916335970E-2,6.921172989E-2
6.615219625E0,1.320816809E-4,-1.139368862E-3,6.597795337E-2,6.598792267E-2
6.625176625E0,-1.790147624E-3,-4.635108635E-4,6.770687550E-2,6.773212282E-2
6.635132625E0,-1.752330805E-3,3.958912566E-4,6.656491011E-2,6.658914815E-2
6.645088625E0,9.083551122E-4,1.892339438E-3,6.623762101E-2,6.627087214E-2
6.655044625E0,-7.220320404E-4,-1.364706084E-3,6.572922319E-2,6.574735382E-2
6.665000625E0,-2.053917618E-3,-2.009724267E-3,6.926549226E-2,6.932507474E-2
6.674956625E0,-1.966565615E-3,4.707444459E-4,6.648488343E-2,6.651562752E-2
6.684912625E0,3.843732411E-4,2.709981054E-4,6.567149609E-2,6.567318008E-2
6.694869625E0,-9.634525049E-4,-6.163120270E-5,6.718470156E-2,6.719163760E-2
6.704825625E0,-1.397874788E-3,5.603628233E-4,6.785298139E-2,6.786969238E-2
6.714781625E0,3.382398281E-4,-1.197324134E-3,6.769239157E-2,6.770382462E-2
6.724737625E0,-9.163981304E-5,-2.704747021E-4,6.526778638E-2,6.526841115E-2
6.734693625E0,5.728189135E-4,-1.269426197E-3,6.533650309E-2,6.535134429E-2
6.744649917E0,1.737345476E-3,8.979439735E-5,6.544767320E-2,6.547079013E-2
6.754605917E0,2.243079711E-3,8.344138041E-4,6.565033644E-2,6.569394438E-2
6.764562917E0,1.498985104E-3,-1.390206628E-3,6.570993364E-2,6.574172959E-2
6.774518917E0,-2.259800676E-3,5.184812471E-4,6.832755357E-2,6.836687867E-2
6.784474917E0,1.842135913E-3,1.364101656E-3,6.855680794E-2,6.859511755E-2
6.794430917E0,-1.978455111E-4,1.619514078E-4,6.624039263E-2,6.624088606E-2
6.804386917E0,1.262119855E-3,-8.170539513E-4,6.635369360E-2,6.637072531E-2
6.814342917E0,3.843419254E-4,2.250410616E-4,6.803467870E-2,6.803613648E-2
6.824298917E0,2.601044253E-4,-6.355559453E-4,6.720145047E-2,6.720495912E-2
6.834255917E0,1.211119234E-3,-9.999424219E-5,6.558411568E-2,6.559537361E-2
6.844211917E0,-6.203185767E-4,-4.122853279E-4,6.613183767E-2,6.613603199E-2
6.854167917E0,5.698479945E-4,4.055714235E-4,6.536538154E-2,6.536912359E-2
6.864123917E0,2.779584611E-3,-1.087701879E-3,6.691247225E-2,6.697901260E-2
6.874079917E0,9.937933646E-5,9.980145842E-5,6.495904177E-2,6.495919446E-2
6.884035917E0,7.186129224E-4,3.539575264E-3,6.560394168E-2,6.570328882E-2
6.893992917E0,7.729413919E-4,1.517437398E-3,6.683298945E-2,6.685468221E-2
6.903948917E0,3.694277257E-4,5.539227277E-5,6.622730941E-2,6.622836293E-2
6.913904917E0,-1.227936242E-3,-2.086854540E-3,6.587284058E-2,6.591732637E-2
6.923860917E0,-6.373877404E-4,8.740359917E-4,6.787937135E-2,6.788799052E-2
6.933816917E0,-1.094918814E-3,-4.391688854E-4,6.620237976E-2,6.621289001E-2
6.943772917E0,-1.710508135E-3,-7.223980501E-4,6.686015427E-2,6.688593220E-2
6.953728917E0,6.644990062E-4,8.962713182E-4,6.687693298E-2,6.688623944E-2
6.963685917E0,4.058935447E-4,-3.048796207E-4,6.607723981E-2,6.607918978E-2
6.973641917E0,-1.946493285E-4,-3.690617159E-4,6.720322371E-2,6.720451898E-2
6.983597917E0,5.158368731E-4,2.033998258E-3,6.868848950E-2,6.872053424E-2
6.993553917E0,7.240960840E-4,1.503230073E-3,6.889913976E-2,6.891934036E-2
7.003509917E0,1.726112678E-3,1.948569901E-3,6.750205159E-2,6.755222690E-2
7.013465917E0,3.987931414E-4,-7.454836741E-4,6.889221817E-2,6.889740566E-2
7.023421917E0,6.337609375E-4,-2.093025483E-3,6.524147093E-2,6.527811224E-2
7.033378917E0,1.375451335E-3,-1.966525801E-3,6.447554380E-2,6.452018938E-2
7.043334917E0,2.093186835E-3,2.631843090E-4,6.320364773E-2,6.323884711E-2
7.053290917E0,9.741389658E-5,2.093883231E-4,6.408595294E-2,6.408636904E-2
7.063246917E0,7.354514673E-4,2.482347190E-4,6.487133354E-2,6.487597725E-2
7.073202917E0,-2.496827394E-3,1.139860600E-3,6.489716470E-2,6.495518005E-2
7.083158917E0,-1.268711640E-4,2.031596377E-4,6.865466386E-2,6.865508168E-2
7.093114917E0,8.023057599E-4,1.930398867E-4,6.978304684E-2,6.978792579E-2
7.103071917E0,1.491017523E-3,-1.253243536E-4,6.631688029E-2,6.633375800E-2
7.113027917E0,-3.167117713E-3,1.572370529E-4,6.791184843E-2,6.798584055E-2
7.122983917E0,1.066194614E-3,-2.551931888E-3,6.552710384E-2,6.558544400E-2
7.132939917E0,1.113598817E-3,3.003133461E-4,6.493801624E-2,6.494825820E-2
7.142895917E0,2.176593523E-3,1.046650112E-3,6.426139176E-2,6.430676097E-2
7.152851917E0,1.705214148E-3,-1.097993925E-3,6.398043036E-2,6.401256764E-2
7.162808917E0,-1.143186237E-3,-2.503050491E-4,7.077201456E-2,7.078168953E-2
7.172764917E0,2.602549735E-3,-1.478022896E-3,6.783401221E-2,6.790000758E-2
7.182720917E0,5.551271606E-4,8.570421487E-4,6.983406097E-2,6.984152603E-2
7.192676917E0,1.704014838E-3,2.325243317E-3,6.963405758E-2,6.969370415E-2
7.202632917E0,-2.719538752E-3,-4.681367427E-4,7.001688331E-2,7.007124226E-2
7.212588917E0,2.449390711E-3,-1.427940093E-3,6.454488635E-2,6.460712717E-2
7.222544917E0,5.587645574E-4,6.226245314E-4,6.725800037E-2,6.726320312E-2
7.232501917E0,-1.319296658E-3,-3.622118384E-4,6.507447362E-2,6.508885356E-2
7.242457917E0,-5.204288755E-4,-1.222351566E-4,6.808228791E-2,6.808438672E-2
7.252413917E0,2.124729799E-4,-1.459940337E-3,6.956221163E-2,6.957785465E-2
7.262369917E0,9.457301348E-5,6.543816999E-4,6.776638329E-2,6.776960870E-2
7.272325917E0,-1.856192364E-3,-1.517426223E-3,6.676423550E-2,6.680726887E-2
7.282281917E0,2.084247302E-3,-3.184685484E-4,6.432988495E-2,6.436442811E-2
7.292237917E0,4.346853821E-4,3.393320367E-4,6.562551111E-2,6.562782799E-2
7.302194917E0,1.036293572E-3,-1.184709370E-3,6.585512310E-2,6.587393020E-2
7.312150917E0,-1.567745348E-3,-7.285093889E-4,6.768471003E-2,6.770678343E-2
7.322106917E0,2.863073023E-4,6.397161633E-4,6.960999966E-2,6.961352786E-2
7.332062917E0,3.121399786E-4,7.659494877E-4,6.854100525E-2,6.854599559E-2
7.342018917E0,-3.433242906E-3,-1.038657501E-4,6.528995186E-2,6.538023982E-2
7.351974917E0,2.019579522E-3,-2.515624277E-3,6.200467795E-2,6.208854286E-2
7.361931917E0,2.497335663E-4,3.270106390E-4,6.432991475E-2,6.433123063E-2
7.371887917E0,5.812972086E-4,-2.775266767E-4,6.432538480E-2,6.432860994E-2
7.381843917E0,1.589803840E-3,-3.398433328E-4,6.804620475E-2,6.806562238E-2
7.391799917E0,-1.678427332E-3,7.765535265E-4,6.879748404E-2,6.882233623E-2
7.401755917E0,1.396815293E-3,-1.212047413E-3,6.880677491E-2,6.883162373E-2
7.411711917E0,3.540737089E-5,-6.511854008E-4,6.507834792E-2,6.508161541E-2
7.421667917E0,-5.635579582E-4,-1.421181485E-3,6.510098279E-2,6.511893207E-2
7.431624917E0,2.034888137E-3,2.599925268E-3,6.311107427E-2,6.319737397E-2
7.441580917E0,3.368911566E-4,-1.187481917E-3,6.644952297E-2,6.646098639E-2
7.451536917E0,-4.929498537E-4,-1.134285703E-4,6.649106741E-2,6.649299144E-2
7.461492917E0,6.907158531E-4,-6.985729560E-4,6.631096452E-2,6.631824115E-2
7.471448917E0,1.987142721E-3,-1.117222011E-3,6.996002793E-2,6.999716015E-2
7.481404917E0,-5.803471431E-4,9.303633124E-4,6.956382096E-2,6.957246269E-2
7.491360917E0,-1.007784624E-3,-1.525870524E-3,6.820001453E-2,6.822452560E-2
7.501317917E0,-1.869715285E-3,-6.374837831E-4,6.520225853E-2,6.523217563E-2
7.511273917E0,-5.556992255E-5,-6.681093946E-4,6.616232544E-2,6.616572199E-2
7.521229917E0,1.763104694E-3,-6.355205551E-4,6.551963836E-2,6.554643724E-2
7.531185917E0,1.474684337E-3,-7.902504876E-4,6.572789699E-2,6.574918731E-2
7.541141917E0,2.532027429E-4,5.982816219E-6,6.638383120E-2,6.638431436E-2
7.551097917E0,-1.102878945E-3,1.657143235E-3,6.571404636E-2,6.574418875E-2
7.561054917E0,1.202045474E-3,-2.518318594E-3,6.673403829E-2,6.679235517E-2
7.571010917E0,1.785011496E-3,7.213838398E-5,6.588289142E-2,6.590710775E-2
7.580966917E0,1.221763785E-3,3.348020837E-4,6.402365118E-2,6.403618282E-2
7.590922917E0,-6.949133240E-4,2.525104210E-4,6.409821659E-2,6.410248074E-2
7.600878917E0,2.573748352E-4,-1.020372845E-3,6.411637366E-2,6.412500896E-2
7.610834917E0,-2.563489834E-4,-4.722941667E-4,6.555021554E-2,6.555241822E-2
7.620790917E0,1.165053225E-3,-6.418908015E-4,6.675841659E-2,6.677166734E-2
7.630747917E0,-5.239234306E-4,1.901694573E-3,6.865166128E-2,6.867999370E-2
7.640703917E0,-2.438875614E-3,5.954951048E-4,6.972464919E-2,6.976983183E-2
7.650659917E0,-3.094121348E-4,-1.471383497E-3,6.739890575E-2,6.741567475E-2
7.660615917E0,-5.284585059E-4,9.360536933E-5,6.489603966E-2,6.489825879E-2
7.670571917E0,2.336303936E-3,9.708506986E-4,6.533733010E-2,6.538629499E-2
7.680527917E0,-3.267954569E-3,1.133118756E-3,6.588903069E-2,6.597975334E-2
7.690484917E0,-1.330533996E-5,1.104888506E-3,6.854712963E-2,6.855603501E-2
7.700440917E0,-2.183555625E-5,1.445017755E-3,6.554304063E-2,6.555897138E-2
7.710396917E0,-1.589105930E-3,4.130434245E-4,6.800406426E-2,6.802388271E-2
7.720352917E0,-1.026809914E-3,-1.686291769E-3,6.700726599E-2,6.703634547E-2
7.730308917E0,5.271446425E-4,9.952448308E-4,6.905816495E-2,6.906734786E-2
7.740265250E0,9.527590591E-4,7.329396904E-4,6.669837981E-2,6.670921091E-2
7.750221250E0,1.796433935E-4,1.270705834E-4,6.604111195E-2,6.604147852E-2
7.760178250E0,-1.333479537E-3,-8.156755939E-4,6.767261028E-2,6.769066167E-2
7.770134250E0,-2.317251172E-3,6.103701890E-5,6.749470532E-2,6.753449951E-2
7.780090250E0,3.667569254E-4,1.018465497E-3,6.835564971E-2,6.836422039E-2
7.790046250E0,-1.933148946E-3,1.486772671E-4,6.945899874E-2,6.948605382E-2
7.800002250E0,-1.318622380E-4,-1.504999585E-3,6.759515405E-2,6.761203489E-2
7.809958250E0,6.282039685E-4,4.918379709E-4,6.682389975E-2,6.682866243E-2
7.819914250E0,8.327715332E-4,1.282217912E-3,6.724111736E-2,6.725849727E-2
7.829871250E0,-2.096971963E-3,7.879352197E-4,6.632126123E-2,6.635908245E-2
7.839827250E0,-1.435510931E-3,2.360355109E-3,6.732400507E-2,6.738066211E-2
7.849783250E0,-1.058141119E-3,1.464318484E-5,7.094457000E-2,7.095246219E-2
7.859739250E0,1.241441933E-3,-7.418282330E-4,7.110193372E-2,7.111663986E-2
7.869695250E0,-4.038589541E-4,-8.286479861E-4,6.741505116E-2,6.742135331E-2
7.879651250E0,3.222387750E-5,-5.253003910E-4,6.939709187E-2,6.939908745E-2
7.889607250E0,-9.326393483E-4,-7.021343336E-4,6.688786298E-2,6.689804947E-2
7.899564250E0,1.409893273E-3,-2.452059649E-3,6.322280318E-2,6.328604299E-2
7.909520250E0,-8.495325455E-4,1.486223191E-3,6.063581258E-2,6.065997306E-2
7.919476250E0,-5.277572200E-6,5.491776392E-4,6.550100446E-2,6.550330685E-2
7.929432250E0,-2.947004978E-3,1.030144282E-3,6.835404783E-2,6.842530154E-2
7.939388250E0,-4.353623372E-4,-2.196191810E-3,6.733439863E-2,6.737161151E-2
7.949344250E0,-1.460679341E-3,3.157025203E-4,6.613571197E-2,6.615259367E-2
7.959301250E0,2.590931486E-3,-1.325137913E-3,6.844128668E-2,6.850312868E-2
7.969257250E0,9.970297106E-4,4.505831748E-5,6.651848555E-2,6.652597251E-2
7.979213250E0,4.395063734E-4,-9.233290330E-4,6.654085219E-2,6.654870932E-2
7.989169250E0,-2.205545083E-3,4.476662725E-4,6.478583068E-2,6.482490795E-2
7.999125250E0,-1.369119855E-3,3.193486482E-4,6.321975589E-2,6.323538572E-2
8.009081250E0,1.740387059E-3,-1.213300042E-3,6.022929400E-2,6.026664832E-2
8.019037250E0,1.845636754E-3,2.047047019E-6,6.592215598E-2,6.594798729E-2
8.028994250E0,3.628514241E-5,6.494615227E-4,6.532161683E-2,6.532485547E-2
8.038950250E0,-3.228674177E-4,4.465496168E-4,6.964040548E-2,6.964258557E-2
8.048906250E0,2.129606437E-4,1.374394633E-3,6.814557314E-2,6.815976417E-2
8.058862250E0,-1.387689961E-3,2.560191788E-3,6.723067164E-2,6.729371052E-2
8.068818250E0,-1.525109168E-3,4.701428115E-4,6.508096308E-2,6.510052801E-2
8.078774250E0,2.099392004E-3,-1.379319467E-3,6.378335506E-2,6.383279996E-2
8.088731250E0,1.287394203E-3,-1.131113619E-3,6.328853965E-2,6.331173708E-2
8.098687250E0,2.281890484E-4,-1.010279171E-3,6.260950863E-2,6.261807491E-2
8.108643250E0,1.835140400E-3,2.504027449E-3,6.733635813E-2,6.740788544E-2
8.118599250E0,-1.476473873E-3,-7.071243599E-4,6.540793180E-2,6.542841541E-2
8.128555250E0,-1.657568617E-3,-4.954030737E-4,6.823008507E-2,6.825201438E-2
8.138511250E0,7.122763200E-4,-1.448852941E-3,6.903727353E-2,6.905614852E-2
8.148467250E0,-2.591374796E-3,-1.127449796E-4,7.109136879E-2,7.113867199E-2
8.158424250E0,-9.950303938E-4,-5.478598177E-4,6.573536247E-2,6.574517560E-2
8.168380250E0,-6.837069523E-4,4.146061838E-4,6.578197330E-2,6.578683276E-2
8.178336250E0,-5.524817389E-4,7.436610758E-6,6.468581408E-2,6.468817384E-2
8.188292250E0,9.095936548E-4,1.255926676E-3,6.335263699E-2,6.337161294E-2
8.198248250E0,1.100772060E-4,1.199178398E-3,6.547881663E-2,6.548988909E-2
8.208204250E0,3.777248785E-4,3.067525104E-4,6.569506228E-2,6.569686432E-2
8.218161250E0,-1.053997781E-3,-1.413266174E-3,6.991114467E-2,6.993337102E-2
8.228117250E0,-6.457350682E-4,-1.241492108E-3,6.782855093E-2,6.784298489E-2
8.238073250E0,1.796161640E-3,-1.491615549E-4,6.708925962E-2,6.711346514E-2
8.248029250E0,-3.692547325E-4,7.256865501E-4,6.693612784E-2,6.694107992E-2
8.257985250E0,2.364150714E-5,3.707297146E-4,6.805298477E-2,6.805399868E-2
8.267941250E0,3.225027584E-3,-1.970455050E-3,6.580819935E-2,6.591663369E-2
8.277897250E0,1.589355059E-3,-1.013590954E-3,6.652846932E-2,6.655516995E-2
8.287854250E0,1.565120183E-3,-3.209030256E-4,6.544829160E-2,6.546778943E-2
8.297810250E0,-5.770702846E-4,2.509516664E-3,6.773629040E-2,6.778521757E-2
8.307766250E0,-2.833300503E-3,1.242118888E-3,6.688993424E-2,6.696143483E-2
8.317722250E0,-2.179280855E-4,-7.955534384E-4,6.871856749E-2,6.872351792E-2
8.327678250E0,-1.238451339E-3,3.144526854E-4,6.850045174E-2,6.851236773E-2
8.337634250E0,1.034873887E-3,-6.129071116E-4,6.694170088E-2,6.695250507E-2
8.347590250E0,8.979873965E-4,-4.033166915E-4,6.484153122E-2,6.484900320E-2
8.357547250E0,3.182135988E-4,3.319764510E-4,6.419829279E-2,6.419993976E-2
8.367503250E0,5.411201855E-4,3.544548061E-3,6.283129007E-2,6.293351765E-2
8.377459250E0,5.647143116E-4,2.678461839E-3,6.538920105E-2,6.544647182E-2
8.387415250E0,8.646398783E-6,-1.500570215E-3,6.594899297E-2,6.596606294E-2
8.397371250E0,1.518036937E-3,1.100071706E-3,6.489158422E-2,6.491865908E-2
8.407327250E0,-1.599992160E-3,8.782306686E-4,6.611344963E-2,6.613863838E-2
8.417284250E0,-1.733255805E-3,1.079772599E-3,6.516484171E-2,6.519683029E-2
8.427240250E0,5.695796572E-4,-4.981504753E-4,6.664023548E-2,6.664453136E-2
8.437196250E0,-1.453119796E-3,2.753613517E-4,6.629233807E-2,6.630883401E-2
8.447152250E0,1.465438283E-3,-3.303308040E-5,6.552214921E-2,6.553854314E-2
8.457108250E0,1.628303668E-3,1.127736643E-3,6.647972018E-2,6.650922009E-2
8.467064250E0,1.845617662E-3,-1.844351180E-3,6.463281810E-2,6.468546291E-2
8.477020250E0,2.458930248E-3,6.139166653E-4,6.441362202E-2,6.446346200E-2
8.486977250E0,-9.642969817E-4,-3.312397748E-4,6.384823471E-2,6.385637528E-2
8.496933250E0,3.476333804E-4,4.762522876E-4,6.484002620E-2,6.484270709E-2
8.506889250E0,-1.030552434E-3,-1.718192361E-3,6.763873994E-2,6.766840743E-2
8.516845250E0,8.300290210E-4,-2.797152847E-4,6.615193933E-2,6.615773777E-2
8.526801250E0,1.351742190E-3,-6.070174277E-4,6.676926464E-2,6.678570489E-2
8.536757250E0,-1.151852543E-3,2.766586840E-5,6.792772561E-2,6.793749654E-2
8.546714250E0,-1.008840743E-3,3.080964088E-4,6.424936652E-2,6.425802504E-2
8.556670250E0,-1.680494053E-3,-1.750797965E-3,6.431408226E-2,6.435985186E-2
8.566626250E0,2.994951559E-3,2.108921297E-3,6.636577845E-2,6.646678744E-2
8.576582250E0,7.360108430E-4,2.300785854E-4,6.447038054E-2,6.447499217E-2
8.586538250E0,5.291006528E-5,-2.745902166E-4,6.716097146E-2,6.716155364E-2
8.596494250E0,7.233605720E-5,-2.086525783E-4,6.790883094E-2,6.790919001E-2
8.606450250E0,-3.460613312E-3,5.716541782E-4,6.570160389E-2,6.579516233E-2
8.616407250E0,1.933799475E-3,-6.371736526E-5,6.391412020E-2,6.394339998E-2
8.626363250E0,-1.029766165E-3,7.091322914E-4,6.482491642E-2,6.483697306E-2
8.636319250E0,6.722263061E-5,6.094388664E-4,6.463268399E-2,6.463559217E-2
8.646275250E0,-3.660735674E-4,8.512530476E-4,6.509527564E-2,6.510187057E-2
8.656231250E0,-4.102780949E-4,-2.222711220E-3,6.552111357E-2,6.556008769E-2
8.666187250E0,-3.084357828E-3,2.277498133E-3,6.882423162E-2,6.893094457E-2
8.676144250E0,1.589322463E-3,-4.638535902E-4,6.597333401E-2,6.599410509E-2
8.686100250E0,2.205045195E-3,1.802762970E-3,6.971267611E-2,6.977083480E-2
8.696056250E0,-1.240041107E-3,6.999196485E-4,6.695675105E-2,6.697189038E-2
8.706012250E0,-1.947909594E-3,-1.986144111E-3,6.981645525E-2,6.987185802E-2
8.715968250E0,5.320723867E-4,-5.593169481E-4,6.686814129E-2,6.687259720E-2
8.725924250E0,5.057071103E-4,-9.782323614E-4,6.621672958E-2,6.622588584E-2
8.735880250E0,2.684602514E-3,3.404961899E-3,6.743417680E-2,6.757343455E-2
8.745836750E0,-4.020011984E-4,1.899743453E-3,6.472255290E-2,6.475167553E-2
8.755792750E0,1.320193289E-3,-4.661828279E-4,6.238411367E-2,6.239982272E-2
8.765748750E0,1.599026262E-3,1.223757863E-4,6.770857424E-2,6.772756371E-2
8.775704750E0,1.842692960E-3,-2.821041271E-4,6.864297390E-2,6.866828210E-2
8.785660750E0,-1.080392627E-3,1.501148567E-3,6.983660161E-2,6.986108803E-2
8.795616750E0,-7.411534898E-5,-2.106903121E-4,6.850665063E-2,6.850701470E-2
8.805573750E0,5.957530811E-5,-4.412359558E-3,6.600354612E-2,6.615089241E-2
8.815529750E0,3.045327961E-3,5.771890283E-4,6.315588951E-2,6.323190294E-2
8.825485750E0,1.340638380E-3,1.156426035E-3,6.390157342E-2,6.392609575E-2
8.835441750E0,2.068607137E-5,-2.455053851E-3,6.487099081E-2,6.491743345E-2
8.845397750E0,1.023366349E-3,1.958869398E-3,6.726890057E-2,6.730519618E-2
8.855353750E0,5.483513232E-4,-7.286928594E-4,6.783096492E-2,6.783709520E-2
8.865309750E0,1.155019505E-3,-1.023238525E-3,6.816412508E-2,6.818158869E-2
8.875266750E0,-1.070149941E-3,1.581319608E-3,6.852644682E-2,6.855304301E-2
8.885222750E0,-3.721353132E-4,-4.437481984E-4,6.644225866E-2,6.644478258E-2
8.895178750E0,6.334693171E-5,7.838988677E-4,6.325550377E-2,6.326039257E-2
8.905134750E0,2.252672566E-4,6.797695532E-4,6.395991147E-2,6.396392035E-2
8.915090750E0,1.494761673E-3,8.371938020E-4,6.624673307E-2,6.626888296E-2
8.925046750E0,-1.206216402E-3,-4.404596984E-5,6.685260683E-2,6.686350229E-2
8.935003750E0,-1.195954857E-3,-1.639608294E-3,6.761872023E-2,6.764916814E-2
8.944959750E0,-1.192226540E-3,-3.690142184E-4,6.494730711E-2,6.495929707E-2
8.954915750E0,3.454654943E-4,-1.157497987E-3,6.870815158E-2,6.871876921E-2
8.964871750E0,7.231017807E-4,1.602069475E-3,6.538798660E-2,6.541160673E-2
8.974827750E0,-2.613408491E-3,7.060170174E-5,6.571029872E-2,6.576228589E-2
8.984783750E0,2.099061385E-5,8.543692529E-4,6.606796384E-2,6.607349115E-2
8.994740750E0,-1.563387923E-3,3.967331722E-4,6.516820192E-2,6.518815936E-2
9.004696750E0,1.886470942E-3,2.414714545E-4,6.320225447E-2,6.323086313E-2
9.014652750E0,-2.220435068E-3,-1.698984765E-3,6.596515328E-2,6.602437677E-2
9.024608750E0,-7.845438085E-5,1.502667554E-3,6.878863275E-2,6.880508819E-2
9.034564750E0,3.914108966E-4,4.436168820E-5,6.686685979E-2,6.686802008E-2
9.044520750E0,-2.079470083E-3,-8.219638839E-4,6.586550176E-2,6.590344561E-2
9.054476750E0,1.689959085E-3,5.067465827E-4,6.340857595E-2,6.343311641E-2
9.064433750E0,1.851612935E-3,5.211280659E-4,6.454574317E-2,6.457439900E-2
9.074389750E0,-1.323755831E-3,-6.919968873E-4,6.604154408E-2,6.605843424E-2
9.084345750E0,-2.449207939E-3,-9.183660150E-4,6.533926725E-2,6.539160390E-2
9.094301750E0,-2.137739211E-3,-4.771752283E-4,6.638736278E-2,6.642348652E-2
9.104257750E0,-1.178734703E-3,2.611293457E-3,6.645554304E-2,6.651727197E-2
9.114213750E0,2.748271218E-4,-3.951834515E-4,6.683012098E-2,6.683185446E-2
9.124170750E0,1.310164807E-4,-4.162229598E-4,6.637844443E-2,6.637987867E-2
9.134126750E0,5.261556944E-4,-2.451976761E-4,6.450083107E-2,6.450344309E-2
9.144082750E0,-7.825216744E-4,-3.554532304E-4,6.562841684E-2,6.563404439E-2
9.154038750E0,-1.922382973E-3,-1.588519663E-4,6.629072875E-2,6.631878699E-2
9.163994750E0,1.972756581E-3,1.457952894E-3,6.591176242E-2,6.595739398E-2
9.173950750E0,2.579286229E-4,-1.008339226E-3,6.415812671E-2,6.416656839E-2
9.183906750E0,1.301621436E-3,-2.489056438E-3,6.449315697E-2,6.455429433E-2
9.193863750E0,-5.476612132E-4,-1.836139709E-4,6.311388314E-2,6.311652630E-2
9.203819750E0,-2.917314414E-4,-1.064854674E-3,6.660954654E-2,6.661869642E-2
9.213775750E0,2.137387637E-3,-2.002090216E-3,6.498621404E-2,6.505216988E-2
9.223731750E0,1.908888458E-3,1.034978777E-3,7.100709528E-2,7.104028868E-2
9.233687750E0,1.532352297E-3,-1.002388075E-3,7.052180171E-2,7.054556968E-2
9.243643750E0,1.551793423E-3,-3.075692803E-4,6.717341393E-2,6.719203971E-2
9.253600750E0,1.406940399E-3,-9.301584214E-5,6.617099792E-2,6.618601891E-2
9.263556750E0,7.145185955E-4,1.740037464E-3,6.270702183E-2,6.273522818E-2
9.273512750E0,7.642518030E-4,-1.373142004E-5,6.262886524E-2,6.263352961E-2
9.283468750E0,9.020580910E-5,3.793509677E-4,6.639270484E-2,6.639384987E-2
9.293424750E0,7.155747153E-4,-8.198227733E-4,6.693320721E-2,6.694205244E-2
9.303380750E0,3.619069466E-4,-5.276743323E-4,7.135379314E-2,7.135666201E-2
9.313336750E0,-2.222337993E-3,-5.040187389E-4,6.744616479E-2,6.748464985E-2
9.323293750E0,-2.348208800E-4,7.183728740E-4,6.639448553E-2,6.639878696E-2
9.333249750E0,1.721887384E-4,1.157315448E-3,6.745940447E-2,6.746955076E-2
9.343205750E0,5.407702411E-4,-2.015574835E-3,6.703117490E-2,6.706365172E-2
9.353161750E0,1.228498295E-3,-3.968523815E-4,6.776256114E-2,6.777485811E-2
9.363117750E0,-2.074354328E-3,1.183201559E-3,6.765577197E-2,6.769790538E-2
9.373073750E0,5.010686582E-4,2.019709907E-3,6.658539921E-2,6.661790815E-2
9.383030750E0,7.926848484E-4,-5.057659000E-4,6.866026670E-2,6.866670497E-2
9.392986750E0,-5.182942841E-4,1.187760383E-3,6.755600870E-2,6.756843727E-2
9.402942750E0,8.058294188E-4,-1.304692589E-3,6.890622526E-2,6.892328680E-2
9.412898750E0,2.143892227E-3,-7.943948731E-4,6.589216739E-2,6.593182130E-2
9.422854750E0,1.065844670E-3,3.236001357E-4,6.408680975E-2,6.409648919E-2
9.432810750E0,-1.149165910E-4,-4.855934530E-4,6.179312617E-2,6.179514098E-2
9.442766750E0,2.422133693E-4,-8.046403527E-4,6.423364580E-2,6.423914201E-2
9.452723750E0,-2.875721548E-4,-2.018446103E-3,6.549993902E-2,6.553166284E-2
9.462679750E0,7.728985511E-4,-7.758848369E-6,6.727999449E-2,6.728443424E-2
9.472635750E0,1.873258501E-3,8.340720087E-4,6.797055900E-2,6.800148281E-2
9.482591750E0,-6.101392210E-4,-1.036532223E-3,6.443414092E-2,6.444536589E-2
9.492547750E0,-3.508976661E-4,3.613987938E-4,6.772202253E-2,6.772389589E-2
9.502503750E0,1.449399162E-3,-1.272716559E-3,6.598777324E-2,6.601595854E-2
9.512460750E0,1.774197677E-3,2.064865083E-3,6.547097117E-2,6.552754772E-2
9.522416750E0,-1.815477386E-3,-1.302435994E-3,6.563342363E-2,6.567144429E-2
9.532372750E0,4.704257008E-4,4.351222888E-4,6.522778422E-2,6.523093182E-2
9.542328750E0,1.583094359E-3,-5.161594599E-4,6.458330154E-2,6.460476334E-2
9.552284750E0,-1.166700153E-3,1.324000768E-3,6.720557809E-2,6.722874306E-2
9.562240750E0,-1.154449536E-3,1.694180071E-3,6.816484779E-2,6.819567049E-2
9.572197750E0,8.703770582E-4,-4.789782688E-4,6.783986837E-2,6.784714229E-2
9.582153750E0,5.544978194E-5,-3.716535866E-4,6.786969304E-2,6.787073327E-2
9.592109750E0,2.761951415E-3,-2.377191558E-4,6.470014900E-2,6.475951024E-2
9.602065750E0,-2.138647251E-4,-8.720839396E-4,6.405752897E-2,6.406382198E-2
9.612021750E0,2.779020928E-3,1.426105388E-3,6.432192028E-2,6.439771861E-2
9.621977750E0,-1.026103506E-3,1.424625516E-4,6.271231174E-2,6.272086757E-2
9.631933750E0,-1.673675142E-4,8.818069473E-4,6.362741441E-2,6.363374466E-2
9.641890750E0,1.399902860E-3,-1.422625966E-3,6.386230141E-2,6.389348272E-2
9.651846750E0,1.139995875E-3,-3.611110151E-5,6.700486690E-2,6.701457366E-2
9.661802750E0,7.626259467E-4,-5.178768188E-4,6.349615008E-2,6.350284143E-2
9.671758750E0,5.502556451E-5,1.206025481E-4,6.488678604E-2,6.488692145E-2
9.681714750E0,-5.026403815E-4,-2.570522018E-3,6.412591785E-2,6.417938587E-2
9.691670750E0,-1.806410961E-3,4.101470113E-4,6.646396220E-2,6.648977073E-2
9.701627750E0,-7.243687287E-4,1.309229992E-3,6.537818909E-2,6.539530871E-2
9.711583750E0,-2.993611386E-3,-1.956392080E-4,6.469465792E-2,6.476417796E-2
9.721539750E0,-1.236724202E-3,3.417860717E-4,6.866250187E-2,6.867448921E-2
9.731495750E0,2.586471615E-3,-1.309541985E-4,6.887008250E-2,6.891875831E-2
9.741451667E0,1.998315565E-5,-7.125884295E-4,6.767113507E-2,6.767488975E-2
9.751407667E0,-1.823203638E-5,-1.545733772E-3,6.721627712E-2,6.723405042E-2
9.761364667E0,-1.062191091E-3,1.033803448E-3,6.738245487E-2,6.739875536E-2
9.771320667E0,-1.631865744E-4,9.934362024E-4,6.707601994E-2,6.708357472E-2
9.781276667E0,7.990134181E-4,-5.394788459E-4,6.414787471E-2,6.415511897E-2
9.791232667E0,-2.764246892E-4,-5.128812045E-4,6.856301427E-2,6.856548974E-2
9.801188667E0,6.415669341E-4,1.712189056E-3,6.691957265E-2,6.694454723E-2
9.811144667E0,2.343984088E-3,-6.613666192E-4,6.846151501E-2,6.850482249E-2
9.821100667E0,1.918677241E-3,-1.098924316E-3,6.861571223E-2,6.865132862E-2
9.831057667E0,-4.297010601E-4,3.736093640E-4,6.854408979E-2,6.854645485E-2
9.841013667E0,-4.419514444E-4,2.487360500E-3,6.747802347E-2,6.752529848E-2
9.850969667E0,2.007012954E-3,-2.574175596E-5,6.403844059E-2,6.406988869E-2
9.860925667E0,1.204295550E-4,1.769242808E-4,6.324402243E-2,6.324438456E-2
9.870881667E0,-3.149637254E-3,5.164248869E-4,6.532277912E-2,6.540070628E-2
9.880837667E0,2.778511262E-4,-3.352537751E-4,6.687273830E-2,6.687415588E-2
9.890794667E0,4.856577143E-4,-2.819830552E-4,6.471740454E-2,6.471984108E-2
9.900750667E0,1.216037199E-4,-4.372447729E-4,6.837206334E-2,6.837356957E-2
9.910706667E0,-5.539227277E-5,-4.034070298E-4,6.952632964E-2,6.952752202E-2
9.920662667E0,1.865279395E-3,2.752971370E-3,6.511001289E-2,6.519487631E-2
9.930618667E0,-3.690468147E-4,1.151014119E-3,6.608594954E-2,6.609700262E-2
9.940574667E0,-1.621531323E-3,1.277781092E-3,6.283342838E-2,6.286733501E-2
9.950530667E0,1.572074369E-3,-6.659980863E-5,6.300025433E-2,6.301990082E-2
9.960487667E0,-3.643101081E-4,3.765504807E-4,6.440374255E-2,6.440587370E-2
9.970443667E0,2.904556226E-3,1.359025948E-3,6.495793164E-2,6.503703776E-2
9.980399667E0,2.672278788E-4,1.252499409E-3,6.527697295E-2,6.528953487E-2
9.990355667E0,-1.218540128E-4,-8.357781917E-4,6.811422855E-2,6.811946494E-2
1.000031167E1,-1.929607708E-3,4.241634160E-4,6.864206493E-2,6.867049132E-2
1.001026767E1,-1.657091780E-3,2.079661936E-4,6.414335966E-2,6.416509792E-2
1.002022467E1,4.201738629E-4,-8.455803618E-4,6.481155008E-2,6.481842775E-2
1.003018067E1,-1.053389627E-3,1.034751534E-3,6.363271177E-2,6.364984169E-2
1.004013667E1,8.401179221E-4,5.689645186E-4,6.361779571E-2,6.362588663E-2
1.005009267E1,-1.041007461E-3,5.044601858E-4,6.238488853E-2,6.239561277E-2
1.006004867E1,-8.383409586E-4,3.774277866E-4,6.785236299E-2,6.785859143E-2
1.007000467E1,-1.254536677E-3,-1.815490425E-3,7.007613778E-2,7.011087615E-2
1.007996167E1,1.554565621E-3,-2.563039772E-3,6.659805030E-2,6.666547945E-2
1.008991767E1,3.066341160E-4,-1.097230241E-3,6.857509166E-2,6.858455464E-2
1.009987367E1,1.984958304E-3,-9.688660502E-4,6.463175267E-2,6.466948441E-2
1.010982967E1,4.290617071E-4,8.172495291E-4,6.447258592E-2,6.447919297E-2
1.011978567E1,2.160087461E-4,1.261197962E-3,6.284806132E-2,6.286108567E-2
1.012974167E1,-8.077709936E-5,-1.504689455E-3,6.248335168E-2,6.250151880E-2
1.013969767E1,-1.460827189E-3,-3.121262416E-4,6.580404192E-2,6.582099492E-2
1.014965467E1,-7.589000743E-4,-2.883784473E-4,6.334322691E-2,6.334842924E-2
1.015961067E1,-7.154906634E-4,-2.303325571E-3,6.619814038E-2,6.624206387E-2
1.016956667E1,-9.114702698E-4,3.766072914E-4,6.773421913E-2,6.774139837E-2
1.017952267E1,-6.363657303E-4,-6.263395771E-4,6.642448157E-2,6.643048257E-2
1.018947867E1,8.801867953E-4,-1.904900186E-3,6.410999596E-2,6.414432910E-2
1.019943467E1,-3.986631054E-4,-1.413547434E-3,6.573452055E-2,6.575092578E-2
1.020939167E1,-1.824067440E-3,-1.638171263E-3,6.491088867E-2,6.495717278E-2
1.021934767E1,-1.341236290E-3,3.656991292E-3,6.322137266E-2,6.334125403E-2
1.022930367E1,1.173032913E-3,3.008885309E-3,6.282984465E-2,6.291278706E-2
1.023925967E1,1.550136600E-3,4.226900637E-4,6.733191758E-2,6.735108548E-2
1.024921567E1,1.724064234E-3,1.348447986E-3,6.555544585E-2,6.559197504E-2
1.025917167E1,1.024451805E-3,-2.119254321E-3,6.749023497E-2,6.753127096E-2
1.026912867E1,1.648988109E-3,-2.511541359E-3,6.425093114E-2,6.432114081E-2
1.027908467E1,2.144336002E-3,9.114192799E-4,6.625229865E-2,6.629325711E-2
1.028904067E1,9.188615950E-4,4.183007404E-4,6.387425214E-2,6.388223046E-2
1.029899667E1,-2.292910824E-3,3.880076110E-5,6.405694038E-2,6.409797622E-2
1.030895267E1,8.217223221E-4,-7.368996739E-5,6.524378806E-2,6.524900412E-2
1.031890867E1,-4.150497261E-4,1.007820480E-3,6.486322731E-2,6.487238415E-2
1.032886467E1,1.936106011E-3,7.906714454E-4,6.763046980E-2,6.766279711E-2
1.033882167E1,-2.924271394E-4,-1.356368884E-3,6.780304015E-2,6.781723603E-2
1.034877767E1,3.533663694E-3,2.266866155E-3,6.732466817E-2,6.745544015E-2
1.035873367E1,4.646369489E-4,3.712289035E-4,6.542609632E-2,6.542879930E-2
1.036868967E1,-1.058925409E-3,2.705116291E-3,6.523733586E-2,6.530198287E-2
1.037864567E1,-7.231009658E-4,1.631862484E-3,6.668663025E-2,6.671051270E-2
1.038860167E1,1.002583886E-4,-9.670965374E-4,6.375322491E-2,6.376063844E-2
1.039855867E1,-1.750105759E-3,-1.406784169E-3,6.667178124E-2,6.670958196E-2
1.040851467E1,1.089903526E-5,3.598397598E-4,6.509222090E-2,6.509321643E-2
1.041847067E1,-6.564890500E-4,-3.927694634E-4,6.625601649E-2,6.626043289E-2
1.042842667E1,-4.882977810E-4,7.786424831E-4,6.900298595E-2,6.900910657E-2
1.043838267E1,7.593932096E-4,4.733819515E-5,6.717365980E-2,6.717796878E-2
1.044833867E1,1.828276669E-3,1.354308799E-3,6.681372225E-2,6.685245118E-2
1.045829567E1,6.796552334E-4,-1.033215784E-3,6.508639455E-2,6.509814300E-2
1.046825167E1,-1.172758639E-4,4.255222157E-4,6.592233479E-2,6.592381244E-2
1.047820767E1,-8.989137132E-4,1.091388986E-4,6.548103690E-2,6.548729763E-2
1.048816367E1,-4.633667413E-4,-1.425866038E-3,6.324178725E-2,6.325955626E-2
1.049811967E1,1.293786801E-3,1.435433514E-3,6.461704522E-2,6.464593481E-2
1.050807567E1,-1.180025516E-3,-1.466976479E-3,6.647016853E-2,6.649682537E-2
1.051803267E1,-1.174166566E-3,1.958380453E-3,6.678175926E-2,6.682078487E-2
1.052798867E1,5.180245498E-4,-4.241298884E-4,6.690085679E-2,6.690420671E-2
1.053794467E1,8.162985323E-4,-8.808625862E-4,6.388935447E-2,6.390064066E-2
1.054790067E1,-1.881735865E-3,2.182334661E-3,6.453143805E-2,6.459574298E-2
1.055785667E1,-1.181590836E-3,-6.187781692E-4,6.358521432E-2,6.359920222E-2
1.056781267E1,4.096338525E-4,1.021061093E-3,6.549804658E-2,6.550728563E-2
1.057776867E1,-4.542956594E-4,-1.200282015E-3,6.551189721E-2,6.552446671E-2
1.058772567E1,-2.353740856E-4,8.495561779E-4,6.699949503E-2,6.700529442E-2
1.059768167E1,-1.235923730E-3,-1.268722117E-3,7.131408155E-2,7.133607356E-2
1.060763767E1,-1.860955963E-3,4.494935274E-5,6.710194051E-2,6.712775580E-2
1.061759367E1,-7.730547804E-4,9.464295581E-4,6.847479939E-2,6.848570285E-2
1.062754967E1,1.464899629E-3,-1.530072652E-3,6.260411441E-2,6.263994089E-2
1.063750567E1,1.207105583E-3,-2.637393773E-4,6.185203791E-2,6.186437792E-2
1.064746267E1,4.837204237E-3,-8.304119110E-4,6.244099513E-2,6.263358525E-2
1.065741867E1,-3.045608755E-4,-1.808665693E-4,6.615583599E-2,6.615678427E-2
1.066737467E1,-1.250513131E-3,9.159184992E-5,6.880771369E-2,6.881913713E-2
1.067733067E1,-9.066988714E-4,-1.182463951E-3,6.740449369E-2,6.742096182E-2
1.068728667E1,1.672870130E-3,5.647893995E-4,6.610547006E-2,6.612904546E-2
1.069724267E1,-3.098715562E-3,6.574681029E-4,6.341514736E-2,6.349421405E-2
1.070719967E1,2.601942746E-3,1.165037043E-3,6.349021941E-2,6.355419246E-2
1.071715567E1,8.224186022E-4,-2.592895180E-5,6.184305623E-2,6.184852988E-2
1.072711167E1,1.742165536E-3,-1.338506117E-3,6.529751420E-2,6.533446334E-2
1.073706767E1,-5.667952355E-4,-1.062070020E-3,6.462372839E-2,6.463494041E-2
1.074702375E1,8.679376915E-4,8.993688971E-5,6.489593536E-2,6.490180144E-2
1.075697975E1,-9.344897699E-4,6.193732843E-4,6.805471331E-2,6.806394712E-2
1.076693575E1,2.433750778E-3,1.178430393E-4,6.947897375E-2,6.952168599E-2
1.077689275E1,-6.200959906E-4,-6.032176316E-5,6.890507042E-2,6.890788698E-2
1.078684875E1,-4.033674486E-4,-2.921847627E-4,6.407449394E-2,6.407642977E-2
1.079680475E1,5.812032614E-4,2.546211705E-3,6.487370282E-2,6.492625285E-2
1.080676075E1,-1.876942348E-3,6.592916325E-4,5.859041959E-2,5.862418311E-2
1.081671675E1,3.922357224E-3,8.521042764E-4,6.257770211E-2,6.270629768E-2
1.082667275E1,1.059574657E-3,-1.075835899E-4,6.389850378E-2,6.390737874E-2
1.083662975E1,1.856126124E-3,4.945574328E-4,6.769509614E-2,6.772234367E-2
1.084658575E1,-6.399261765E-4,2.323659137E-4,6.980701536E-2,6.981033514E-2
1.085654175E1,-6.194198504E-4,-1.957285218E-3,6.604103744E-2,6.607293903E-2
1.086649775E1,-8.077595849E-4,1.067883335E-3,6.813841313E-2,6.815156781E-2
1.087645375E1,6.993233692E-4,1.197845675E-3,6.409733742E-2,6.411234321E-2
1.088640975E1,1.332286047E-4,1.511973329E-3,6.531240791E-2,6.533004240E-2
1.089636675E1,-2.305428032E-3,-1.851598732E-3,6.684532762E-2,6.691069601E-2
1.090632275E1,-7.115723565E-5,-4.789112136E-4,6.660376489E-2,6.660552467E-2
1.091627875E1,7.919732016E-4,-1.925273798E-3,6.573291123E-2,6.576586896E-2
1.092623475E1,5.617087008E-4,-1.244534738E-3,6.682632118E-2,6.684026920E-2
1.093619075E1,7.412057603E-4,-1.413645223E-3,6.712885201E-2,6.714782611E-2
1.094614675E1,-1.433525002E-3,2.267119475E-3,6.650563329E-2,6.655970316E-2
1.095610375E1,-2.337710466E-4,-1.485540532E-3,6.661641598E-2,6.663338771E-2
1.096605975E1,9.570425609E-4,-1.460365020E-3,6.649377197E-2,6.651669194E-2
1.097601575E1,-1.815574476E-3,1.211850904E-3,6.786317378E-2,6.789827133E-2
1.098597175E1,-1.629745821E-3,-2.178028226E-4,6.446591765E-2,6.448688276E-2
1.099592775E1,-1.640291885E-5,1.131620258E-3,6.533836573E-2,6.534816654E-2
1.100588375E1,3.465568880E-4,5.417019129E-4,6.612826139E-2,6.613138814E-2
1.101583975E1,4.722580779E-4,-7.794918492E-4,6.577432901E-2,6.578064298E-2
1.102579675E1,1.361070666E-3,3.488687798E-4,6.521601975E-2,6.523115402E-2
1.103575275E1,-1.152154524E-3,9.230468422E-4,6.651856750E-2,6.653494795E-2
1.104570875E1,-1.005820232E-3,-6.219763309E-4,6.840556115E-2,6.841578272E-2
1.105566475E1,5.811573938E-4,4.860758781E-5,6.993740797E-2,6.993983944E-2
1.106562075E1,2.427008003E-4,1.189518720E-3,6.652946025E-2,6.654053606E-2
1.107557675E1,-2.049481962E-3,1.566622406E-3,6.686608493E-2,6.691582770E-2
1.108553375E1,3.193524899E-4,9.312480688E-5,6.405267119E-2,6.405353499E-2
1.109548975E1,2.837371314E-3,-5.417726934E-4,6.243399158E-2,6.250077998E-2
1.110544575E1,-7.558602374E-4,1.629382372E-3,6.726527214E-2,6.728924912E-2
1.111540175E1,-2.612349810E-3,2.352176234E-4,6.857101619E-2,6.862116263E-2
1.112535775E1,-1.843257574E-3,6.029717624E-4,6.857617199E-2,6.860358984E-2
1.113531375E1,-2.633151365E-3,1.240531914E-3,6.776763499E-2,6.783011689E-2
1.114527075E1,-1.500066835E-3,-1.400439069E-4,6.464558095E-2,6.466313439E-2
1.115522675E1,-9.866093751E-4,-1.336867921E-3,6.230678782E-2,6.232893728E-2
1.116518275E1,1.687908429E-3,2.243518829E-4,6.301618367E-2,6.303918443E-2
1.117513875E1,-1.789913513E-3,-3.291552886E-3,6.202148274E-2,6.213455103E-2
1.118509475E1,7.641559932E-5,1.061959192E-3,6.359167397E-2,6.360058644E-2
1.119505075E1,1.625842648E-3,-7.601752877E-4,6.659039110E-2,6.661457361E-2
1.120500775E1,-1.369178295E-3,1.464099623E-3,6.762740016E-2,6.765710228E-2
1.121496375E1,-2.147620311E-3,-1.853400841E-3,6.675974280E-2,6.681998672E-2
1.122491975E1,-5.234440323E-4,2.150082029E-3,6.791542470E-2,6.795146620E-2
1.123487575E1,2.866896102E-4,8.888086304E-4,6.575613469E-2,6.576276622E-2
1.124483175E1,3.000216559E-3,-3.652926534E-5,6.514694542E-2,6.521600364E-2
1.125478775E1,-6.075676065E-4,1.236194745E-3,6.813341379E-2,6.814733590E-2
1.126474375E1,-8.710590191E-4,-8.966540918E-4,6.351738423E-2,6.352968465E-2
1.127470075E1,1.772660878E-3,4.533026367E-4,6.536296010E-2,6.538856447E-2
1.128465675E1,-3.540869802E-4,-4.632482305E-4,6.661020964E-2,6.661276158E-2
1.129461275E1,-7.263969164E-4,3.428906202E-4,6.722806394E-2,6.723286256E-2
1.130456875E1,6.790680345E-5,7.935380563E-4,6.385958940E-2,6.386455568E-2
1.131452475E1,1.195755554E-3,3.408007324E-4,6.565615535E-2,6.566792757E-2
1.132448075E1,-2.118297853E-4,-6.523970515E-4,6.900973618E-2,6.901314499E-2
1.133443775E1,2.597006038E-3,1.081853174E-3,6.751835346E-2,6.757694060E-2
1.134439375E1,3.161669010E-4,-2.168028615E-3,6.737009436E-2,6.740571136E-2
1.135434975E1,1.029095147E-3,1.265052706E-3,6.540387869E-2,6.542420609E-2
1.136430575E1,1.811838243E-3,-5.767606199E-4,6.482474506E-2,6.485262510E-2
1.137426175E1,1.564430539E-3,-2.699643373E-4,6.697577238E-2,6.699458493E-2
1.138421775E1,1.531224698E-4,1.136900857E-3,6.604875624E-2,6.605871775E-2
1.139417475E1,7.379526505E-4,1.405347139E-3,6.880779564E-2,6.882610200E-2
1.140413075E1,-6.429154892E-4,-1.448122784E-4,7.005734742E-2,7.006044703E-2
1.141408675E1,-1.318559516E-3,-2.485464327E-3,6.853561848E-2,6.859334613E-2
1.142404275E1,-1.234326279E-3,-1.495361328E-3,6.531809270E-2,6.534686604E-2
1.143399875E1,-1.251196954E-4,-1.338501461E-3,6.215372682E-2,6.216826359E-2
1.144395475E1,6.346879527E-4,-1.126802526E-3,6.359643489E-2,6.360958295E-2
1.145391175E1,-2.880974207E-4,4.647029564E-4,6.381801516E-2,6.382035731E-2
1.146386775E1,-1.276836498E-3,-1.035518944E-4,6.870830059E-2,6.872024159E-2
1.147382375E1,-1.307196449E-3,2.348143607E-5,7.088330388E-2,7.089536009E-2