"Time (s)","Gyroscope x (rad/s)","Gyroscope y (rad/s)","Gyroscope z (rad/s)","Absolute (rad/s)"
6.481791668E-3,-7.145523559E-4,-1.106439158E-3,-1.664512791E-3,2.122591697E-3
1.643779167E-2,2.928522648E-3,-1.211471856E-3,-6.221382413E-3,6.982084795E-3
2.639479167E-2,2.294088481E-4,-1.661546528E-3,-2.203737851E-3,2.769445035E-3
3.635179167E-2,-4.131681053E-4,-8.736494929E-4,8.161626756E-4,1.264947759E-3
4.630879167E-2,-3.979880130E-4,-1.747166738E-3,1.656390261E-3,2.440207935E-3
5.626579167E-2,3.260602243E-4,-9.048189968E-4,3.186045215E-4,1.013173987E-3
6.622179167E-2,-3.298763186E-4,1.476580277E-3,-2.507790923E-4,1.533622461E-3
7.617879167E-2,-8.464379935E-4,5.423706025E-4,9.642848745E-4,1.393006987E-3
8.613579167E-2,-1.368417754E-3,-1.361523755E-3,-3.368678037E-3,3.882564333E-3
9.609279167E-2,1.269612228E-3,-2.121332102E-3,-1.305493992E-3,2.795761016E-3
1.060497917E-1,1.265084837E-3,-3.175726160E-4,2.607111819E-4,1.330136208E-3
1.160057917E-1,-7.936289767E-4,7.094787434E-4,6.181723438E-4,1.230993130E-3
1.259627917E-1,-5.619338481E-4,8.578170091E-4,2.046692185E-3,2.289228816E-3
1.359197917E-1,-1.258673961E-3,1.099737361E-3,1.014532521E-3,1.955238768E-3
1.458767917E-1,-1.337769791E-3,-4.158681259E-4,-3.075832501E-5,1.401256716E-3
1.558337917E-1,2.481741831E-6,1.468147151E-3,-3.020441625E-3,3.358352249E-3
1.657897917E-1,-1.272141235E-4,-5.057873204E-4,1.004926860E-3,1.132202385E-3
1.757467917E-1,5.198345752E-4,4.675230011E-4,1.135117840E-3,1.333153499E-3
1.857037917E-1,1.809337176E-3,2.662500367E-3,5.846424028E-4,3.271760376E-3
1.956607917E-1,-8.176019182E-4,1.642059535E-3,1.863286830E-3,2.614702703E-3
2.056177917E-1,1.087889774E-3,1.317686401E-3,6.363685243E-4,1.823394228E-3
2.155737917E-1,6.776259979E-4,-6.995024160E-4,-1.132549718E-3,1.493703279E-3
2.255307917E-1,-5.836470518E-4,6.025172770E-4,1.356174238E-3,1.594640873E-3
2.354886250E-1,-3.075720742E-4,3.539677709E-4,1.058956143E-3,1.158137244E-3
2.454456250E-1,3.024841426E-3,-3.014365211E-4,1.426205970E-3,3.357766087E-3
2.554026250E-1,-1.774999429E-3,-1.012114808E-4,2.138010692E-3,2.780639577E-3
2.653586250E-1,2.111351350E-3,-1.064210199E-3,2.519604750E-4,2.377778785E-3
2.753156250E-1,3.837547265E-4,-2.163854428E-3,-1.481789630E-3,2.650515833E-3
2.852726250E-1,-1.870877575E-3,5.933158100E-4,-4.208067898E-3,4.643279227E-3
2.952296250E-1,-1.631495310E-3,-1.096520573E-4,-3.014771268E-3,3.429671459E-3
3.051866250E-1,-9.651724249E-4,1.897039823E-3,4.470720887E-4,2.174900309E-3
3.151426250E-1,1.250884961E-4,1.341225579E-4,2.063786145E-3,2.071919218E-3
3.250996250E-1,-1.471210155E-3,-4.376582801E-4,1.246195287E-3,1.977120831E-3
3.350566250E-1,-1.306586317E-3,2.017524093E-4,3.735311329E-4,1.373825806E-3
3.450136250E-1,2.398936078E-3,1.677676104E-3,-3.473134711E-5,2.927575393E-3
3.549706250E-1,-1.336073736E-3,9.016618133E-4,4.987935536E-4,1.687270595E-3
3.649266250E-1,2.808870282E-3,1.378367655E-3,-1.377137378E-3,3.418502159E-3
3.748836250E-1,-9.707696736E-4,2.465631813E-3,-1.376345754E-3,2.985977500E-3
3.848406250E-1,-2.959247213E-4,-6.281621754E-4,1.686822157E-3,1.824151351E-3
3.947976250E-1,-1.724588685E-3,-1.185909845E-3,1.373257488E-3,2.503282729E-3
4.047546250E-1,-8.811657317E-4,1.973664388E-3,2.464620862E-3,3.278133639E-3
4.147106250E-1,1.632871688E-3,6.838878617E-4,-1.942254603E-4,1.780925627E-3
4.246676250E-1,2.448597923E-3,-1.747578382E-3,-5.733873695E-5,3.008812012E-3
4.346246250E-1,-6.593507715E-4,4.193075001E-4,-3.625681158E-3,3.708925192E-3
4.445816250E-1,-6.186042447E-4,8.936170489E-4,-3.340141848E-4,1.137008407E-3
4.545386250E-1,-3.196304897E-4,-1.125016250E-3,-1.956867985E-3,2.279727511E-3
4.644946250E-1,1.663625473E-3,3.735441715E-4,1.851985231E-3,2.517346670E-3
4.744516250E-1,1.839995733E-3,-2.544757910E-3,9.204964153E-4,3.272413600E-3
4.844086250E-1,2.319790656E-4,6.528999656E-4,1.309584361E-3,1.481588286E-3
4.943656250E-1,-1.292123925E-4,3.648037091E-4,-1.277094707E-3,1.334446881E-3
5.043226250E-1,-3.222473897E-3,3.700146452E-3,-1.394540071E-3,5.100996353E-3
5.142786250E-1,1.486186637E-3,2.008897252E-3,-2.597188111E-3,3.604137203E-3
5.242356250E-1,3.908284707E-4,5.375016481E-4,-3.078422043E-3,3.149339168E-3
5.341926250E-1,-1.399349538E-3,-5.238689482E-4,2.342403866E-3,2.778394082E-3
5.441496250E-1,-8.411511080E-4,2.220785245E-3,4.736636765E-4,2.421524225E-3
5.541066250E-1,-1.073830645E-3,5.077766255E-4,-1.452416647E-3,1.876289816E-3
5.640626250E-1,2.649404341E-4,1.166909002E-3,-2.015142236E-3,2.343644231E-3
5.740196250E-1,-1.624786062E-3,2.787310630E-3,-1.004281454E-3,3.378995640E-3
5.839766250E-1,3.075959627E-3,1.804870553E-3,-7.374323905E-4,3.641825349E-3
5.939336250E-1,-1.890519867E-3,4.908135161E-4,1.842661761E-3,2.685212401E-3
6.038906250E-1,1.070116181E-3,5.238363519E-4,-8.546700701E-5,1.194511521E-3
6.138466250E-1,-1.826081541E-3,-1.018755138E-4,8.293581195E-4,2.008180098E-3
6.238036250E-1,-4.819839960E-4,5.982816219E-6,-9.661447257E-4,1.079712924E-3
6.337606250E-1,1.574584632E-3,8.388515562E-4,-2.018173225E-3,2.693698547E-3
6.437176250E-1,2.709672553E-4,-1.729235053E-3,-1.784346998E-3,2.499514219E-3
6.536746250E-1,1.114659826E-3,1.536697149E-3,2.615754493E-3,3.232039019E-3
6.636306250E-1,-1.390842022E-3,2.225390635E-3,8.522090502E-4,2.759178370E-3
6.735876250E-1,1.213762676E-3,-7.991883904E-4,1.442951616E-3,2.047933418E-3
6.835446250E-1,-1.467241673E-3,1.086834818E-4,8.221687749E-4,1.685399573E-3
6.935016250E-1,9.013086092E-4,3.165379167E-4,-1.633022446E-3,1.891907971E-3
7.034586250E-1,-6.893975660E-4,1.941066235E-3,2.801925875E-4,2.078825394E-3
7.134146250E-1,-1.847024541E-4,-1.062604599E-3,-4.022127949E-3,4.164223429E-3
7.233716250E-1,1.955147367E-3,2.545446157E-3,-9.609572589E-5,3.211095102E-3
7.333286250E-1,1.634525252E-3,-1.764716581E-3,2.686928958E-3,3.606311777E-3
7.432856250E-1,1.833463437E-3,7.335944101E-4,2.070673741E-3,2.861370070E-3
7.532426250E-1,-8.228612132E-4,1.429851167E-3,2.171379048E-3,2.726987698E-3
7.631986250E-1,-1.603167271E-3,-5.834987387E-4,-2.632963937E-3,3.137373929E-3
7.731556250E-1,1.520662685E-3,-1.331060193E-3,-2.083252650E-3,2.902426199E-3
7.831126250E-1,-5.107966717E-4,2.377658151E-3,1.138639636E-3,2.685269399E-3
7.930696250E-1,3.479289589E-4,7.839426398E-4,3.257053904E-4,9.174446165E-4
8.030266250E-1,2.392704133E-3,-6.866548210E-4,7.038745098E-4,2.586883692E-3
8.129826250E-1,-1.999213127E-3,7.626600564E-4,1.369166654E-3,2.540299356E-3
8.229396250E-1,1.111358986E-3,7.836986333E-4,-1.760580577E-3,2.224622735E-3
8.328966250E-1,-1.293045701E-3,7.134210318E-5,7.457537577E-4,1.494391364E-3
8.428536250E-1,1.563194674E-3,2.471106127E-4,1.069594175E-3,1.910149979E-3
8.528106250E-1,-6.750292378E-4,4.997607321E-4,-1.341607422E-3,1.582825238E-3
8.627666250E-1,3.660004586E-4,1.462226734E-3,1.199357212E-4,1.512100504E-3
8.727236250E-1,5.792168668E-4,2.823029645E-3,-1.748912036E-3,3.371006061E-3
8.826806250E-1,-2.279871842E-4,-8.675791323E-4,-1.310289837E-3,1.587932985E-3
8.926376250E-1,-3.057596274E-3,-7.438687608E-4,-2.656560391E-4,3.157975433E-3
9.025946250E-1,8.689684910E-4,7.398799062E-5,2.415348310E-3,2.567973504E-3
9.125506250E-1,2.531916136E-3,-1.729335636E-4,-1.616335008E-3,3.008827711E-3
9.225076250E-1,-1.995724160E-3,-2.274434082E-3,-3.580416087E-3,4.687786757E-3
9.324646250E-1,2.359533915E-3,-1.187336631E-3,-9.640548378E-4,2.811862426E-3
9.424216250E-1,5.872002803E-4,8.710203692E-4,1.698573120E-3,1.997155802E-3
9.523786250E-1,-1.111234771E-3,-4.799962044E-4,5.008061416E-4,1.309979337E-3
9.623346250E-1,-5.029686727E-4,5.911272019E-4,1.283775549E-3,1.500162830E-3
9.722916250E-1,-3.623896278E-3,1.416419633E-3,-3.521032631E-4,3.906769192E-3
9.822486250E-1,6.787069142E-4,-2.746870741E-4,-2.175036818E-3,2.294968676E-3
9.922056250E-1,-6.927034119E-4,-3.371462226E-4,2.546405420E-3,2.660392105E-3
1.002162625E0,1.859936398E-3,-6.109187379E-4,4.619495012E-4,2.011462763E-3
1.012118625E0,2.868870739E-3,-1.172119752E-3,2.990677021E-4,3.113474830E-3
1.022075625E0,3.446824849E-5,-2.722376958E-4,4.242360592E-4,5.052500936E-4
1.032032625E0,1.369339880E-4,1.518655568E-3,3.513829317E-3,3.830412787E-3
1.041989625E0,1.228031004E-3,2.686184831E-3,-6.316471845E-4,3.020368729E-3
1.051946625E0,8.994003292E-4,-1.136640087E-3,5.970126949E-4,1.567576409E-3
1.061902625E0,7.156422362E-4,1.357410103E-3,-1.412075944E-3,2.085345168E-3
1.071859625E0,1.169623923E-3,-4.162564874E-4,-1.600390300E-3,2.025472463E-3
1.081816625E0,9.640278877E-4,6.391108036E-5,-1.543398015E-3,1.820854697E-3
1.091773625E0,1.099400572E-3,7.229158655E-4,1.912424341E-5,1.315923517E-3
1.101730625E0,-7.480342174E-4,-1.253682189E-3,3.444215748E-3,3.740841662E-3
1.111686625E0,2.180983312E-3,1.395744272E-3,1.587019768E-3,3.037008730E-3
1.121643625E0,-1.339182956E-3,-1.059424132E-3,1.606727019E-3,2.344645431E-3
1.131600625E0,1.276922063E-3,-1.091264188E-3,-3.967862576E-4,1.725927814E-3
1.141557625E0,1.065467019E-3,-5.711484700E-4,-1.130753197E-3,1.655304605E-3
1.151514625E0,-1.415552106E-4,7.699336857E-5,-1.890910789E-4,2.484377036E-4
1.161470625E0,1.561269863E-3,-6.037103012E-4,2.626935486E-3,3.114934952E-3
1.171427625E0,-2.945215674E-4,-2.954108641E-4,1.281315926E-3,1.347509197E-3
1.181384625E0,-1.502797590E-3,-1.294966787E-4,1.394766849E-3,2.054396395E-3
1.191341625E0,-1.824508188E-3,-7.897187024E-4,1.464869361E-3,2.469479298E-3
1.201298625E0,-6.620383356E-4,1.391676255E-3,1.060601324E-3,1.870810713E-3
1.211254625E0,-9.232194861E-4,1.337244175E-3,-2.278704196E-4,1.640878159E-3
1.221211625E0,-4.417198943E-4,2.125911415E-4,-9.455922991E-4,1.065108565E-3
1.231168625E0,-5.434221821E-4,-2.076335251E-3,-1.769051421E-3,2.781369928E-3
1.241125000E0,-8.988578338E-5,3.102421761E-5,2.746604849E-3,2.748250380E-3
1.251082000E0,-8.117166581E-4,9.550713003E-4,1.824717037E-3,2.213738329E-3
1.261038000E0,-1.945157885E-3,1.140959561E-3,-1.731864177E-4,2.261729748E-3
1.270995000E0,1.472883159E-4,-1.639569178E-3,1.257318538E-3,2.071407937E-3
1.280952000E0,3.496885765E-4,-2.643121406E-4,-7.698796690E-4,8.859219564E-4
1.290909000E0,-7.365545025E-4,-1.244066283E-3,-4.721230362E-3,4.937634006E-3
1.300866000E0,2.786426339E-4,6.656870246E-4,-2.548091579E-3,2.648311090E-3
1.310822000E0,2.199153183E-3,-8.601536974E-4,-3.576767631E-4,2.388319864E-3
1.320779000E0,-6.435048999E-4,-1.866828650E-3,1.988035161E-3,2.802040608E-3
1.330736000E0,4.298019223E-3,5.766386166E-4,-2.442446537E-3,4.977049972E-3
1.340693000E0,-1.739609288E-4,-1.319532283E-3,-1.318883151E-4,1.337468645E-3
1.350650000E0,1.859997632E-3,5.127955228E-4,-1.525247004E-3,2.459457026E-3
1.360606000E0,-1.478274819E-3,1.444901340E-3,9.395508096E-5,2.069266507E-3
1.370563000E0,-2.361794468E-4,6.529968232E-4,1.506417524E-3,1.658758373E-3
1.380520000E0,2.425650135E-3,1.840135083E-4,1.532250550E-3,2.874966312E-3
1.390477000E0,9.280361119E-4,6.204871461E-4,1.048804261E-3,1.531745965E-3
1.400434000E0,-1.711968798E-5,-2.330028452E-3,-6.569507532E-4,2.420931631E-3
1.410390000E0,-3.585022641E-4,-1.123037189E-3,8.824034594E-4,1.472539394E-3
1.420347000E0,9.661540971E-4,-9.680418298E-4,-1.886751503E-3,2.330319711E-3
1.430304000E0,4.516362678E-4,-2.348812297E-3,-2.363242675E-3,3.362411406E-3
1.440261000E0,-1.948404359E-3,1.255311072E-4,2.192244865E-4,1.964712951E-3
1.450218000E0,-1.740838634E-3,-1.066910103E-3,2.521818038E-3,3.244746914E-3
1.460174000E0,1.435779734E-3,-1.594749279E-3,6.882315502E-4,2.253519774E-3
1.470131000E0,-1.457927283E-4,2.084191889E-3,1.109174453E-3,2.365455414E-3
1.480088000E0,-1.520250109E-3,4.647234455E-4,-7.811374962E-4,1.771243649E-3
1.490045000E0,-6.790471962E-4,-1.432940364E-3,-9.286506101E-4,1.837611258E-3
1.500002000E0,1.167053124E-4,-1.335468143E-3,-5.332753062E-6,1.340568435E-3
1.509958000E0,-4.900631029E-5,-9.570261464E-4,1.212126110E-3,1.545170013E-3
1.519915000E0,-9.331757901E-4,2.402285114E-3,1.600148622E-3,3.033523766E-3
1.529872000E0,-2.740281401E-3,-2.427268773E-4,3.143869806E-3,4.177556206E-3
1.539829000E0,-3.113922896E-3,1.217750832E-3,2.360634040E-3,4.092923889E-3
1.549786000E0,-6.019198336E-4,-3.068493679E-4,1.051095314E-4,6.837485168E-4
1.559742000E0,1.230867580E-3,2.026879229E-3,-1.548713539E-3,2.832276122E-3
1.569699000E0,1.490145456E-3,-2.370132133E-4,-1.111717895E-3,1.874199942E-3
1.579656000E0,1.484552864E-3,-2.236248925E-3,1.410028897E-3,3.031977565E-3
1.589613000E0,6.603093352E-4,3.735786304E-4,1.811054535E-4,7.799798693E-4
1.599570000E0,-5.612826208E-4,3.472128883E-4,3.925603814E-4,7.679183702E-4
1.609526000E0,-4.775837297E-4,-1.273710281E-3,1.019049902E-3,1.699672557E-3
1.619483000E0,1.176239224E-3,7.843803614E-4,-4.507489502E-4,1.483902247E-3
1.629440000E0,-4.679494305E-4,-1.703098416E-3,-1.583293080E-3,2.371990275E-3
1.639397000E0,-4.206494894E-3,-2.018744126E-4,-1.562253572E-3,4.491769005E-3
1.649354000E0,7.441717898E-4,1.517455094E-3,4.682373255E-4,1.753769599E-3
1.659310000E0,2.003543777E-4,-5.848435685E-4,1.242684666E-3,1.387965798E-3
1.669267000E0,1.932392246E-3,5.078874528E-4,6.110486574E-4,2.089370699E-3
1.679224000E0,-5.001390819E-4,-2.412600443E-4,-7.865778171E-4,9.628344471E-4
1.689181000E0,-5.228334339E-4,1.131793484E-3,-4.810839891E-4,1.336320731E-3
1.699138000E0,-6.240337389E-4,-9.747669101E-4,2.741888165E-4,1.189440265E-3
1.709094000E0,-1.915963134E-3,3.907429054E-4,-6.469837390E-4,2.059655968E-3
1.719051000E0,-5.617458373E-4,9.246915579E-5,1.394473948E-4,5.861352288E-4
1.729008000E0,-3.391935024E-4,3.659664653E-3,3.730212338E-4,3.694230968E-3
1.738965000E0,1.068819780E-3,-3.063485958E-3,6.523868069E-4,3.309521186E-3
1.748922000E0,7.636222290E-4,1.403735951E-3,3.208665177E-3,3.584567721E-3
1.758878000E0,-7.362700999E-4,-6.037540734E-4,-1.555197407E-3,1.823527245E-3
1.768835000E0,6.837913534E-4,-2.187117934E-3,-3.660976887E-3,4.319005353E-3
1.778792000E0,1.514963922E-3,7.157279179E-4,-2.578135580E-3,3.074762626E-3
1.788749000E0,-2.648632973E-3,-8.794777095E-4,-1.126015093E-3,3.009426467E-3
1.798706000E0,-2.818816574E-4,5.306666717E-4,2.620253246E-3,2.688269231E-3
1.808662000E0,-1.640465576E-3,-4.003448412E-4,6.658351049E-4,1.815141781E-3
1.818619000E0,-6.923803594E-4,-1.318336464E-3,5.539823323E-4,1.588803959E-3
1.828576000E0,9.053144022E-4,-1.073712483E-4,1.499982085E-3,1.755297413E-3
1.838533000E0,1.159646316E-3,2.543805167E-3,-2.329376992E-3,3.638917624E-3
1.848490000E0,2.269324148E-3,-7.372433320E-4,-1.455719117E-3,2.795081031E-3
1.858446000E0,1.391812460E-3,-2.176947892E-3,-6.991154514E-4,2.676752970E-3
1.868403000E0,1.073834719E-3,2.661626786E-5,1.041324344E-3,1.496056756E-3
1.878360000E0,6.077815779E-4,-2.628022805E-3,-6.079715677E-4,2.765055467E-3
1.888317000E0,-2.582996152E-3,-1.155647449E-3,2.151906490E-3,3.555009380E-3
1.898274000E0,-2.801609226E-4,2.478379756E-4,7.833079435E-4,8.680352176E-4
1.908230000E0,7.876221789E-4,1.827105880E-4,9.396066889E-5,8.139781711E-4
1.918187000E0,-2.779086353E-4,1.755307429E-3,-1.704205293E-3,2.462245532E-3
1.928144000E0,-1.183034503E-3,5.980962887E-4,-1.241570339E-3,1.816256235E-3
1.938101000E0,5.999518326E-4,1.532865688E-3,6.412845105E-4,1.766597080E-3
1.948058000E0,9.471550002E-4,-1.231357455E-4,-4.514586180E-6,9.551363189E-4
1.958014000E0,8.917612140E-4,-5.210125819E-4,1.366747078E-3,1.713093619E-3
1.967971000E0,-1.633644337E-3,-6.763534620E-4,1.120676287E-3,2.093361690E-3
1.977928000E0,-1.110599609E-3,-1.277420670E-4,1.098305918E-3,1.567171151E-3
1.987885000E0,1.197432401E-3,-6.494391710E-5,-7.526953705E-4,1.415843348E-3
1.997842000E0,3.266708460E-3,3.055017442E-4,-1.292251516E-3,3.526276997E-3
2.007798000E0,-1.676635351E-3,-3.460552543E-4,1.626302022E-3,2.361295959E-3
2.017755000E0,-1.309918240E-3,7.879184559E-4,-5.628163926E-4,1.628945542E-3
2.027712000E0,-1.283366815E-3,5.245180801E-4,1.398187596E-3,1.969029749E-3
2.037669000E0,-2.079385798E-3,-1.092553139E-3,-1.267637126E-3,2.669161206E-3
2.047626000E0,1.621872652E-4,1.005518250E-3,-1.144018024E-3,1.531714366E-3
2.057582000E0,1.762480824E-3,-9.329970926E-4,-1.706743613E-3,2.624842089E-3
2.067539000E0,-2.625456778E-3,1.785927452E-3,2.500615083E-4,3.185135934E-3
2.077496000E0,1.679276582E-3,-1.302008517E-3,1.932380255E-3,2.872157633E-3
2.087453000E0,4.863801878E-4,3.705406561E-4,1.546008047E-3,1.662530284E-3
2.097409000E0,-5.756884348E-4,-4.379944876E-4,-4.566889256E-4,8.554654405E-4
2.107366000E0,9.425915778E-6,1.424118876E-3,1.070726663E-3,1.781757281E-3
2.117323000E0,-5.439789966E-4,2.356224693E-3,-8.030734025E-4,2.548064921E-3
2.127280000E0,-1.185857109E-3,-7.033618167E-4,-2.373631578E-3,2.745013988E-3
2.137237000E0,1.108456287E-3,-1.192850992E-3,-1.442991197E-4,1.634744954E-3
2.147194000E0,-3.789387411E-4,-2.714225091E-3,6.565554067E-4,2.818098191E-3
2.157150000E0,-3.610955318E-4,-8.074017242E-4,1.422480680E-3,1.675033974E-3
2.167107000E0,-1.351779443E-3,2.533411607E-4,-1.600510441E-4,1.384595877E-3
2.177064000E0,-1.339159207E-4,-9.176507592E-4,-6.495397538E-4,1.132218301E-3
2.187021000E0,3.411044599E-4,-1.762242056E-3,-1.893031411E-3,2.608719464E-3
2.196977000E0,1.191718038E-3,5.959868431E-4,-1.272249036E-3,1.842283857E-3
2.206934000E0,-4.714180250E-5,3.870539367E-4,1.384106465E-3,1.437979070E-3
2.216891000E0,7.145222044E-4,-7.282774895E-4,-5.221841857E-4,1.146126697E-3
2.226848000E0,-3.145040246E-4,-4.026331007E-4,6.741047837E-4,8.458389059E-4
2.236805125E0,-1.483365544E-3,-1.276682131E-3,1.147615258E-3,2.268768693E-3
2.246761125E0,4.254992818E-4,4.402417690E-4,-3.239640966E-3,3.296988936E-3
2.256718125E0,-1.002087956E-4,-6.649699062E-4,-2.374912612E-3,2.468286186E-3
2.266675125E0,-9.145695949E-4,-2.079276368E-3,-6.714737974E-4,2.368692639E-3
2.276632125E0,1.158967614E-3,4.153065383E-4,2.549619414E-3,2.831297336E-3
2.286589125E0,7.009024266E-4,8.984021842E-4,2.863989212E-4,1.174910651E-3
2.296545125E0,-3.513125703E-4,3.889398649E-4,2.254474908E-3,2.314595397E-3
2.306502125E0,4.157706164E-3,-3.842031583E-4,2.471384127E-3,4.851996714E-3
2.316459125E0,-1.349711325E-3,2.182032913E-4,2.480172552E-3,2.832064481E-3
2.326416125E0,-1.189589268E-3,3.057457507E-4,-7.822643965E-4,1.456207635E-3
2.336373125E0,-3.613461740E-4,2.780620940E-3,-2.004388720E-3,3.446737299E-3
2.346329125E0,2.927508904E-4,-4.399744794E-4,8.633001707E-4,1.012209371E-3
2.356286125E0,6.080691237E-4,8.440203965E-5,6.840694696E-4,9.191424279E-4
2.366243125E0,-2.109228633E-3,-1.427534968E-3,1.449326985E-3,2.930401034E-3
2.376200125E0,7.171842735E-4,3.770235926E-4,1.653591637E-3,1.841430252E-3
2.386157125E0,-3.350202460E-4,7.973425090E-5,6.442563608E-5,3.503523634E-4
2.396113125E0,1.219200436E-3,-8.387900889E-4,-1.687401440E-3,2.244402401E-3
2.406070125E0,-1.350072329E-3,-5.947947502E-4,-1.429129392E-3,2.053992918E-3
2.416027125E0,3.968792967E-3,-8.869431913E-4,1.000738703E-3,4.188014302E-3
2.425984125E0,5.762729561E-4,-1.328647137E-3,-1.904969104E-4,1.460713116E-3
2.435941125E0,-1.140134409E-3,-6.497744471E-5,3.488659859E-3,3.670814099E-3
2.445897125E0,9.015431278E-4,-1.286694780E-3,3.055588342E-3,3.435838120E-3
2.455854125E0,-3.283045953E-4,-2.241970040E-3,-6.494014524E-4,2.357103267E-3
2.465811125E0,1.138931140E-3,-2.320440486E-3,7.584104314E-4,2.693843829E-3
2.475768125E0,9.554393473E-4,2.313192934E-3,4.452229477E-4,2.542036461E-3
2.485725125E0,2.146106213E-3,1.417752355E-4,-9.417925030E-4,2.347944892E-3
2.495681125E0,-3.025752492E-3,6.640208885E-4,8.683581837E-4,3.217164562E-3
2.505638125E0,-1.243047765E-3,2.717760392E-3,1.576077193E-3,3.378669651E-3
2.515595125E0,1.073636115E-3,4.868302494E-4,2.653858159E-3,2.903904497E-3
2.525552125E0,-2.314393641E-4,-7.908670232E-4,1.060516108E-3,1.343029874E-3
2.535509125E0,1.181101310E-3,-1.257186756E-3,1.286352053E-3,2.151794704E-3
2.545465125E0,3.592121648E-4,-5.298350006E-4,-4.867430311E-3,4.909341742E-3
2.555422125E0,4.822502378E-4,1.031979918E-4,-1.154451165E-3,1.255377477E-3
2.565379125E0,-4.925333196E-4,4.742480814E-5,-1.082527451E-4,5.065144028E-4
2.575336125E0,1.058491645E-3,1.166484319E-3,1.629992388E-3,2.266708057E-3
2.585293125E0,-5.853234325E-4,-5.320673808E-4,4.043268040E-3,4.119916948E-3
2.595249125E0,-3.475032281E-4,8.804732934E-4,-1.597329974E-4,9.599512198E-4
2.605206125E0,1.641412964E-4,-8.732583374E-4,1.691072248E-4,9.044997194E-4
2.615163125E0,1.836606534E-3,-2.132400870E-3,-1.029048581E-3,2.996530997E-3
2.625120125E0,-1.844279352E-3,-1.182703301E-3,-4.770006519E-3,5.249106173E-3
2.635077125E0,5.325919483E-4,-1.651095226E-4,-3.337124363E-4,6.498302301E-4
2.645033125E0,-1.592652989E-3,2.092873678E-3,2.162925899E-3,3.405130279E-3
2.654990125E0,1.071307110E-3,1.530274749E-4,1.318703871E-3,1.705900417E-3
2.664947125E0,1.140221837E-3,-1.203915104E-3,4.090610892E-4,1.707878330E-3
2.674904125E0,-6.283834809E-4,8.283425122E-4,2.149703447E-3,2.387936772E-3
2.684861125E0,3.166306997E-3,-3.999350592E-4,-2.441638149E-3,4.018338575E-3
2.694817125E0,-8.514639921E-5,5.580037832E-4,-2.025386319E-3,2.102571728E-3
2.704774125E0,2.567004412E-3,9.437156841E-4,9.767129086E-4,2.904148593E-3
2.714731125E0,-6.940363673E-4,4.756264389E-5,-2.136788331E-3,2.247178910E-3
2.724688125E0,2.075992990E-3,1.632681116E-3,-3.082677722E-4,2.659026804E-3
2.734645125E0,1.026174985E-3,-2.127968706E-3,1.515731215E-3,2.806907022E-3
2.744601125E0,7.474739105E-4,-8.668713272E-4,-7.917080075E-5,1.147367056E-3
2.754558125E0,-4.496169277E-4,-2.301516011E-3,-1.991054043E-3,3.076268443E-3
2.764515125E0,4.320129519E-4,1.359706745E-3,-1.355914865E-3,1.968233406E-3
2.774472125E0,-7.070209831E-4,-1.086672768E-3,-2.467082813E-4,1.319697447E-3
2.784429125E0,-1.128918957E-3,-4.701931030E-4,-1.797494013E-3,2.174057104E-3
2.794385125E0,3.621849464E-4,1.281367615E-3,-4.736366682E-4,1.413298480E-3
2.804342125E0,-7.394308923E-4,-3.788601607E-4,-3.853417002E-4,9.158500378E-4
2.814299125E0,-6.864339812E-4,-6.323931739E-4,-1.627173275E-3,1.875847969E-3
2.824256125E0,-4.558516666E-4,-9.639281780E-5,-1.836219802E-3,1.894411645E-3
2.834213125E0,1.601173892E-3,-2.939583734E-3,-3.248227760E-3,4.664321381E-3
2.844169125E0,-1.943675335E-3,-1.164369285E-3,-3.162925132E-3,3.890722944E-3
2.854126125E0,2.784234472E-3,-4.868619144E-4,9.583164938E-4,2.984521171E-3
2.864083125E0,1.307006460E-4,-1.061242074E-4,2.356952988E-3,2.362958398E-3
2.874040125E0,-1.314330613E-3,-1.907486469E-3,6.176428869E-4,2.397384476E-3
2.883997125E0,1.999601489E-3,-1.038980670E-3,-1.464561559E-3,2.687531862E-3
2.893953125E0,-1.871303073E-3,-1.805705018E-3,-1.305038109E-3,2.909548122E-3
2.903910125E0,1.175755169E-4,2.116568387E-3,-1.179619692E-3,2.425940716E-3
2.913867125E0,1.769534429E-3,1.690995879E-3,2.619493753E-4,2.461571984E-3
2.923824125E0,2.190846950E-3,-1.976089552E-4,-5.693826824E-5,2.200477590E-3
2.933781125E0,1.983810216E-5,2.226134762E-3,1.677578781E-3,2.787532977E-3
2.943737125E0,3.372709034E-4,1.516561955E-3,2.388555091E-3,2.849369623E-3
2.953694125E0,5.820153747E-4,2.936385572E-4,-1.757720485E-3,1.874712459E-3
2.963651125E0,1.822205377E-3,7.781134918E-4,-5.288564600E-3,5.647548899E-3
2.973608125E0,-1.421524794E-3,1.617275178E-3,1.400234178E-4,2.157757702E-3
2.983565125E0,-2.294655424E-4,-1.041273586E-3,5.118655972E-4,1.182755895E-3
2.993521125E0,9.673591121E-4,-9.158384055E-4,-9.374264628E-4,1.628899018E-3
3.003478125E0,5.982699804E-5,1.493344083E-3,-1.398334745E-3,2.046703662E-3
3.013435125E0,-1.410770463E-3,-7.682116702E-4,4.107509740E-4,1.658052723E-3
3.023392125E0,-1.633588457E-3,-9.271344170E-4,-4.011378624E-4,1.920703272E-3
3.033349125E0,4.679119447E-4,1.471843570E-4,-4.213719163E-3,4.242173265E-3
3.043305125E0,-6.229948485E-4,7.373476401E-4,1.419727691E-3,1.716808329E-3
3.053262125E0,-7.183362031E-4,8.310908452E-4,2.081256825E-3,2.353369684E-3
3.063219125E0,1.629667822E-3,-1.027751714E-4,2.574854065E-3,3.048975795E-3
3.073176125E0,4.695123062E-5,1.672692597E-4,2.168915235E-4,2.778945056E-4
3.083133125E0,-6.705761189E-4,2.647470683E-5,1.061067451E-3,1.255482926E-3
3.093089125E0,-3.288927255E-4,3.952439874E-5,-1.860420685E-3,1.889681912E-3
3.103046125E0,3.325782251E-3,1.052631065E-3,-3.279101569E-3,4.787626431E-3
3.113003125E0,7.007044042E-4,-1.213452779E-3,-1.725413371E-3,2.222724816E-3
3.122960125E0,-1.064426498E-3,-1.192783937E-3,1.594913658E-3,2.258204346E-3
3.132917125E0,8.471903857E-4,-8.159466088E-4,9.919740260E-4,1.538672443E-3
3.142873125E0,6.897109561E-4,1.178379171E-3,1.745904796E-3,2.216407505E-3
3.152830125E0,1.961104106E-3,-3.122910857E-5,1.084642019E-3,2.241283758E-3
3.162787125E0,-9.393339278E-4,-4.436010495E-4,-9.884699248E-4,1.433946621E-3
3.172744125E0,-1.413376653E-3,-1.157327555E-3,-7.722214796E-4,1.983271702E-3
3.182701125E0,-1.703981543E-4,2.423094586E-3,-2.274152357E-3,3.327490322E-3
3.192657125E0,1.940157032E-3,-7.500620559E-4,1.649216749E-3,2.654565554E-3
3.202614125E0,-1.069788588E-3,-1.884816214E-3,1.789744943E-3,2.810723528E-3
3.212571125E0,-6.972122937E-4,7.762145251E-4,2.310392912E-3,2.535060035E-3
3.222528125E0,-2.052306663E-4,3.734920174E-4,-1.413983293E-3,1.476808947E-3
3.232485125E0,-1.412707847E-3,-1.796452329E-3,-3.407892771E-3,4.103256946E-3
3.242440625E0,4.384897184E-4,-1.700585708E-4,-2.808307298E-3,2.847416904E-3
3.252397625E0,-1.794038224E-3,-5.061496049E-4,1.548357774E-3,2.423256562E-3
3.262354625E0,-4.059693310E-5,-2.228776924E-3,5.632294342E-4,2.299200314E-3
3.272311625E0,-4.520552466E-4,1.110769808E-4,4.567025695E-3,4.590687938E-3
3.282268625E0,-8.809297578E-4,1.706119627E-3,1.914486289E-3,2.711482836E-3
3.292224625E0,-2.692017006E-4,1.019823365E-3,6.390982307E-4,1.233270368E-3
3.302181625E0,1.015834277E-3,-1.143822446E-3,-1.741448417E-3,2.317949883E-3
3.312138625E0,8.760183118E-4,3.847740591E-3,-2.710839733E-3,4.787605643E-3
3.322095625E0,1.834566938E-4,-7.957722992E-4,-1.493612770E-3,1.702289346E-3
3.332052625E0,3.983738134E-4,-2.125222236E-3,1.398313325E-3,2.574985709E-3
3.342008625E0,-2.166937105E-3,9.643025696E-4,5.085778423E-3,5.611651987E-3
3.351965625E0,-1.514728996E-3,6.628502160E-5,2.312894911E-3,2.765552477E-3
3.361922625E0,-9.121950716E-4,1.637991518E-4,2.415510826E-4,9.577457576E-4
3.371879625E0,9.810460033E-4,1.827741973E-3,-5.667181686E-4,2.150409604E-3
3.381836625E0,-3.183642402E-4,-4.816586152E-4,-8.522188291E-4,1.029382215E-3
3.391792625E0,-1.120242057E-3,1.496270299E-3,-2.196316607E-3,2.884020408E-3
3.401749625E0,1.982113579E-3,8.092634380E-5,8.064820431E-4,2.141433305E-3
3.411706625E0,6.936762948E-4,-1.983822323E-3,1.434189267E-3,2.544334229E-3
3.421663625E0,-1.670920756E-4,-6.830189377E-4,2.420735545E-4,7.436627171E-4
3.431619625E0,-4.858139437E-5,5.564158782E-4,-1.481258310E-3,1.583061895E-3
3.441576625E0,-4.884786904E-6,-5.240142345E-4,-1.335018780E-3,1.434186153E-3
3.451533625E0,-2.797229681E-4,-1.248926856E-3,-1.399467234E-3,1.896462962E-3
3.461490625E0,1.101018395E-3,-9.215828031E-4,7.133376785E-4,1.603248893E-3
3.471447625E0,9.750509053E-4,2.318322659E-4,-1.570057124E-3,1.862672768E-3
3.481404625E0,-2.762619406E-4,1.381265931E-3,9.507089853E-4,1.699430436E-3
3.491360625E0,5.024463171E-4,-5.721626803E-4,1.244455576E-3,1.458935268E-3
3.501317625E0,-3.223729320E-3,-2.354783006E-3,6.333338097E-4,4.042096665E-3
3.511274625E0,-8.242212934E-4,7.680393755E-4,-7.504448295E-4,1.353658991E-3
3.521231625E0,1.205496956E-4,-7.465174422E-4,-2.820901573E-3,2.920497595E-3
3.531188625E0,3.289445071E-3,2.565123141E-3,-1.612358727E-3,4.472136655E-3
3.541144625E0,-1.755420817E-3,7.784869522E-4,-3.565945663E-4,1.953126689E-3
3.551101625E0,-7.660563570E-4,-1.041251235E-3,-7.874937728E-4,1.513668695E-3
3.561058625E0,2.670260146E-3,1.437230036E-3,6.120605394E-4,3.093628538E-3
3.571015625E0,-5.721384659E-4,-2.841138281E-3,1.065926626E-4,2.900132954E-3
3.580972625E0,5.239191232E-4,-1.387661323E-4,8.057705127E-4,9.710887736E-4
3.590928625E0,-2.656960394E-3,7.584532723E-4,-1.530088019E-3,3.158458366E-3
3.600885625E0,2.473974135E-3,1.851585694E-3,-1.053042710E-3,3.264631151E-3
3.610842625E0,3.005684121E-4,-2.172450535E-3,3.746775910E-4,2.224919323E-3
3.620799625E0,-1.913926215E-3,-1.208374277E-3,4.061874934E-4,2.299623932E-3
3.630756625E0,7.305829786E-5,-3.002369776E-4,1.879980788E-3,1.905205375E-3
3.640712625E0,1.903072232E-3,-4.093432799E-4,1.617116388E-3,2.530674071E-3
3.650669625E0,-7.622193079E-4,1.104930416E-3,4.075085744E-4,1.402823130E-3
3.660626625E0,-6.799362600E-4,-1.909015700E-3,-7.987534627E-4,2.178224358E-3
3.670583625E0,-5.001728423E-4,1.689447090E-3,9.711836465E-4,2.011865308E-3
3.680540625E0,3.034152323E-4,-3.248387948E-4,-3.342768177E-4,5.561672740E-4
3.690496625E0,1.003560377E-3,1.280514523E-3,1.626689918E-4,1.635026629E-3
3.700453625E0,1.189132221E-3,1.638383605E-3,3.956644796E-4,2.062737660E-3
3.710410625E0,-1.587745850E-3,-5.065267906E-4,1.527507789E-3,2.260704828E-3
3.720367625E0,3.156806342E-4,-7.993094623E-4,-6.889463402E-4,1.101452196E-3
3.730324625E0,-2.090751659E-3,6.539775059E-4,-9.352886118E-4,2.381951693E-3
3.740280625E0,2.145185368E-3,-2.966895700E-4,-8.274838328E-4,2.318312847E-3
3.750237625E0,2.759125782E-4,-8.394420147E-4,-2.244551666E-3,2.412219482E-3
3.760194625E0,-1.495818957E-3,-3.263326362E-4,2.036618534E-3,2.547897642E-3
3.770151625E0,1.274667564E-3,1.707523130E-3,1.125551295E-3,2.409829528E-3
3.780108625E0,2.013014862E-3,-9.459853172E-4,2.540650778E-3,3.376688234E-3
3.790064625E0,-7.516972255E-5,-6.682174280E-4,-7.611359470E-4,1.015624413E-3
3.800021625E0,-1.152880723E-4,-1.702730544E-3,4.561552778E-4,1.766539069E-3
3.809978625E0,1.930818544E-3,2.228095196E-3,-1.006452832E-3,3.115351626E-3
3.819935625E0,-1.537046861E-3,1.073801890E-3,-1.169035677E-3,2.209571896E-3
3.829892625E0,-3.082642797E-4,-6.511276588E-4,1.511968207E-3,1.674825947E-3
3.839848625E0,-1.957212808E-4,-1.732291654E-3,-3.210250288E-4,1.772624682E-3
3.849805625E0,-2.058412647E-4,-1.391889527E-4,2.323227469E-3,2.336478132E-3
3.859762625E0,9.419474518E-4,-6.951317191E-4,1.366808079E-3,1.799621470E-3
3.869719625E0,-2.503117546E-3,1.797163859E-4,2.238726709E-3,3.363003525E-3
3.879676625E0,1.435820130E-3,3.133991733E-3,-2.493687440E-3,4.254639900E-3
3.889632625E0,-5.194728728E-4,1.155650243E-4,-9.630946442E-5,5.408168390E-4
3.899589625E0,2.061834559E-3,3.892555833E-4,-1.757880673E-3,2.737302708E-3
3.909546625E0,2.339335857E-3,-7.369946688E-4,1.479458064E-3,2.864341034E-3
3.919503625E0,8.520312840E-4,-9.960541502E-4,2.524260432E-3,2.844287592E-3
3.929460625E0,7.516301703E-4,-4.011038691E-4,1.114382874E-3,1.402740681E-3
3.939416625E0,6.941100582E-5,-1.131418161E-3,-9.567169473E-4,1.483317990E-3
3.949373625E0,7.375980495E-4,-1.664849930E-3,-3.573805094E-3,4.010967342E-3
3.959330625E0,-1.135984436E-3,-2.583578229E-3,-2.465053461E-3,3.747242409E-3
3.969287625E0,2.765562385E-4,-1.064244658E-3,-1.232010312E-3,1.651347769E-3
3.979244625E0,3.248517169E-4,-1.000184566E-3,1.383228227E-3,1.737589748E-3
3.989200625E0,2.930222079E-3,6.035706028E-4,-1.527606975E-3,3.359178765E-3
3.999157625E0,-5.812760210E-4,-1.537820324E-3,-5.909008905E-5,1.645072886E-3
4.009114625E0,3.420389723E-3,1.847590320E-3,4.892549478E-4,3.918166185E-3
4.019071625E0,2.694943454E-3,-4.418091848E-4,-2.079665661E-3,3.432626522E-3
4.029028625E0,1.589998021E-3,1.541180536E-3,-2.035457641E-3,3.007726543E-3
4.038984625E0,8.334448794E-4,-1.066576689E-3,-1.378058456E-3,1.931647305E-3
4.048941625E0,1.648372156E-3,6.100535393E-5,-4.328228533E-5,1.650068415E-3
4.058898625E0,-1.791804098E-4,1.843718812E-3,1.217143610E-3,2.216493457E-3
4.068855625E0,4.602445988E-4,1.238491386E-4,3.833076917E-4,6.116277351E-4
4.078812625E0,-6.248630816E-4,4.732087255E-4,-2.066744491E-5,7.840966215E-4
4.088768625E0,-9.825256420E-4,2.366676927E-5,1.409864053E-4,9.928715525E-4
4.098725625E0,1.054452732E-4,-1.561921090E-5,-1.372596249E-3,1.376729141E-3
4.108682625E0,-1.560095814E-3,2.011578530E-3,2.170739695E-3,3.345513108E-3
4.118639625E0,-1.614538371E-3,-3.359774128E-4,-1.484245993E-3,2.218693566E-3
4.128596625E0,1.556646312E-4,-1.977017149E-3,8.819727227E-4,2.170415668E-3
4.138552625E0,1.649161568E-3,-6.379671395E-4,8.912147023E-4,1.980151407E-3
4.148509625E0,8.930900949E-4,2.661422826E-3,6.270292215E-4,2.876446944E-3
4.158466625E0,4.390060203E-4,-1.790678129E-3,-1.544226892E-3,2.404972171E-3
4.168423625E0,-8.137570694E-5,-1.049786806E-3,1.846975647E-4,1.069012411E-3
4.178380625E0,-1.758016879E-4,1.227868721E-3,-1.882331911E-3,2.254271779E-3
4.188336625E0,-6.032391684E-4,-1.724777743E-3,-9.981621988E-4,2.082086341E-3
4.198293625E0,1.416382845E-3,-7.484015077E-4,1.191897318E-3,1.996713399E-3
4.208250625E0,2.013463527E-3,-2.189651132E-4,-8.642021567E-5,2.027177730E-3
4.218207625E0,-1.153828809E-3,5.122888833E-4,-6.281770766E-5,1.264004306E-3
4.228164625E0,-2.590071643E-3,2.293145284E-3,2.119909041E-3,4.057215886E-3
4.238120625E0,4.809531383E-4,1.027616672E-3,-1.569936052E-3,1.937010881E-3
4.248078000E0,-1.457561739E-3,-1.132814214E-4,4.766788334E-5,1.462734128E-3
4.258035000E0,-1.163177891E-3,-1.876222901E-3,-2.039624378E-4,2.216933886E-3
4.267992000E0,1.478962367E-4,9.403368458E-4,3.619589843E-4,1.018391372E-3
4.277949000E0,3.319797572E-3,-4.799868912E-4,-1.475485042E-4,3.357560706E-3
4.287905000E0,-6.552364212E-4,2.984520048E-3,1.492692158E-3,3.400709420E-3
4.297862000E0,-6.308606826E-4,2.258255146E-3,3.332386026E-3,4.074616317E-3
4.307819000E0,4.948575515E-4,1.761959866E-4,6.364681758E-4,8.252398202E-4
4.317776000E0,4.837673623E-4,3.141788766E-4,-1.893490553E-4,6.071180215E-4
4.327733000E0,-1.735444763E-3,1.768797636E-3,-7.115947083E-4,2.578135107E-3
4.337689000E0,1.273256959E-3,8.496036753E-4,-8.720858023E-4,1.761687639E-3
4.347646000E0,-8.708576206E-5,5.033928901E-4,1.155072823E-5,5.110007349E-4
4.357603000E0,-1.131055178E-3,2.809762955E-3,1.346852630E-3,3.314825137E-3
4.367560000E0,1.540361671E-3,1.950711012E-4,3.180172294E-3,3.538963497E-3
4.377517000E0,-1.516870572E-3,-7.073767483E-4,-3.884690814E-4,1.718192779E-3
4.387473000E0,-1.711751102E-4,-1.037875190E-3,-2.241229638E-3,2.475802117E-3
4.397430000E0,1.535599586E-3,2.023654059E-3,-1.226689201E-3,2.820994192E-3
4.407387000E0,1.194448676E-3,1.681438647E-3,2.845888957E-5,2.062705377E-3
4.417344000E0,1.358029433E-3,6.183478981E-4,-1.003419980E-3,1.798179557E-3
4.427301000E0,5.638747243E-4,5.680136383E-4,6.408155896E-4,1.025299380E-3
4.437257000E0,1.121874666E-3,-2.708942629E-3,-3.832946531E-4,2.957006548E-3
4.447214000E0,1.278734882E-3,-7.427763194E-5,3.086804412E-3,3.342011602E-3
4.457171000E0,3.473566379E-3,1.671900973E-4,1.210546121E-3,3.682259881E-3
4.467128000E0,2.191835083E-4,6.100730971E-4,-2.114676405E-3,2.211806251E-3
4.477085000E0,1.452279510E-3,1.041576266E-3,1.664101146E-4,1.794906465E-3
4.487041000E0,2.055485500E-3,-1.768199727E-4,-2.527711913E-4,2.078504082E-3
4.496998000E0,1.046474441E-3,-1.540991478E-3,-2.757681534E-3,3.327847793E-3
4.506955000E0,2.941326238E-5,-2.683221363E-3,-1.526235603E-3,3.087059626E-3
4.516912000E0,1.804146450E-3,4.310114309E-4,-2.516005188E-4,1.871902264E-3
4.526869000E0,-1.934399130E-3,7.324814796E-4,1.275721937E-3,2.430204842E-3
4.536825000E0,7.971597370E-5,-1.121755689E-3,1.072418410E-3,1.553953574E-3
4.546782000E0,-1.199666527E-3,1.026882790E-3,7.994445041E-4,1.769971626E-3
4.556739000E0,1.123664202E-3,2.543087117E-3,2.683699131E-5,2.780401689E-3
4.566696000E0,2.051398624E-4,-1.049516723E-3,-1.028839499E-3,1.483940170E-3
4.576653000E0,1.804905129E-3,-1.179089770E-3,-1.765282359E-3,2.786423696E-3
4.586609000E0,7.545544067E-4,7.655499503E-4,-1.964486670E-3,2.239336275E-3
4.596566000E0,1.127173658E-3,2.681538463E-4,2.005898394E-3,2.316474759E-3
4.606523000E0,2.733642468E-4,1.231686212E-3,1.197096426E-3,1.739200618E-3
4.616480000E0,-3.597077448E-4,1.947503537E-3,6.534699351E-4,2.085469406E-3
4.626437000E0,-1.066777157E-3,1.552823000E-3,1.202879939E-3,2.235216526E-3
4.636393000E0,1.435529673E-3,-6.057405844E-4,-1.602749806E-3,2.235279410E-3
4.646350000E0,-6.491928361E-4,1.094155014E-3,1.144567505E-4,1.277390653E-3
4.656307000E0,1.819373807E-3,-1.453841105E-3,-9.806742892E-4,2.526954109E-3
4.666264000E0,1.351190032E-3,3.762831911E-4,1.516838558E-3,2.065938710E-3
4.676221000E0,-1.656806562E-3,-1.954529434E-4,-1.556558069E-3,2.281684215E-3
4.686177000E0,5.557476543E-4,1.607772894E-3,1.376913860E-3,2.188533964E-3
4.696134000E0,6.866493495E-4,5.724970251E-4,1.453191973E-3,1.706167367E-3
4.706091000E0,3.124552313E-5,4.350775853E-4,3.182382323E-3,3.212137300E-3
4.716048000E0,-6.362361601E-4,1.534554176E-3,-1.635376364E-3,2.331117505E-3
4.726005000E0,3.063693643E-3,7.678307593E-4,6.703888066E-4,3.228808443E-3
4.735962000E0,1.904963166E-3,-1.991841011E-3,-3.417144530E-3,4.390124373E-3
4.745918000E0,-7.986779092E-4,-2.799611539E-4,-1.271435991E-3,1.527355273E-3
4.755875000E0,2.173759276E-3,-7.118480280E-4,-1.978079323E-3,3.024029565E-3
4.765832000E0,-1.929905498E-3,-8.617844433E-4,1.058190595E-3,2.363678277E-3
4.775789000E0,1.943355426E-3,3.753928468E-4,2.975129522E-3,3.573366169E-3
4.785746000E0,-6.241982337E-4,-1.468047500E-3,3.926623613E-4,1.642854414E-3
4.795702000E0,-2.786545083E-4,-8.533066139E-4,-1.577201299E-3,1.814757408E-3
4.805659000E0,2.060409170E-4,-9.590340778E-4,-1.091973856E-3,1.467857665E-3
4.815616000E0,7.735311519E-4,-8.589001372E-4,-4.761316814E-4,1.250104502E-3
4.825573000E0,-9.207718540E-4,-1.752124168E-3,-4.849201068E-4,2.037868351E-3
4.835530000E0,9.166903328E-4,8.321497589E-4,-1.309418119E-3,1.802046115E-3
4.845486000E0,-2.316646278E-4,2.169599757E-4,2.016592771E-4,3.760406824E-4
4.855443000E0,1.598682138E-3,-2.697762102E-5,5.563069135E-4,1.692923434E-3
4.865400000E0,-4.540896043E-6,-8.210539818E-5,-1.057834364E-3,1.061025664E-3
4.875357000E0,5.298937904E-4,1.504189335E-3,-2.902685665E-4,1.620996245E-3
4.885314000E0,2.328859176E-3,2.343617380E-3,8.373139426E-4,3.408404630E-3
4.895270000E0,2.309574047E-4,6.543779746E-4,2.236676868E-3,2.341852956E-3
4.905227000E0,1.140959561E-3,-2.254859544E-3,-2.157805488E-3,3.322996360E-3
4.915184000E0,5.419964436E-3,3.246804699E-4,-7.509384304E-4,5.481363008E-3
4.925141000E0,1.728290459E-3,-1.751786098E-3,1.268391497E-4,2.464108483E-3
4.935098000E0,1.690172590E-3,-5.428792909E-3,-4.696385004E-4,5.705176260E-3
4.945054000E0,1.679097768E-4,1.449370757E-4,1.439315267E-3,1.456306591E-3
4.955011000E0,-2.176030073E-3,1.520725898E-3,2.373286523E-3,3.560927275E-3
4.964968000E0,-8.228778606E-4,-7.160622627E-4,1.304826234E-3,1.700718859E-3
4.974925000E0,2.993918490E-3,1.847879030E-3,-3.143679351E-4,3.532284251E-3
4.984882000E0,1.325448044E-3,5.775513127E-4,4.478287883E-4,1.513581401E-3
4.994838000E0,-7.340465672E-4,1.407349482E-4,-7.460112683E-4,1.056013021E-3
5.004795000E0,-3.004837781E-4,9.338250384E-4,-1.649089623E-3,1.918805954E-3
5.014752000E0,1.154253492E-3,-1.909882762E-3,-1.275793184E-3,2.570525537E-3
5.024709000E0,2.664265689E-3,4.640594125E-4,-1.639581751E-3,3.162576658E-3
5.034666000E0,-4.048785195E-5,-1.618824899E-5,2.318189945E-3,2.318599997E-3
5.044622000E0,-7.946952246E-4,6.581237540E-4,-8.105207235E-5,1.035005707E-3
5.054579000E0,-7.764680777E-4,2.988018095E-4,7.747099735E-4,1.136820452E-3
5.064536000E0,-4.779277369E-4,8.277054876E-4,7.664542645E-4,1.225138129E-3
5.074493000E0,1.268543070E-3,1.657913439E-3,2.891551703E-4,2.107484094E-3
5.084450000E0,1.675473992E-3,7.040239871E-5,-9.260452352E-4,1.915653772E-3
5.094407000E0,3.982085036E-4,2.671688795E-3,1.064376440E-3,2.903340875E-3
5.104363000E0,-8.524119621E-4,6.045429036E-4,2.272652462E-3,2.501405103E-3
5.114320000E0,-3.526901128E-4,-9.974846616E-4,-5.549411289E-4,1.194707338E-3
5.124277000E0,-2.233148087E-3,1.370064914E-3,-1.775715500E-4,2.625939813E-3
5.134234000E0,-7.902926300E-4,-1.067525707E-3,-5.709324032E-4,1.445730744E-3
5.144191000E0,3.862919984E-4,-6.826994941E-4,5.084467120E-4,9.347824165E-4
5.154147000E0,-1.632134896E-3,-3.141807392E-4,2.773436718E-4,1.685079632E-3
5.164104000E0,1.452587312E-4,7.822420448E-4,-1.804535277E-4,8.158224018E-4
5.174061000E0,2.225980628E-3,1.667757519E-3,1.178465784E-3,3.020792363E-3
5.184018000E0,-1.769895898E-4,-1.830038615E-3,-9.419429116E-4,2.065822619E-3
5.193975000E0,1.944670337E-3,5.013449118E-4,-1.373742241E-3,2.433157863E-3
5.203931000E0,3.297556192E-3,6.214538589E-4,-7.351166569E-4,3.435182417E-3
5.213888000E0,-6.244387478E-4,-1.046879217E-3,-1.441971399E-4,1.227465951E-3
5.223845000E0,3.258183831E-3,8.958969265E-4,1.100564376E-3,3.553819794E-3
5.233802000E0,7.690821076E-4,-1.182314008E-5,1.345672645E-4,7.808555715E-4
5.243759500E0,-2.722139470E-4,1.795930788E-3,-1.711635850E-4,1.824490285E-3
5.253715500E0,-2.585181501E-3,6.775129586E-4,1.111631747E-3,2.894462358E-3
5.263672500E0,9.289348964E-5,5.145277828E-4,-1.928899437E-3,1.998504711E-3
5.273629500E0,7.695971290E-4,-4.887375981E-4,-9.733624756E-4,1.333633641E-3
5.283586500E0,2.162696794E-3,6.425725296E-4,1.807244495E-3,2.890724743E-3
5.293543500E0,-2.517242683E-3,-9.753201157E-4,-8.036615327E-4,2.816670359E-3
5.303499500E0,2.938509220E-3,-1.409519464E-4,3.305790015E-4,2.960403075E-3
5.313456500E0,-1.172592863E-3,-9.439243004E-4,-1.046950929E-3,1.833595745E-3
5.323413500E0,-3.026152728E-3,1.503685489E-4,-5.968771875E-4,3.088118102E-3
5.333370500E0,8.243478951E-4,-2.004615031E-3,-1.070087776E-3,2.417254377E-3
5.343327500E0,1.099718735E-3,-1.734836027E-3,-2.948415466E-3,3.593353739E-3
5.353283500E0,-1.473040436E-3,1.165865920E-3,-7.308479398E-4,2.015745565E-3
5.363240500E0,2.115569077E-3,-1.893040724E-3,1.068117563E-3,3.033168448E-3
5.373197500E0,7.019608747E-4,-9.931689128E-4,1.227254514E-3,1.727798368E-3
5.383154500E0,-1.384093310E-3,8.388198912E-4,-1.043090597E-3,1.925453477E-3
5.393111500E0,8.877596701E-4,1.050503924E-3,-1.012559049E-3,1.707908532E-3
5.403068500E0,-1.324262004E-3,4.507601261E-4,-1.357172616E-3,1.949043883E-3
5.413024500E0,-4.773428664E-4,1.826408319E-3,1.595303882E-3,2.471561862E-3
5.422981500E0,-3.039708827E-4,-3.540795296E-5,1.353588887E-4,3.346252372E-4
5.432938500E0,-1.582974801E-4,2.668836154E-3,3.480733372E-3,4.388991834E-3
5.442895500E0,-1.166570233E-3,5.356445909E-4,7.121111266E-4,1.467958955E-3
5.452852500E0,1.396278734E-3,-1.200315543E-3,8.665984496E-4,2.035029380E-3
5.462808500E0,8.687065565E-4,-5.864566192E-4,-5.635190755E-4,1.190015208E-3
5.472765500E0,3.644393757E-3,4.357295111E-4,-1.744071953E-3,4.063650211E-3
5.482722500E0,-1.701102941E-3,-9.786756709E-4,-3.375258297E-3,3.904347046E-3
5.492679500E0,1.164344139E-3,4.419218749E-5,-2.177566290E-3,2.469705483E-3
5.502636500E0,1.700172201E-3,-5.627423525E-4,1.281984150E-4,1.795466319E-3
5.512592500E0,-9.954056004E-4,6.537670270E-4,5.027861334E-4,1.292686169E-3
5.522549500E0,-1.979710069E-3,-1.932162791E-3,-2.642045729E-4,2.778904292E-3
5.532506500E0,-1.332310028E-3,9.243031964E-4,-1.776900142E-3,2.405568649E-3
5.542463500E0,7.255146047E-4,-2.031538635E-3,-1.637883484E-3,2.708538901E-3
5.552420500E0,-1.519464422E-3,-9.308792651E-4,-3.537087701E-3,3.960593105E-3
5.562376500E0,1.689644647E-3,1.699258573E-3,-2.151445486E-3,3.220418670E-3
5.572333500E0,-1.269277534E-3,1.081889495E-3,1.353309024E-3,2.147788550E-3
5.582290500E0,-1.334392000E-4,-1.104831696E-3,1.280604862E-3,1.696587135E-3
5.592247500E0,3.686154960E-4,-2.931216732E-4,4.402450286E-4,6.446808391E-4
5.602204500E0,1.751861302E-3,-1.246001571E-3,-2.379776444E-3,3.207003876E-3
5.612160500E0,-1.543475897E-3,8.213575929E-4,-1.524216961E-3,2.319522254E-3
5.622117500E0,1.675220439E-3,1.353191212E-3,-3.038756084E-3,3.724450095E-3
5.632074500E0,1.111851539E-3,-8.180364966E-5,-1.667543780E-3,2.005893303E-3
5.642031500E0,1.821051235E-3,-2.241507173E-5,6.750551984E-5,1.822439857E-3
5.651988500E0,-2.490640385E-3,-1.695972867E-3,2.575145103E-3,3.963708591E-3
5.661944500E0,-1.664527692E-3,-4.342622124E-3,4.331766162E-3,6.355565862E-3
5.671901500E0,-1.976109808E-3,-1.465838403E-3,2.960870042E-4,2.478176691E-3
5.681858500E0,8.678798331E-4,-2.184137702E-4,-2.429391723E-3,2.588989016E-3
5.691815500E0,-4.442877835E-4,4.263781011E-5,-3.412451595E-3,3.441516454E-3
5.701772500E0,6.209765561E-4,1.255175099E-3,-5.329128355E-3,5.510053124E-3
5.711728500E0,-1.071563689E-3,4.827138036E-5,1.433011610E-3,1.790000319E-3
5.721685500E0,1.028338680E-3,5.401568487E-4,6.662872620E-4,1.339099913E-3
5.731642500E0,-1.256919466E-3,1.212787814E-3,3.406000091E-3,3.827732677E-3
5.741599500E0,1.970831770E-3,-1.426937990E-3,2.370829228E-3,3.397228447E-3
5.751556500E0,1.116822707E-3,2.133981325E-3,1.233886927E-3,2.706223605E-3
5.761513500E0,4.325132817E-3,1.326777041E-3,-2.074026037E-3,4.976815770E-3
5.771469500E0,7.762095192E-4,-3.980826586E-4,-1.809769310E-3,2.009038570E-3
5.781426500E0,6.358609535E-4,-6.409632042E-4,-3.791190684E-4,9.792263524E-4
5.791383500E0,1.400384121E-3,1.695845276E-5,2.833693288E-4,1.428867192E-3
5.801340500E0,2.010514261E-3,3.748880699E-4,5.954918452E-4,2.130098401E-3
5.811297500E0,-1.472374424E-3,-8.006952703E-5,3.810839262E-3,4.086171002E-3
5.821253500E0,-1.530963928E-3,-4.201550037E-4,-4.222197458E-5,1.588132069E-3
5.831210500E0,-1.850976842E-4,-5.713207647E-4,-1.693812199E-3,1.797127801E-3
5.841167500E0,1.144884969E-3,-4.799747840E-4,-2.489032224E-3,2.781441856E-3
5.851124500E0,-1.720349304E-3,-1.458530314E-3,7.023015060E-4,2.362231956E-3
5.861081500E0,1.649082173E-3,1.352969557E-3,3.291922621E-4,2.158324855E-3
5.871037500E0,-4.954275209E-5,-1.200668514E-3,-1.249318942E-3,1.733452389E-3
5.880994500E0,-5.275802687E-4,-8.430061862E-4,2.883905545E-4,1.035456171E-3
5.890951500E0,-2.848659176E-3,1.058476977E-3,-3.041133285E-3,4.299270202E-3
5.900908500E0,-1.562085934E-3,-2.770883031E-3,-1.894642599E-3,3.702374348E-3
5.910865500E0,3.619272029E-4,-2.878541127E-3,-1.709121279E-4,2.906234897E-3
5.920822500E0,-5.810980219E-4,-6.832974032E-4,1.047217753E-3,1.378852883E-3
5.930778500E0,2.597020939E-4,-1.348290592E-3,-5.791173317E-4,1.490204544E-3
5.940735500E0,1.151861041E-3,6.623957306E-4,-2.944096923E-5,1.329066865E-3
5.950692500E0,1.615413930E-4,9.032804519E-4,-1.465015113E-3,1.728664363E-3
5.960649500E0,-1.793751493E-3,-1.713275909E-3,-1.961695030E-3,3.162452553E-3
5.970606500E0,8.030282333E-5,-1.021181233E-3,-1.960126683E-4,1.042919278E-3
5.980562500E0,2.930894261E-4,2.206835896E-3,4.948112182E-4,2.280540336E-3
5.990519500E0,-2.586973133E-4,6.070416421E-4,-4.203421995E-4,7.823754979E-4
6.000476500E0,1.726156566E-3,1.803067513E-3,5.101663992E-4,2.547732070E-3
6.010433500E0,1.234631054E-3,1.609186642E-3,9.047240019E-5,2.030266175E-3
6.020390500E0,1.082031988E-3,3.747171722E-3,4.065898247E-4,3.921403374E-3
6.030346500E0,3.879785072E-4,7.228981704E-4,-1.454026438E-3,1.669521479E-3
6.040303500E0,3.404449672E-5,-2.170359716E-3,-4.830379039E-4,2.223723441E-3
6.050260500E0,3.023685422E-3,-1.152714714E-3,-9.487038478E-4,3.372160099E-3
6.060217500E0,-1.915146597E-3,-9.724181145E-4,-5.558873527E-4,2.218646936E-3
6.070174500E0,-1.047016354E-3,-3.033352084E-3,-7.382314652E-4,3.292788151E-3
6.080130500E0,-2.118488774E-4,-9.472984821E-4,7.550027221E-4,1.229749353E-3
6.090087500E0,-7.332139648E-4,-2.823118120E-5,1.440397464E-3,1.616522370E-3
6.100044500E0,8.628185024E-4,-4.263743758E-4,1.105371863E-3,1.465639052E-3
6.110001500E0,-3.760471009E-4,-1.701236703E-3,1.406356692E-3,2.239075007E-3
6.119958500E0,1.760606887E-3,-2.657929435E-4,-2.195034176E-4,1.794035744E-3
6.129915500E0,1.199815422E-3,1.361412928E-3,-2.976886928E-3,3.486381791E-3
6.139871500E0,7.590622408E-4,2.119932324E-4,2.505979501E-4,8.269921092E-4
6.149828500E0,-2.936439356E-3,-7.828604430E-4,6.591808051E-5,3.039719026E-3
6.159785500E0,-5.782102235E-4,-8.089598268E-4,1.361812465E-3,1.686201724E-3
6.169742500E0,-1.697068685E-3,-1.579468139E-3,2.557264641E-3,3.451719016E-3
6.179699500E0,7.029720582E-4,4.519904032E-4,1.780686900E-3,1.967056399E-3
6.189655500E0,2.230122220E-3,-3.159604967E-5,-3.017392009E-4,2.250664340E-3
6.199612500E0,-2.261299174E-3,-1.399870962E-4,-1.888209954E-4,2.273482727E-3
6.209569500E0,-6.626351969E-4,3.169970587E-4,-2.408577595E-3,2.518098205E-3
6.219526500E0,1.116090221E-3,-1.842100173E-4,-2.823094837E-4,1.165885654E-3
6.229483500E0,9.300187230E-5,1.687539741E-3,-1.607296057E-3,2.332346531E-3
6.239439500E0,-2.843679395E-4,-2.262992784E-3,8.175126277E-4,2.422876052E-3
6.249396000E0,-1.945587457E-3,-1.048558392E-3,-3.258390352E-4,2.234044836E-3
6.259353000E0,2.224919153E-4,-1.129784621E-3,2.332528122E-3,2.601269571E-3
6.269310000E0,1.122923219E-3,2.611937001E-3,-4.270351492E-4,2.874983560E-3
6.279267000E0,-1.220924896E-3,1.628964208E-3,-1.106940210E-3,2.317217862E-3
6.289223000E0,1.803288586E-3,1.327164471E-3,-2.705957741E-4,2.255313133E-3
6.299180000E0,5.811639130E-4,-1.173277386E-3,-2.530189231E-4,1.333547859E-3
6.309137000E0,1.445706468E-3,6.726570427E-5,-9.348210879E-4,1.722928418E-3
6.319094000E0,2.618828788E-3,-7.106438279E-4,-2.511874773E-4,2.725137432E-3
6.329051000E0,5.894488422E-4,1.352075487E-4,-2.267973498E-3,2.347218525E-3
6.339007000E0,1.050175633E-3,1.418655738E-4,-5.350545980E-4,1.187130205E-3
6.348964000E0,1.394758350E-3,-2.362227067E-3,-9.195022285E-4,2.893259740E-3
6.358921000E0,-1.850569737E-3,9.137270972E-4,-1.029772684E-4,2.066424419E-3
6.368878000E0,-1.852230635E-4,2.620141022E-3,8.400799707E-4,2.757749248E-3
6.378835000E0,-7.775102276E-4,-2.176478505E-3,-3.721909598E-4,2.340962825E-3
6.388792000E0,-1.449639443E-3,1.143406145E-3,-2.618635539E-3,3.204073066E-3
6.398748000E0,1.674248488E-3,-4.214672372E-4,-6.630760618E-4,1.849435723E-3
6.408705000E0,-7.989516016E-4,-1.164423302E-4,-3.412095830E-4,8.765309222E-4
6.418662000E0,-3.970805556E-4,-1.805685461E-3,8.092760108E-4,2.018192412E-3
6.428619000E0,1.661550486E-3,-1.064932905E-3,-3.429739736E-4,2.003113391E-3
6.438576000E0,1.491640811E-3,6.868951023E-4,-2.449699678E-4,1.660369680E-3
6.448532000E0,-1.248921733E-3,4.156259820E-4,1.579094678E-4,1.325702023E-3
6.458489000E0,2.733410802E-4,-5.907816812E-4,-2.441601828E-3,2.526886983E-3
6.468446000E0,-7.172578480E-4,-1.111297868E-3,-9.999256581E-4,1.658099241E-3
6.478403000E0,-1.409146935E-3,-6.582941860E-4,-1.773574390E-3,2.358943076E-3
6.488360000E0,-5.801427178E-4,8.296202868E-4,1.933846157E-3,2.182795536E-3
6.498316000E0,4.369183443E-4,1.713522710E-3,1.951689366E-3,2.633656982E-3
6.508273000E0,3.621419892E-4,-8.114855736E-4,5.650520325E-4,1.053061943E-3
6.518230000E0,3.022906138E-3,-1.259962097E-3,-2.113555558E-3,3.897766424E-3
6.528187000E0,1.076240791E-3,-6.275009364E-4,1.418785192E-3,1.888121576E-3
6.538144000E0,-7.970267907E-4,-7.971441373E-4,-3.689853474E-5,1.127852820E-3
6.548101000E0,1.675748383E-3,-2.137813717E-4,9.717852809E-4,1.948897573E-3
6.558057000E0,5.239312304E-4,-7.325652987E-4,-2.132728696E-6,9.006444357E-4
6.568014000E0,1.120780711E-3,-4.632417113E-4,4.326049238E-4,1.287590504E-3
6.577971000E0,8.853944018E-5,-7.383460179E-4,6.347387098E-4,9.776948933E-4
6.587928000E0,7.277665427E-4,-1.018443145E-3,2.480104566E-3,2.778090934E-3
6.597885000E0,2.228457713E-3,-2.096416429E-4,-1.262435690E-3,2.569769887E-3
6.607841000E0,2.120329067E-3,-1.955864951E-3,-1.570938155E-3,3.284668894E-3
6.617798000E0,-6.749245804E-4,-1.706593670E-3,-1.691578887E-3,2.495881463E-3
6.627755000E0,6.327100564E-4,-1.950280741E-3,-2.096109092E-4,2.061032197E-3
6.637712000E0,-3.470667871E-4,7.110163569E-4,6.705634296E-4,1.037137854E-3
6.647669000E0,1.505343942E-3,-9.286655113E-4,-1.765266061E-4,1.777538089E-3
6.657625000E0,8.837621426E-4,-4.184031859E-4,1.807528548E-3,2.055056253E-3
6.667582000E0,-1.574772177E-3,-1.469617710E-3,2.175406553E-4,2.164949782E-3
6.677539000E0,1.156565733E-3,9.498642758E-4,-5.225520581E-4,1.585227773E-3
6.687496000E0,-1.722928486E-3,2.659511752E-3,1.281804405E-3,3.418260941E-3
6.697453000E0,-4.382195184E-4,2.410952002E-4,-2.569393255E-3,2.617622001E-3
6.707409000E0,3.292408073E-4,5.115112290E-4,-1.268534455E-3,1.406848574E-3
6.717366000E0,-1.860809280E-4,1.272168010E-4,-6.671925075E-4,7.042414844E-4
6.727323000E0,7.333725225E-4,-6.248382851E-4,-1.535930671E-3,1.813102635E-3
6.737280000E0,-3.041949822E-4,1.407685690E-3,1.105658710E-3,1.815652712E-3
6.747237000E0,2.452824963E-3,-8.278526366E-6,-1.721476670E-3,2.996648254E-3
6.757194000E0,-2.604536712E-5,2.167588100E-4,-4.591383040E-4,5.084001623E-4
6.767150000E0,-1.794835785E-3,-7.913447917E-6,6.010830402E-4,1.892828291E-3
6.777107000E0,-1.181509811E-3,1.063356176E-4,1.009611879E-3,1.557751214E-3
6.787064000E0,-7.190784672E-4,-9.969733655E-4,-1.252177171E-3,1.754701514E-3
6.797021000E0,1.338213449E-3,-1.637729816E-3,-1.943693496E-4,2.123853486E-3
6.806978000E0,-8.538312977E-4,2.448186278E-4,5.776537582E-4,1.059550806E-3
6.816934000E0,-5.614162656E-4,2.791732550E-4,-4.223631695E-4,7.559871536E-4
6.826891000E0,5.097567337E-4,1.031670719E-3,-8.816733025E-4,1.449670381E-3
6.836848000E0,-6.947909715E-4,9.610969573E-4,1.974394545E-4,1.202257956E-3
6.846805000E0,-5.727963289E-4,-4.017800093E-4,-1.195085235E-3,1.384829061E-3
6.856762000E0,3.116395092E-4,-1.432689838E-3,-3.798916005E-4,1.514607865E-3
6.866718000E0,-1.475865720E-3,3.743525594E-4,2.146027517E-3,2.631302636E-3
6.876675000E0,5.835567135E-4,1.864657737E-3,1.285027713E-3,2.338542952E-3
6.886632000E0,-2.167963888E-3,-4.221359268E-4,-1.704402268E-3,2.789848249E-3
6.896589000E0,1.140990062E-4,-2.479273826E-5,-3.078326583E-3,3.080540182E-3
6.906546000E0,2.258323831E-3,-8.929688483E-4,4.306808114E-5,2.428842266E-3
6.916503000E0,2.226034412E-4,1.603478566E-3,4.129810259E-4,1.670703185E-3
6.926459000E0,1.189315575E-3,-2.008370124E-3,-1.089901663E-3,2.576025568E-3
6.936416000E0,-3.507905640E-4,1.523246989E-3,1.470993739E-3,2.146429125E-3
6.946373000E0,1.789484988E-3,-1.232501119E-3,3.370451741E-4,2.198844010E-3
6.956330000E0,-4.923114320E-4,1.550768502E-3,1.203104854E-3,2.023540161E-3
6.966287000E0,2.754136221E-4,-1.606997102E-3,-2.412939910E-3,2.912142057E-3
6.976243000E0,-2.545553725E-4,1.384265721E-3,-2.856068313E-4,1.436161998E-3
6.986200000E0,2.125634113E-3,-1.476239413E-5,-3.837058321E-4,2.160038999E-3
6.996157000E0,6.354856305E-5,1.599645242E-3,2.147096209E-3,2.678231777E-3
7.006114000E0,-1.527424669E-3,9.287148714E-4,1.140387729E-3,2.120382419E-3
7.016071000E0,1.170623815E-3,-5.336264148E-4,-1.203529537E-4,1.292130837E-3
7.026027000E0,-3.034700872E-3,1.683788374E-3,-2.668387257E-3,4.377766922E-3
7.035984000E0,1.139005297E-3,8.456921205E-4,-1.538674347E-3,2.092856176E-3
7.045941000E0,1.674028230E-3,2.057375386E-4,1.654019579E-3,2.362303795E-3
7.055898000E0,1.568252919E-4,6.408980116E-4,2.569880337E-3,2.653229990E-3
7.065855000E0,3.061500844E-3,-7.260376588E-4,1.560645178E-4,3.150281611E-3
7.075812000E0,4.758378491E-4,-1.257658005E-5,7.350696251E-5,4.816462421E-4
7.085768000E0,-5.032778718E-4,4.596728832E-5,-5.187154748E-4,7.242011817E-4
7.095725000E0,1.095153857E-4,2.358499914E-4,-2.465486061E-3,2.479161220E-3
7.105682000E0,6.328431191E-4,1.188198105E-3,-1.533028670E-3,2.040216177E-3
7.115639000E0,-1.536301570E-3,1.317627728E-3,8.712736890E-4,2.203516096E-3
7.125596000E0,3.995363368E-4,7.830020040E-4,1.458715647E-3,1.703106797E-3
7.135552000E0,-1.974938205E-3,2.301536500E-3,1.025685575E-3,3.201481231E-3
7.145509000E0,-1.277037198E-3,7.826546207E-4,1.474847086E-4,1.505032890E-3
7.155466000E0,-2.546496689E-4,2.552324906E-3,-1.884507481E-3,3.182856787E-3
7.165423000E0,-1.224106643E-3,-2.374881878E-4,-7.667145692E-4,1.463792658E-3
7.175380000E0,1.041444484E-3,-1.982125454E-3,-2.626666334E-3,3.451493004E-3
7.185336000E0,-1.336161513E-3,7.934486493E-4,-1.365062781E-3,2.068401495E-3
7.195293000E0,3.211236326E-4,-1.144533977E-3,-8.779708296E-4,1.477806208E-3
7.205250000E0,2.528032055E-4,7.752925158E-4,5.890121683E-4,1.005943975E-3
7.215207000E0,4.613287747E-4,-1.041515730E-3,-5.934312940E-4,1.284422032E-3
7.225164000E0,2.033669502E-3,-2.414463088E-4,-1.271106768E-3,2.410356899E-3
7.235121000E0,3.869563807E-5,-3.953771666E-4,-1.367778983E-3,1.424303269E-3
7.245076792E0,4.293855745E-4,8.424716070E-4,-1.024487428E-3,1.394168165E-3
7.255033792E0,-5.405376432E-4,-9.506344795E-4,-4.415218718E-4,1.179333889E-3
7.264990792E0,1.637122710E-3,-1.834835857E-4,-2.393997274E-4,1.664676913E-3
7.274947792E0,-1.785039203E-3,-9.230440482E-4,1.904711127E-3,2.768808363E-3
7.284904792E0,1.362631330E-3,-1.833541319E-4,-1.367355231E-3,1.939083084E-3
7.294860792E0,2.646100475E-4,2.240388654E-3,-3.652347717E-3,4.292901542E-3
7.304817792E0,5.420899251E-4,-7.528746501E-4,-7.928437553E-4,1.220361809E-3
7.314774792E0,8.185260813E-4,8.484842256E-4,-2.718484029E-5,1.179258005E-3
7.324731792E0,-2.982962178E-4,-8.507547900E-4,2.192971297E-4,9.278230313E-4
7.334688792E0,7.680333802E-4,-7.687294856E-4,9.372853674E-4,1.435034548E-3
7.344644792E0,-2.743392950E-3,1.113930717E-3,-4.441244528E-5,2.961252942E-3
7.354601792E0,1.641767914E-3,6.790366024E-4,-1.477459446E-3,2.310709632E-3
7.364558792E0,-1.555739087E-3,5.576899275E-4,-2.400511876E-3,2.914412364E-3
7.374515792E0,-7.527960697E-4,-3.869328648E-4,1.476006582E-4,8.591885234E-4
7.384472792E0,-1.602767268E-3,4.228111356E-5,-2.010078169E-4,1.615875846E-3
7.394429792E0,-3.960889298E-4,5.346722901E-5,8.749095723E-4,9.618793815E-4
7.404385792E0,1.151085598E-3,-9.931772947E-4,5.099968985E-5,1.521183803E-3
7.414342792E0,-7.269757334E-4,-4.102112725E-4,-1.035303343E-3,1.329894739E-3
7.424299792E0,1.064655371E-3,-3.238743171E-3,-1.435026526E-3,3.698952489E-3
7.434256792E0,-7.052815054E-4,1.284635626E-3,-1.712794416E-3,2.254190631E-3
7.444213792E0,-1.101827365E-3,-8.005537093E-4,-7.787765935E-4,1.568885836E-3
7.454169792E0,-5.822445964E-4,-6.956243888E-4,-1.442436129E-3,1.703973018E-3
7.464126792E0,1.461654319E-3,1.235082746E-4,-1.791631803E-4,1.477764220E-3
7.474083792E0,-5.208026851E-4,1.464113593E-4,4.272043705E-3,4.306161764E-3
7.484040792E0,9.010289796E-5,-1.993678510E-3,4.685996100E-3,5.093273209E-3
7.493997792E0,-3.724881681E-4,4.816707224E-5,4.339935258E-4,5.739493729E-4
7.503953792E0,-2.133598318E-3,-1.620414667E-3,-3.424399532E-3,4.347930270E-3
7.513910792E0,1.687044278E-4,7.495377213E-5,-2.081368119E-3,2.089538824E-3
7.523867792E0,-1.802427112E-3,1.343354583E-3,-1.502488740E-4,2.252980194E-3
7.533824792E0,-7.424891228E-4,2.155061811E-4,-4.594419152E-4,8.993441416E-4
7.543781792E0,-4.775640555E-4,-2.156647854E-3,1.973006409E-3,2.961748078E-3
7.553738792E0,-1.916736364E-3,5.816137418E-4,1.051019877E-3,2.262033514E-3
7.563694792E0,-1.822187332E-3,-1.527051441E-3,4.919078201E-4,2.427802727E-3
7.573651792E0,8.063526475E-4,8.815620095E-5,1.791797113E-3,1.966853579E-3
7.583608792E0,-2.944500884E-4,1.132830977E-3,-1.531687099E-3,1.927711661E-3
7.593565792E0,1.462170854E-3,-1.888964325E-4,2.614189871E-4,1.497319390E-3
7.603522792E0,-9.775767103E-5,-8.781328797E-4,-1.218434423E-3,1.505076862E-3
7.613478792E0,1.699609682E-3,5.426639691E-4,-1.129484735E-3,2.111609107E-3
7.623435792E0,-6.531506078E-4,1.463873312E-3,1.331692096E-3,2.083970880E-3
7.633392792E0,-1.739453874E-3,1.717672683E-3,1.688953489E-5,2.444664493E-3
7.643349792E0,-2.068011556E-3,-1.437463798E-3,-6.254571490E-4,2.595028056E-3
7.653306792E0,3.223955631E-3,-2.139206976E-3,-1.102429349E-3,4.023114076E-3
7.663262792E0,-1.883646706E-3,-8.090389892E-4,1.189577859E-3,2.370182373E-3
7.673219792E0,-2.950711641E-4,1.374753192E-3,-2.500498202E-3,2.868711311E-3
7.683176792E0,2.357850317E-4,2.917740494E-5,-1.031909604E-3,1.058906668E-3
7.693133792E0,9.207500261E-4,2.436142415E-3,2.027321607E-4,2.612215689E-3
7.703090792E0,3.217699705E-4,1.051714644E-4,-9.893537499E-4,1.045666196E-3
7.713047792E0,-5.903625861E-4,-1.156041399E-4,-1.191220712E-3,1.334503310E-3
7.723003792E0,-1.685272437E-4,-5.697319284E-4,6.642644294E-4,8.912031947E-4
7.732960792E0,1.401938731E-3,-2.317564562E-3,-1.418327913E-3,3.057481279E-3
7.742917792E0,-3.655974753E-3,-3.724869341E-3,1.087408513E-3,5.331346948E-3
7.752874792E0,-7.110510487E-4,-4.677660763E-5,1.056781970E-3,1.274586120E-3
7.762831792E0,-2.579686698E-4,4.078811035E-4,2.784308512E-3,2.825825316E-3
7.772787792E0,-4.326722119E-4,1.932587475E-5,6.724218838E-4,7.998311836E-4
7.782744792E0,1.289376523E-4,7.037324831E-4,-6.304359995E-4,9.535795066E-4
7.792701792E0,-1.849524677E-3,-1.343172975E-3,-2.988725901E-4,2.305250528E-3
7.802658792E0,-3.759245155E-4,9.307358414E-4,9.141564369E-4,1.357670961E-3
7.812615792E0,1.056589885E-3,-1.673568971E-3,-1.809350215E-4,1.987448809E-3
7.822572792E0,-1.911334693E-3,1.807469875E-3,2.375370357E-3,3.544366233E-3
7.832528792E0,8.082854911E-4,-3.916583955E-5,-2.269715071E-3,2.409660951E-3
7.842485792E0,3.254661802E-3,-1.013812609E-3,3.602961078E-4,3.427893338E-3
7.852442792E0,-1.623716787E-3,4.823515192E-4,1.442338806E-3,2.224738282E-3
7.862399792E0,1.350630075E-3,2.537113614E-3,-1.012742519E-3,3.047424241E-3
7.872356792E0,-2.041970845E-3,6.039254367E-4,-2.682277933E-3,3.424760689E-3
7.882312792E0,-8.593895473E-4,1.479050145E-3,-1.835277304E-3,2.508860799E-3
7.892269792E0,1.303896075E-3,-1.561306417E-4,-1.164959744E-3,1.755463744E-3
7.902226792E0,4.063422093E-4,-3.533642739E-4,-8.734245785E-4,1.026085179E-3
7.912183792E0,1.762451138E-4,-1.731816679E-3,1.676045358E-4,1.748811777E-3
7.922140792E0,1.095852349E-4,6.046649069E-4,1.554196700E-3,1.671273753E-3
7.932096792E0,4.776341375E-4,-1.666478813E-3,-2.034679055E-3,2.673051601E-3
7.942053792E0,-2.886890899E-3,-1.971556805E-3,1.424842980E-3,3.775096398E-3
7.952010792E0,-1.610437990E-3,-2.310844138E-3,-1.629802398E-3,3.254192221E-3
7.961967792E0,-4.625483416E-5,1.791222021E-4,-4.198649898E-3,4.202723550E-3
7.971924792E0,2.220361494E-3,-4.981197417E-4,-1.309386455E-3,2.625380225E-3
7.981881792E0,-4.310997901E-4,1.338645816E-4,7.378216833E-5,4.573954128E-4
7.991837792E0,-1.051288564E-4,1.703265123E-3,-1.914687455E-4,1.717214150E-3
8.001794792E0,2.074306132E-3,-1.883701421E-3,-1.565441489E-4,2.806346922E-3
8.011751792E0,1.700398396E-3,8.151466027E-4,1.547612250E-3,2.439451242E-3
8.021708792E0,1.203515567E-4,1.579240896E-3,8.265124634E-4,1.786507530E-3
8.031665792E0,-1.415759674E-3,-2.852380276E-4,-6.864294410E-4,1.599037700E-3
8.041621792E0,-1.053967280E-4,8.121095598E-4,-1.510502771E-3,1.718210996E-3
8.051578792E0,-1.421483466E-4,-2.172761597E-3,-1.465228386E-3,2.624498682E-3
8.061535792E0,-3.581005149E-5,1.339563169E-3,3.961548209E-3,4.182054047E-3
8.071492792E0,-1.135743223E-4,1.605080441E-3,1.603318844E-3,2.271522323E-3
8.081449792E0,-2.850140911E-3,7.153321058E-4,2.385735977E-3,3.785067950E-3
8.091406792E0,-1.497254940E-3,-2.167746425E-4,9.089009836E-5,1.515593814E-3
8.101362792E0,1.261915546E-3,-1.703721471E-3,-1.819859259E-3,2.794098319E-3
8.111319792E0,1.587620121E-3,-1.913046464E-3,8.294531144E-4,2.620739761E-3
8.121276792E0,1.451419666E-3,1.131825149E-3,-1.087166835E-3,2.137657349E-3
8.131233792E0,1.049814979E-3,1.500673592E-3,1.096092165E-3,2.134373621E-3
8.141190792E0,-7.412680425E-4,2.070611343E-3,1.269774046E-3,2.539534558E-3
8.151146792E0,3.037564456E-4,-5.651190877E-4,7.038521580E-4,9.523840727E-4
8.161103792E0,6.111757830E-4,7.137507200E-4,4.857089370E-4,1.057775543E-3
8.171060792E0,2.575080143E-4,-1.804001629E-3,-2.115933225E-3,2.792473038E-3
8.181017792E0,-2.292830963E-3,-1.387007535E-3,-2.198526636E-5,2.679803552E-3
8.190974792E0,9.911130182E-4,7.081013173E-4,5.695028231E-4,1.344635994E-3
8.200930792E0,-6.607281975E-4,-1.048573293E-3,1.031524502E-3,1.612485814E-3
8.210887792E0,-2.008002484E-4,-1.624349505E-3,-2.585314214E-3,3.059849937E-3
8.220844792E0,4.783930490E-4,1.072720625E-3,-7.402370684E-4,1.388358875E-3
8.230801792E0,3.516265424E-4,1.285773702E-3,1.505902037E-4,1.341466603E-3
8.240758792E0,-1.137202722E-3,-1.443773508E-4,-8.332659490E-4,1.417182766E-3
8.250717167E0,2.051932737E-3,-4.093619063E-4,2.301541157E-3,3.110481768E-3
8.260673167E0,-1.869783038E-3,1.666841097E-3,-3.921147436E-5,2.505191688E-3
8.270630167E0,1.265556319E-3,2.886550501E-4,8.089700714E-5,1.300576357E-3
8.280587167E0,-3.905427875E-4,-7.601454854E-6,-1.588764600E-3,1.636078973E-3
8.290544167E0,-1.439561951E-3,4.009278491E-4,-5.344194360E-4,1.587036825E-3
8.300501167E0,-3.567173844E-4,1.853357069E-3,5.088699982E-4,1.954770675E-3
8.310457167E0,-2.642508596E-3,7.353620604E-4,-1.293291338E-3,3.032525602E-3
8.320414167E0,-1.043088036E-3,-1.500865445E-3,-1.875446644E-3,2.618764947E-3
8.330371167E0,-8.233771659E-4,-9.144376963E-4,1.089983154E-3,1.643839875E-3
8.340328167E0,1.144515583E-3,6.501330063E-4,4.349425435E-4,1.386276979E-3
8.350285167E0,-1.188147115E-3,-1.106753945E-3,1.795285381E-3,2.420670870E-3
8.360242167E0,1.971704187E-4,5.573499948E-5,8.723502979E-4,8.960901776E-4
8.370198167E0,-2.875248902E-4,2.349516377E-3,1.538672950E-3,2.823191849E-3
8.380155167E0,-6.339885294E-4,1.769663766E-3,-2.738763578E-4,1.899647220E-3
8.390112167E0,-5.820568185E-4,-1.111609861E-3,-6.677582860E-4,1.421396409E-3
8.400069167E0,1.440882217E-3,-2.053490840E-3,5.096551031E-4,2.559827048E-3
8.410026167E0,2.903966233E-4,-8.484097198E-4,-7.191272452E-4,1.149466505E-3
8.419982167E0,-6.447522901E-5,-9.689833969E-4,3.159143962E-4,1.021218774E-3
8.429939167E0,1.150991535E-3,-1.033165492E-3,-3.669196740E-4,1.589604509E-3
8.439896167E0,-2.149514621E-4,-1.005731523E-3,-1.553279348E-3,1.862894726E-3
8.449853167E0,2.127522603E-4,1.901906915E-3,-1.339959912E-3,2.336237574E-3
8.459810167E0,1.803098712E-5,4.515312612E-4,-1.054997556E-4,4.640428803E-4
8.469767167E0,-1.667217235E-3,-2.098179422E-3,-1.931176521E-4,2.686868926E-3
8.479723167E0,1.412790036E-3,2.096891403E-4,7.031578571E-5,1.429996339E-3
8.489680167E0,-3.641889896E-3,-5.422998220E-5,-5.086557940E-4,3.677639681E-3
8.499637167E0,-1.374530839E-4,-5.750367418E-4,3.800182603E-4,7.028331828E-4
8.509594167E0,-2.382764360E-3,-2.795846201E-3,-1.439986285E-3,3.945615602E-3
8.519551167E0,-4.414893920E-4,6.493125111E-4,-6.346642040E-4,1.009612932E-3
8.529507167E0,-1.381585258E-3,1.095125452E-3,8.175568655E-4,1.943315931E-3
8.539464167E0,2.055903664E-3,1.908584498E-3,1.293350011E-3,3.089043365E-3
8.549421167E0,2.143278252E-4,-1.755392179E-3,-8.510239422E-5,1.770474664E-3
8.559378167E0,7.256073877E-4,-2.862888388E-3,-2.504490782E-3,3.872352009E-3
8.569335167E0,8.723475039E-4,1.060746610E-3,-9.936797433E-4,1.695161636E-3
8.579292167E0,-1.282270299E-3,-1.838047057E-3,-2.322544344E-3,3.227513956E-3
8.589248167E0,2.341336804E-4,-7.778424770E-4,-4.125251435E-4,9.110622883E-4
8.599205167E0,-7.433497813E-4,-1.553755254E-3,2.000526525E-3,2.639854288E-3
8.609162167E0,6.859689020E-4,-9.867688641E-4,3.208708949E-4,1.243874695E-3
8.619119167E0,1.649148995E-3,-2.209059894E-4,9.620906785E-4,1.922006852E-3
8.629076167E0,8.608532953E-4,1.902859658E-4,2.502277493E-4,9.164557116E-4
8.639032167E0,-3.122629132E-3,-1.070615835E-3,-2.809165977E-3,4.334563928E-3
8.648989167E0,-2.392124385E-3,-9.699482471E-4,4.241778515E-4,2.615910076E-3
8.658946167E0,-9.034048999E-4,-7.100170478E-4,2.624467015E-4,1.178619062E-3
8.668903167E0,-2.120469697E-3,1.682034694E-3,-3.484822810E-4,2.728932455E-3
8.678860167E0,1.269253087E-3,1.015459187E-3,7.197903469E-4,1.777711704E-3
8.688817167E0,2.101139398E-4,-1.895110123E-3,1.353090163E-3,2.338042608E-3
8.698773167E0,-1.245690510E-4,3.024982288E-4,-8.977646939E-4,9.555124660E-4
8.708730167E0,2.796987537E-4,-1.070095226E-3,-7.736030966E-6,1.106071893E-3
8.718687167E0,6.761820987E-4,2.656094730E-4,-1.206025016E-3,1.407930027E-3
8.728644167E0,-2.223683987E-4,1.305573620E-3,1.285095233E-3,1.845383413E-3
8.738601167E0,6.753220223E-4,1.247820444E-3,2.331529744E-3,2.729312485E-3
8.748557167E0,1.691850601E-3,1.059002243E-3,1.456071623E-4,2.001261015E-3
8.758514167E0,6.482954137E-3,-1.735994592E-3,-5.629565567E-5,6.711597483E-3
8.768471167E0,4.407744855E-4,2.219611779E-4,6.025703624E-4,7.788709477E-4
8.778428167E0,1.592044602E-3,1.536775380E-3,-8.049071766E-4,2.354604032E-3
8.788385167E0,5.898970412E-4,-7.181232795E-4,5.162870511E-4,1.063123644E-3
8.798342167E0,-1.649482059E-3,5.094232038E-4,-6.241137162E-4,1.835707219E-3
8.808298167E0,-3.079332877E-3,2.361834049E-4,1.270991750E-3,3.339684655E-3
8.818255167E0,9.228549316E-4,1.366286539E-3,4.579496570E-3,4.867256821E-3
8.828212167E0,7.068725536E-4,8.056908846E-4,6.916699931E-5,1.074053389E-3
8.838169167E0,-1.581941731E-3,1.105172560E-3,-2.355357166E-3,3.044938983E-3
8.848126167E0,6.895174738E-5,4.351213574E-4,-1.426180359E-3,1.492673895E-3
8.858082167E0,-2.362573287E-4,9.879535064E-4,-1.742568798E-3,2.017031401E-3
8.868039167E0,1.825295738E-3,8.452078328E-4,-1.303945668E-3,2.397155630E-3
8.877996167E0,5.681613693E-4,-1.416455023E-3,1.321110409E-3,2.018535332E-3
8.887953167E0,6.869384088E-4,-3.930022940E-4,2.073453274E-3,2.219356587E-3
8.897910167E0,6.838625995E-4,2.396563068E-4,-1.420083921E-3,1.594284022E-3
8.907866167E0,-1.187540591E-3,5.363319069E-4,6.206962280E-4,1.443318529E-3
8.917823167E0,-1.441575587E-3,5.700271577E-4,-5.866535939E-4,1.657478076E-3
8.927780167E0,-6.724547129E-4,-1.215962693E-4,-2.260982525E-3,2.361995548E-3
8.937737167E0,2.220133319E-3,-1.109861769E-3,-2.816628665E-3,3.754221908E-3
8.947694167E0,-6.283839466E-4,-7.282309234E-4,-6.123306230E-4,1.140234824E-3
8.957651167E0,1.559909433E-4,-5.619227886E-4,1.194705255E-4,5.952844709E-4
8.967607167E0,-2.988770138E-4,-1.164596528E-3,1.097649336E-3,1.628019228E-3
8.977564167E0,-1.130077289E-4,3.587575629E-4,2.192563843E-3,2.224592983E-3
8.987521167E0,1.304592937E-3,-9.041130543E-4,9.214370511E-4,1.835328141E-3
8.997478167E0,7.262193831E-4,-6.600767374E-4,-7.247379981E-4,1.219975843E-3
9.007435167E0,-3.712692996E-4,3.687199205E-5,-2.752734814E-3,2.777903777E-3
9.017391167E0,2.752602566E-3,-1.970569603E-3,-3.147556912E-3,4.622453890E-3
9.027348167E0,1.810909016E-3,-1.600390300E-3,-3.079114016E-3,3.914279461E-3
9.037305167E0,9.063631296E-4,-2.417620271E-5,-6.386837922E-4,1.109051666E-3
9.047262167E0,1.554576564E-3,1.824852079E-4,-7.041976787E-4,1.716363456E-3
9.057219167E0,-2.828680445E-3,-1.431543380E-3,2.164485864E-3,3.838717046E-3
9.067176167E0,-2.446153667E-4,-2.992954105E-3,-1.245957799E-3,3.251156993E-3
9.077132167E0,9.028384229E-4,1.807971857E-3,-4.233233631E-4,2.064723256E-3
9.087089167E0,-5.754821468E-4,5.533564836E-4,-1.097635366E-3,1.357271710E-3
9.097046167E0,9.431460639E-4,1.787572168E-3,6.197066978E-4,2.113995067E-3
9.107003167E0,-2.731196582E-4,1.448285766E-3,1.105466858E-3,1.842330855E-3
9.116960167E0,4.093872849E-5,1.548595726E-3,1.282850280E-4,1.554439369E-3
9.126916167E0,-3.646607511E-4,-3.790007904E-4,1.552543603E-3,1.639210390E-3
9.136873167E0,-5.660677562E-4,7.789814845E-4,-1.140058972E-3,1.492306710E-3
9.146830167E0,1.106414711E-4,1.704429276E-3,-5.823932588E-4,1.804578234E-3
9.156787167E0,1.384171424E-3,-1.374267042E-3,-8.491217159E-4,2.127333571E-3
9.166744167E0,-3.868131898E-6,2.848822623E-4,1.570359804E-3,1.595995858E-3
9.176701167E0,-1.193925506E-3,1.724196598E-3,1.092860475E-4,2.100060823E-3
9.186657167E0,2.965133172E-3,-7.280427963E-4,4.339250736E-4,3.083885862E-3
9.196614167E0,2.079391619E-3,-4.219710827E-4,6.867521442E-4,2.230147441E-3
9.206571167E0,-1.208014321E-3,-3.982689232E-4,6.209718995E-4,1.415458524E-3
9.216528167E0,1.519179204E-3,-1.054508612E-4,-4.423768260E-4,1.585787689E-3
9.226485167E0,-1.370883198E-3,-1.472625881E-4,9.531527758E-5,1.382060785E-3
9.236441167E0,4.502871307E-4,-9.772460908E-5,-7.330765948E-4,8.658578943E-4
9.246397500E0,1.016741386E-3,-4.018573090E-4,1.584406011E-3,1.924992143E-3
9.256354500E0,-6.106662331E-4,-5.115466192E-4,8.919192478E-4,1.195873378E-3
9.266311500E0,-4.185161088E-3,-3.104778007E-4,-1.235413365E-3,4.374724674E-3
9.276268500E0,-3.212268930E-4,1.106494106E-3,1.250470523E-3,1.700350685E-3
9.286225500E0,9.277957142E-4,6.353808567E-4,5.316832103E-4,1.243865249E-3
9.296181500E0,-6.896903506E-4,1.501268707E-3,1.785589848E-3,2.432655260E-3
9.306138500E0,1.891978085E-3,-5.160765722E-4,3.472166136E-4,1.991601235E-3
9.316095500E0,-6.375313969E-4,-1.182649285E-4,2.195473295E-3,2.289221672E-3
9.326052500E0,1.474355347E-3,7.398054004E-4,7.336642593E-4,1.805352865E-3
9.336009500E0,3.962691408E-4,9.074760601E-4,9.173881263E-4,1.349867773E-3
9.345965500E0,9.586452506E-5,1.352756284E-3,3.365365788E-3,3.628336597E-3
9.355922500E0,-5.669903476E-5,-2.074660733E-3,-6.367205642E-4,2.170908800E-3
9.365879500E0,2.380626043E-3,-7.076598704E-4,-1.070282888E-3,2.704379469E-3
9.375836500E0,4.334681435E-4,-6.057089195E-4,-2.007526346E-3,2.141247289E-3
9.385793500E0,-1.677353401E-3,-2.248762175E-4,8.745468222E-4,1.904971362E-3
9.395750500E0,-3.256969620E-3,1.832669601E-3,-4.122871906E-5,3.737409367E-3
9.405706500E0,4.845054355E-4,8.976338431E-4,2.703610808E-4,1.055266387E-3
9.415663500E0,1.054567401E-3,1.877397299E-4,3.108181525E-3,3.287575247E-3
9.425620500E0,7.445754600E-4,2.505755052E-3,6.412956864E-4,2.691553669E-3
9.435577500E0,1.013640780E-3,-6.019510329E-5,1.171534881E-3,1.550349979E-3
9.445534500E0,2.901821863E-3,2.712155692E-3,-5.547264591E-4,4.010496237E-3
9.455490500E0,9.890751680E-4,-1.823460683E-3,-2.150603104E-3,2.988038197E-3
9.465447500E0,-1.543857390E-3,6.522135809E-4,-6.160889752E-4,1.785621410E-3
9.475404500E0,-2.596044214E-4,1.902123913E-4,2.841472160E-3,2.859639706E-3
9.485361500E0,2.157480456E-3,1.644564793E-3,3.466782160E-3,4.402032919E-3
9.495318500E0,8.126276080E-4,-2.407329157E-4,3.077722620E-3,3.192286405E-3
9.505275500E0,-2.518378897E-4,7.816543803E-4,3.178888001E-4,8.806016023E-4
9.515231500E0,8.177374257E-4,-4.345756024E-4,-1.848246902E-4,9.443043035E-4
9.525188500E0,-2.876865910E-3,-8.798558265E-4,-1.897237264E-3,3.556685673E-3
9.535145500E0,2.906004433E-3,-1.693242230E-3,-1.678893343E-3,3.759070878E-3
9.545102500E0,4.364550114E-4,-2.135858871E-3,1.152781770E-4,2.183042636E-3
9.555059500E0,1.001414144E-3,5.119601265E-4,2.118206117E-3,2.398276593E-3
9.565015500E0,1.332711312E-3,-9.290762246E-4,2.438733354E-4,1.642795263E-3
9.574972500E0,-2.150538145E-3,-8.912310004E-4,1.234860159E-3,2.635144516E-3
9.584929500E0,1.699327491E-3,-8.784476668E-4,-1.303931233E-3,2.315085503E-3
9.594886500E0,2.070046263E-3,-1.866280101E-3,-1.616814174E-3,3.222139199E-3
9.604843500E0,3.384589218E-4,-2.673184499E-4,1.194951124E-3,1.270402214E-3
9.614800500E0,2.838918008E-3,-4.311557859E-5,-9.579723701E-5,2.840861052E-3
9.624756500E0,1.210661256E-3,2.399785444E-4,-1.854015980E-3,2.227255179E-3
9.634713500E0,-7.082778029E-4,-1.182386652E-3,-1.272331458E-3,1.875772635E-3
9.644670500E0,5.095857196E-4,-6.928974763E-4,1.090957318E-3,1.389234461E-3
9.654627500E0,-3.957893932E-4,2.810193226E-3,1.143249683E-4,2.840229816E-3
9.664584500E0,-1.145469374E-3,-8.348748088E-4,7.433635183E-4,1.600532834E-3
9.674540500E0,-1.253805473E-3,7.596835494E-4,1.468788832E-3,2.075207915E-3
9.684497500E0,3.114045132E-3,-3.444636241E-4,5.084527656E-4,3.174028432E-3
9.694454500E0,-9.253621101E-4,-1.856992021E-3,-1.001458149E-3,2.303830034E-3
9.704411500E0,-2.140828874E-3,4.210760817E-4,2.726434730E-3,3.491976471E-3
9.714368500E0,-3.868534463E-3,2.747187391E-4,1.739286352E-3,4.250428953E-3
9.724325500E0,1.600293908E-4,9.682057425E-4,2.559055574E-4,1.014159465E-3
9.734281500E0,-5.161534064E-4,-8.226623759E-4,-2.824435942E-4,1.011415892E-3
9.744238500E0,1.587477513E-3,7.312921807E-4,-1.855045557E-4,1.757636210E-3
9.754195500E0,-2.715404844E-4,-3.413010389E-3,-1.675585285E-3,3.811818489E-3
9.764152500E0,-5.120239221E-4,4.560295492E-4,7.277959958E-5,6.895131011E-4
9.774109500E0,1.992153702E-4,-4.472378641E-4,-2.820603549E-4,5.650367375E-4
9.784065500E0,-1.382702379E-3,-1.498654485E-3,1.102517359E-3,2.318054284E-3
9.794022500E0,1.906997524E-3,-1.255576499E-3,1.305013429E-3,2.629861584E-3
9.803979500E0,6.947265938E-4,-2.883567475E-3,-4.441011697E-5,2.966408381E-3
9.813936500E0,6.390784984E-4,6.996029988E-4,2.405026928E-3,2.584960388E-3
9.823893500E0,1.029231586E-3,1.055134460E-3,-1.994248480E-3,2.479849468E-3
9.833850500E0,5.766435061E-5,2.325363457E-4,-6.023598835E-4,6.482559361E-4
9.843806500E0,-9.458146524E-4,-5.815923214E-4,7.127085701E-4,1.319381859E-3
9.853763500E0,1.325763529E-3,2.667428926E-4,3.216555342E-4,1.390058628E-3
9.863720500E0,-3.901111195E-4,-1.022759825E-3,-8.879518136E-4,1.409497346E-3
9.873677500E0,-3.280839650E-3,-1.410143450E-4,1.318598632E-3,3.538713920E-3
9.883634500E0,-9.737431537E-4,-1.513341442E-3,1.528722234E-3,2.361222081E-3
9.893590500E0,-1.992795849E-3,-1.416347921E-3,-1.131578349E-3,2.694020469E-3
9.903547500E0,-5.490961485E-4,1.304870471E-3,1.964878757E-3,2.421764244E-3
9.913504500E0,-1.742531545E-3,-1.220416278E-3,-6.302464753E-4,2.218793072E-3
9.923461500E0,1.451170538E-4,-1.079801470E-3,2.331188414E-3,2.573221638E-3
9.933418500E0,4.154169001E-4,-3.077842295E-3,1.691254787E-3,3.536386171E-3
9.943375500E0,3.854623064E-3,-3.459714353E-4,2.716305200E-3,4.728226850E-3
9.953331500E0,8.431748720E-4,-1.038372517E-3,-7.548467256E-4,1.535888970E-3
9.963288500E0,-4.791875836E-5,-1.190971583E-3,-1.156451646E-3,1.660749809E-3
9.973245500E0,-9.493962862E-4,1.200533472E-3,2.976055257E-4,1.559231533E-3
9.983202500E0,2.319819760E-4,3.433506936E-5,2.472076565E-3,2.483174798E-3
9.993159500E0,4.068691051E-4,-2.937071025E-3,1.009497326E-3,3.132253746E-3
1.000311550E1,9.442950250E-4,-5.266433582E-4,3.173421137E-4,1.126832879E-3
1.001307250E1,-1.407769392E-3,-1.224055886E-3,1.774541102E-3,2.574708449E-3
1.002302950E1,-8.151517250E-5,-1.030709594E-3,1.644046046E-3,1.942136553E-3
1.003298650E1,-1.206009649E-3,5.273539573E-4,-1.181649510E-3,1.768857550E-3
1.004294350E1,-2.512662904E-4,-6.244638935E-4,-8.183945902E-4,1.059650701E-3
1.005290050E1,4.457148025E-4,-1.322435215E-3,-7.738047279E-4,1.595703713E-3
1.006285650E1,7.919257041E-4,-3.470807336E-3,3.609680571E-4,3.578260447E-3
1.007281350E1,3.161935834E-3,6.758468226E-4,-3.165798262E-4,3.248819775E-3
1.008277050E1,-1.363573712E-3,-7.646568120E-4,-1.330711413E-3,2.053004183E-3
1.009272750E1,-1.001693308E-3,-4.810718819E-4,-1.579172444E-3,1.930959670E-3
1.010268450E1,2.973965602E-4,3.203677945E-3,-1.221776474E-3,3.441618056E-3
1.011264150E1,-1.260732533E-4,6.860522553E-4,1.608828083E-3,1.753536416E-3
1.012259750E1,-1.519059297E-4,-1.339281909E-3,-7.842886262E-4,1.559442238E-3
1.013255450E1,1.462428016E-3,-8.085267618E-4,3.249803558E-5,1.671366910E-3
1.014251150E1,4.200667609E-4,-1.342756674E-3,-1.350481063E-3,1.950192470E-3
1.015246850E1,5.650136154E-5,6.217118353E-4,-9.062853642E-4,1.100486788E-3
1.016242550E1,8.906034636E-4,-1.147425734E-3,1.286561601E-3,1.940361074E-3
1.017238150E1,-2.987485845E-3,-4.469463602E-4,9.327894077E-5,3.022173668E-3
1.018233850E1,6.426687469E-4,1.617707312E-5,4.152553156E-4,7.653246325E-4
1.019229550E1,3.000239376E-4,6.192363799E-6,6.729303859E-4,7.368093463E-4
1.020225250E1,-1.786030130E-3,1.385975629E-3,-1.170509495E-3,2.545766004E-3
1.021220950E1,-3.676598426E-4,-8.327793330E-5,1.428671647E-3,1.477569507E-3
1.022216650E1,-1.269938890E-3,-1.484367065E-3,-1.416117419E-3,2.412774111E-3
1.023212250E1,-1.758457744E-3,-6.723124534E-4,1.325565390E-4,1.887259629E-3
1.024207950E1,8.021715330E-4,8.315742016E-4,1.528052613E-3,1.915708644E-3
1.025203575E1,-8.876596112E-4,5.899155512E-4,2.070748247E-3,2.328935003E-3
1.026199275E1,-1.480479259E-3,2.940390259E-4,2.667828929E-3,3.065222501E-3
1.027194975E1,-1.974740531E-3,6.002038717E-4,2.214035019E-3,3.026845870E-3
1.028190575E1,-1.293237670E-3,-1.267471351E-3,2.273156773E-3,2.906232787E-3
1.029186275E1,-6.360341795E-4,3.731930628E-4,1.022220589E-3,1.260455264E-3
1.030181975E1,-8.448259905E-4,5.196677521E-4,2.890693955E-3,3.056124518E-3
1.031177675E1,-3.118625609E-3,-6.827330217E-4,8.849361911E-4,3.312863132E-3
1.032173375E1,1.483316533E-3,-6.780866534E-5,-1.765707508E-3,2.307065009E-3
1.033169075E1,-1.439367188E-4,-1.281395555E-3,-7.986105047E-4,1.516730393E-3
1.034164675E1,-1.426514937E-3,1.375640742E-3,-3.663799725E-4,2.015332876E-3
1.035160375E1,-2.645780332E-3,-1.910254359E-4,-6.091548130E-4,2.721711570E-3
1.036156075E1,-2.739257179E-3,5.368161947E-4,-9.622983634E-5,2.793020176E-3
1.037151775E1,-7.087535923E-4,-3.195852041E-4,2.100477461E-3,2.239748182E-3
1.038147475E1,2.761057112E-5,-4.444876686E-4,-1.048976555E-3,1.139597931E-3
1.039143075E1,1.936635701E-3,1.563495956E-3,2.690305933E-3,3.665081644E-3
1.040138775E1,-1.034653047E-3,4.646759480E-4,4.865401424E-4,1.234160433E-3
1.041134475E1,5.803839304E-5,4.695039243E-4,-8.163922466E-4,9.435564055E-4
1.042130175E1,3.211587900E-4,8.676461875E-4,-2.408429515E-3,2.580016589E-3
1.043125875E1,1.485155197E-3,7.210299373E-5,-4.933178425E-4,1.566603745E-3
1.044121575E1,-1.720758039E-3,-2.289588563E-3,-5.609621294E-4,2.918544590E-3
1.045117175E1,-1.116799191E-3,-1.348102465E-3,9.980099276E-4,2.015104093E-3
1.046112875E1,2.334235469E-4,-1.273090020E-4,1.339959446E-3,1.366083984E-3
1.047108575E1,1.364448806E-3,-9.299879894E-4,-1.492225565E-3,2.225608982E-3
1.048104275E1,1.677103923E-3,-3.843065351E-4,-2.494638786E-3,3.030444151E-3
1.049099975E1,-4.800062161E-4,-1.154477708E-3,-8.874209598E-4,1.533212544E-3
1.050095575E1,3.801948624E-4,1.037570648E-3,4.803785123E-4,1.204933400E-3
1.051091275E1,-1.865237835E-3,-3.274334595E-4,1.939885318E-3,2.710992420E-3
1.052086975E1,7.358716684E-4,-8.179880679E-4,9.755548090E-4,1.470482498E-3
1.053082675E1,-2.768016420E-4,1.008547843E-3,-4.059695639E-4,1.121873071E-3
1.054078375E1,5.173529498E-4,-1.171782613E-3,6.774044596E-4,1.449001507E-3
1.055074075E1,-1.504052780E-3,2.168954350E-3,-2.337481827E-3,3.525671429E-3
1.056069675E1,1.053114422E-3,-7.946109399E-4,-1.796061173E-3,2.228517953E-3
1.057065375E1,9.974663844E-4,-1.943881623E-3,3.101332113E-4,2.206761782E-3
1.058061075E1,-5.679395981E-4,1.480677165E-3,1.299497671E-3,2.050281554E-3
1.059056775E1,1.971760998E-3,9.515667334E-4,5.593947135E-4,2.259699786E-3
1.060052475E1,-3.105681390E-4,-1.134313643E-4,2.238363959E-4,3.992768156E-4
1.061048075E1,4.505143734E-4,1.203088090E-3,-9.137378074E-4,1.576483724E-3
1.062043775E1,2.671590541E-3,-1.949828118E-3,-1.736121718E-3,3.735417557E-3
1.063039475E1,-8.710471448E-4,-2.069449052E-3,-6.489492953E-4,2.337194407E-3
1.064035175E1,2.573343227E-4,-5.402620882E-4,-7.075387985E-4,9.266688885E-4
1.065030875E1,-2.151351422E-3,4.817713052E-4,2.256772015E-3,3.154906728E-3
1.066026575E1,-1.176900696E-3,-5.405675620E-5,6.807129830E-4,1.360657027E-3
1.067022175E1,2.950148191E-3,9.796731174E-4,-4.784064367E-5,3.108926261E-3
1.068017875E1,2.795304172E-4,1.849858090E-4,-1.088870689E-3,1.139296442E-3
1.069013575E1,9.589211550E-4,-3.261696547E-4,-5.259937607E-4,1.141308837E-3
1.070009275E1,1.837764285E-3,-2.067077905E-3,-1.448246650E-3,3.122115788E-3
1.071004975E1,-1.617944450E-3,2.228282392E-5,2.333206590E-3,2.839382637E-3
1.072000575E1,-9.329795139E-4,-7.598754019E-5,-3.344821744E-4,9.940338045E-4
1.072996275E1,8.590560756E-4,-5.079153925E-4,-5.076201633E-4,1.119657812E-3
1.073991975E1,-1.497841440E-3,-9.739687666E-4,-2.612080425E-5,1.786848185E-3
1.074987675E1,2.509647748E-4,1.115947962E-3,-2.555348445E-3,2.799665845E-3
1.075983375E1,7.285503671E-6,1.730072312E-3,-1.159053762E-3,2.082452618E-3