"Time (s)","Gyroscope x (rad/s)","Gyroscope y (rad/s)","Gyroscope z (rad/s)","Absolute (rad/s)"
7.259041668E-3,-5.320329219E-4,1.594983041E-5,-1.584178535E-3,1.671207665E-3
1.721604167E-2,-3.048041835E-4,-1.937129535E-3,-1.568824751E-3,2.511292003E-3
2.717304166E-2,-6.110677496E-4,9.635854512E-4,1.478630584E-3,1.867685498E-3
3.713004167E-2,-1.607003156E-3,1.273135655E-3,1.606088132E-3,2.604391028E-3
4.708704166E-2,-7.454706356E-4,-1.302140765E-3,-1.784915105E-3,2.331784503E-3
5.704404167E-2,7.128098514E-4,-2.106055617E-4,-2.327445196E-3,2.443246555E-3
6.700104167E-2,3.748547751E-4,-2.138734795E-3,-1.082331873E-4,2.174032440E-3
7.695804167E-2,-5.289600231E-4,9.776493534E-4,3.064398654E-3,3.259775464E-3
8.691504167E-2,8.436330827E-4,-8.122343570E-5,-5.024420097E-3,5.095400999E-3
9.687204167E-2,-7.324824110E-4,-2.347184345E-4,-8.952800184E-3,8.985780677E-3
1.068290417E-1,1.428939169E-3,2.938171849E-3,-1.436700672E-2,1.473382513E-2
1.167860417E-1,-8.889094461E-4,-1.269009896E-3,-2.079933695E-2,2.085696440E-2
1.267430417E-1,1.712732599E-3,-1.494846307E-3,-2.009945735E-2,2.022760995E-2
1.367000417E-1,-3.885347396E-4,-1.052857377E-3,-1.943606511E-2,1.946843843E-2
1.466560417E-1,-3.627019469E-4,-4.085619003E-5,-1.763310656E-2,1.763688376E-2
1.566130417E-1,-1.245325897E-3,1.671398059E-4,-1.485782675E-2,1.491086142E-2
1.665700417E-1,-1.787012909E-3,-1.768445596E-3,-1.767358743E-2,1.785151275E-2
1.765270417E-1,1.798541402E-3,4.545897245E-4,-1.737185009E-2,1.747062044E-2
1.864840417E-1,-1.327830832E-4,4.572533071E-4,-1.853431948E-2,1.854043447E-2
1.964410417E-1,9.147111559E-4,-3.866739571E-4,-2.245236188E-2,2.247431350E-2
2.063980417E-1,-1.175604062E-3,2.202605829E-4,-1.999186724E-2,2.002761383E-2
2.163550417E-1,1.122842077E-4,-1.599360257E-5,-1.823551208E-2,1.823586478E-2
2.263120417E-1,2.415386029E-3,-4.030974582E-3,-1.943792962E-2,1.999789873E-2
2.362690417E-1,3.353899810E-4,-1.515634358E-4,-1.758863032E-2,1.759248062E-2
2.462260417E-1,-6.371964701E-4,2.992830239E-3,-1.737078279E-2,1.763822970E-2
2.561830417E-1,1.574905007E-3,1.697028056E-4,-2.206061035E-2,2.211740613E-2
2.661400417E-1,4.246857716E-4,6.434796378E-4,-2.399513125E-2,2.400751441E-2
2.760972083E-1,9.041978046E-4,-2.197921276E-4,-2.103928849E-2,2.105985618E-2
2.860542083E-1,-1.438318752E-3,7.397448644E-4,-1.864963397E-2,1.871963757E-2
2.960112083E-1,7.494429592E-4,2.463772893E-3,-1.906269044E-2,1.923585216E-2
3.059682083E-1,-3.618942574E-4,-2.105729654E-4,-1.792578772E-2,1.793067689E-2
3.159252083E-1,8.312962018E-4,2.926532179E-4,-1.834123954E-2,1.836240091E-2
3.258822083E-1,7.567277644E-4,-2.091675065E-3,-2.380950749E-2,2.391318440E-2
3.358392083E-1,-2.533995546E-3,1.384719275E-3,-1.954658702E-2,1.975873592E-2
3.457962083E-1,-1.068990910E-3,1.396969892E-3,-1.798091456E-2,1.806675275E-2
3.557532083E-1,1.226180699E-3,-1.453620382E-3,-1.778490655E-2,1.788629174E-2
3.657102083E-1,-1.573313493E-4,2.790326253E-4,-1.818810962E-2,1.819093027E-2
3.756672083E-1,9.833454387E-4,-8.648745716E-4,-1.899771020E-2,1.904279310E-2
3.856242083E-1,2.538897796E-3,-1.125598326E-3,-2.040226012E-2,2.059041505E-2
3.955812083E-1,2.587801311E-3,-1.447563991E-4,-2.299458161E-2,2.314019130E-2
4.055382083E-1,9.539518505E-4,-1.916024834E-3,-1.816174388E-2,1.828743055E-2
4.154952083E-1,1.600133255E-3,1.267326996E-3,-1.873964816E-2,1.885048958E-2
4.254512083E-1,-2.353329444E-3,-7.843719795E-4,-1.926988363E-2,1.942889122E-2
4.354082083E-1,2.326184884E-3,-1.808187924E-3,-2.014792711E-2,2.036221123E-2
4.453652083E-1,-1.948454883E-3,7.360149175E-5,-1.994632557E-2,2.004140208E-2
4.553222083E-1,1.265981933E-3,1.936702058E-3,-1.839397289E-2,1.853892564E-2
4.652792083E-1,1.401004149E-3,6.466675550E-4,-2.136153355E-2,2.141719186E-2
4.752362083E-1,1.858811476E-3,3.854874521E-4,-2.195408754E-2,2.203601008E-2
4.851932083E-1,-1.313545974E-3,-5.364986137E-4,-2.081638575E-2,2.086468666E-2
4.951502083E-1,2.453171648E-3,-3.536995500E-4,-2.286222205E-2,2.299618123E-2
5.051072083E-1,1.319197589E-3,-1.702075824E-4,-1.976230368E-2,1.980701642E-2
5.150642083E-1,-5.748597905E-4,-1.181520522E-3,-1.981503516E-2,1.985855164E-2
5.250212083E-1,-2.648663241E-3,-6.454261020E-4,-1.606397144E-2,1.629365430E-2
5.349782083E-1,6.126979133E-4,-1.458058134E-3,-1.999719441E-2,2.005963899E-2
5.449352083E-1,1.277156640E-3,-1.434622332E-3,-2.017083019E-2,2.026207445E-2
5.548922083E-1,1.654191874E-4,1.820535399E-3,-1.968879998E-2,1.977348116E-2
5.648492083E-1,-3.138836473E-5,7.046703249E-4,-1.874444261E-2,1.875770973E-2
5.748062083E-1,-2.470444888E-3,-1.065600663E-4,-2.000038885E-2,2.015266749E-2
5.847632083E-1,-1.962580252E-3,1.568567939E-3,-2.005205303E-2,2.020883365E-2
5.947202083E-1,7.048337720E-4,2.753660083E-4,-1.812978461E-2,1.814556991E-2
6.046772083E-1,-3.616677597E-3,-1.784786582E-5,-1.513612550E-2,1.556222897E-2
6.146342083E-1,-2.521513961E-4,8.177012205E-4,-2.073569596E-2,2.075334437E-2
6.245912083E-1,-5.485611036E-4,3.777472302E-4,-2.088909410E-2,2.089970968E-2
6.345482083E-1,-4.590761382E-4,-1.520097256E-3,-2.021344379E-2,2.027571839E-2
6.445052083E-1,9.052612586E-4,4.921872169E-4,-2.300310507E-2,2.302617183E-2
6.544622083E-1,-4.409945104E-4,-4.490837455E-4,-2.201134339E-2,2.202034037E-2
6.644192083E-1,-2.681552432E-4,5.786307156E-4,-1.908852346E-2,1.909917403E-2
6.743762083E-1,-1.354624052E-3,-7.888898253E-4,-1.842299849E-2,1.848957076E-2
6.843332083E-1,3.580479650E-3,-1.320456155E-3,-1.854124293E-2,1.892990038E-2
6.942902083E-1,1.215242548E-3,-1.644170843E-3,-1.841447689E-2,1.852762994E-2
7.042472083E-1,-3.341846168E-4,-1.597255468E-4,-1.919371821E-2,1.919729174E-2
7.142032083E-1,-6.358157843E-4,8.914936334E-4,-1.717418619E-2,1.720905848E-2
7.241602083E-1,-3.828154877E-4,-9.187497199E-6,-1.600133069E-2,1.600591191E-2
7.341172083E-1,1.162190340E-3,2.110561356E-3,-1.292960346E-2,1.315217857E-2
7.440742083E-1,1.449811738E-3,-4.761675373E-4,-1.294771302E-2,1.303732956E-2
7.540312083E-1,2.093400573E-3,1.578167081E-3,-1.611061953E-2,1.632253041E-2
7.639882083E-1,2.044205321E-4,-2.900408581E-4,-1.550262049E-2,1.550668093E-2
7.739452083E-1,2.331109252E-3,1.290552318E-3,-1.609537564E-2,1.631443265E-2
7.839022083E-1,1.574505121E-3,-1.053827815E-3,-1.822057739E-2,1.831881710E-2
7.938592083E-1,4.011113197E-5,1.570480876E-3,-1.833678968E-2,1.840396357E-2
8.038162083E-1,-2.726702951E-5,-1.821854152E-3,-1.532821637E-2,1.543613012E-2
8.137732083E-1,-2.083589789E-4,1.302680001E-3,-1.407383382E-2,1.413552925E-2
8.237302083E-1,8.814065950E-4,-9.634038433E-4,-1.403628476E-2,1.409689024E-2
8.336872083E-1,-1.012813998E-3,1.501770690E-3,-1.384167094E-2,1.395969060E-2
8.436442083E-1,-1.329055522E-4,-8.173100650E-4,-1.605129614E-2,1.607264034E-2
8.536012083E-1,-2.620078158E-3,1.977548935E-3,-1.525599696E-2,1.560515788E-2
8.635582083E-1,-2.081320621E-3,6.167124957E-5,-1.947630756E-2,1.958729830E-2
8.735152083E-1,1.147370553E-3,6.821332499E-4,-1.638598554E-2,1.644026420E-2
8.834722083E-1,-1.769589726E-3,2.847900614E-4,-1.062077470E-2,1.077095207E-2
8.934292083E-1,2.666799119E-3,6.860932335E-4,-1.547693461E-2,1.571998875E-2
9.033862083E-1,2.405543113E-3,-9.807795286E-4,-1.420074888E-2,1.443640657E-2
9.133432083E-1,-2.632211894E-3,7.204711437E-6,-1.870592684E-2,1.889021678E-2
9.233002083E-1,3.899433650E-4,-1.145943999E-3,-2.043165639E-2,2.046748217E-2
9.332572083E-1,5.563793238E-4,-2.081733197E-3,-1.555342972E-2,1.570198545E-2
9.432142083E-1,1.870116685E-3,6.173802540E-4,-1.608153433E-2,1.620167402E-2
9.531712083E-1,3.469171934E-3,1.761988737E-3,-1.269317791E-2,1.327616374E-2
9.631282083E-1,-6.920173764E-4,8.895369247E-4,-1.254004613E-2,1.259058858E-2
9.730852083E-1,1.035999041E-3,-1.167890616E-3,-1.295327209E-2,1.304701193E-2
9.830412083E-1,3.457877785E-3,-4.277974367E-4,-1.837680116E-2,1.870419072E-2
9.929982083E-1,2.774876775E-4,1.978334039E-3,-2.242003381E-2,2.250885873E-2
1.002955208E0,1.274308888E-3,-4.552630708E-4,-1.652565785E-2,1.658096785E-2
1.012912208E0,-3.740668530E-3,9.024525061E-4,-1.834494621E-2,1.874417437E-2
1.022869208E0,-5.280973855E-4,2.545053139E-4,-1.023535244E-2,1.025212658E-2
1.032826208E0,2.601951826E-3,4.514744505E-4,-1.154256985E-2,1.184081505E-2
1.042783208E0,8.658372099E-4,-6.500091404E-4,-1.285497472E-2,1.290048685E-2
1.052740208E0,-3.964779899E-4,4.397090524E-4,-1.439748891E-2,1.440965738E-2
1.062697208E0,5.140567664E-4,2.476954833E-4,-1.726225019E-2,1.727167881E-2
1.072654208E0,1.017101575E-3,-1.073064283E-3,-2.011820115E-2,2.017245598E-2
1.082611208E0,-1.123280963E-3,-1.207553782E-3,-1.648724638E-2,1.656952744E-2
1.092568208E0,8.609504439E-4,-7.357448339E-4,-1.414279826E-2,1.418806889E-2
1.102525208E0,4.652047064E-4,-3.272155300E-4,-1.338406280E-2,1.339614207E-2
1.112482208E0,3.457477549E-3,1.555269584E-3,-1.302160509E-2,1.356227170E-2
1.122439208E0,2.901800908E-4,-3.853756934E-4,-1.494414173E-2,1.495192600E-2
1.132396208E0,1.469133422E-3,7.185004652E-4,-1.763018593E-2,1.770587620E-2
1.142353208E0,-2.286989009E-3,5.275523290E-4,-2.014367655E-2,2.027994909E-2
1.152310208E0,4.531221930E-4,1.815479249E-3,-1.674601622E-2,1.685023275E-2
1.162267208E0,1.961003989E-3,-2.220008522E-3,-1.363331452E-2,1.395138844E-2
1.172224208E0,6.914001424E-4,-6.975764409E-4,-1.325993985E-2,1.329626458E-2
1.182181208E0,8.602445014E-4,2.869945019E-4,-1.180132665E-2,1.183611833E-2
1.192138208E0,7.593254559E-4,8.612414822E-4,-1.425383054E-2,1.429999990E-2
1.202095208E0,-9.903712198E-4,5.227541551E-4,-1.446794812E-2,1.451122427E-2
1.212052208E0,-2.167369239E-4,-1.319376752E-4,-1.531749777E-2,1.531959923E-2
1.222009208E0,-2.103586681E-3,-7.260888815E-4,-1.770422235E-2,1.784353583E-2
1.231966208E0,1.546090003E-3,1.650784165E-3,-1.443705522E-2,1.461314634E-2
1.241923208E0,-1.157018589E-3,6.371848285E-4,-1.368684322E-2,1.375043177E-2
1.251880208E0,6.603113143E-4,-1.689503901E-3,-1.170758530E-2,1.184727767E-2
1.261837208E0,2.347157570E-3,-5.494048819E-4,-1.256991737E-2,1.279897718E-2
1.271793208E0,-6.100763567E-4,1.508002169E-3,-1.299202535E-2,1.309347114E-2
1.281750667E0,6.738335360E-4,4.834840074E-4,-1.539792493E-2,1.542024321E-2
1.291707667E0,-1.453934237E-4,-9.630154818E-4,-1.811434887E-2,1.814051193E-2
1.301664667E0,2.536676126E-3,2.386176027E-3,-1.939186640E-2,1.970210761E-2
1.311621667E0,-1.107571181E-3,1.249648631E-4,-1.520777494E-2,1.524856546E-2
1.321578667E0,1.314041205E-3,-6.129965186E-4,-1.468446385E-2,1.475587841E-2
1.331535667E0,5.921651609E-4,2.827308141E-3,-1.079998165E-2,1.117962140E-2
1.341492667E0,1.200697385E-3,-2.295281738E-3,-1.164553501E-2,1.193014996E-2
1.351449667E0,8.546808967E-4,1.126179472E-3,-1.632017642E-2,1.638129781E-2
1.361406667E0,3.495975398E-5,-1.150557771E-3,-1.849890873E-2,1.853468720E-2
1.371363667E0,-1.542633865E-3,6.340034306E-4,-1.600752585E-2,1.609417793E-2
1.381320667E0,2.016148297E-3,-9.304005653E-5,-1.562216505E-2,1.575200150E-2
1.391277667E0,-1.517736819E-4,1.593983732E-3,-1.444770955E-2,1.453616629E-2
1.401234667E0,8.471496403E-5,-3.913417459E-6,-1.415822469E-2,1.415847867E-2
1.411191667E0,-2.629732480E-3,-1.478698105E-3,-1.300374418E-2,1.334913495E-2
1.421148667E0,-7.287680637E-4,-1.168173738E-3,-1.815989055E-2,1.821201135E-2
1.431105667E0,1.430588425E-3,-7.931236178E-4,-1.572416537E-2,1.580901656E-2
1.441062667E0,6.841043942E-4,-1.877030358E-3,-1.680913754E-2,1.692744359E-2
1.451019667E0,-1.325609628E-4,-1.069137827E-3,-1.635826379E-2,1.639370069E-2
1.460976667E0,5.630566739E-4,-2.011936158E-5,-1.469192281E-2,1.470272198E-2
1.470933667E0,-1.508509275E-3,-2.182173543E-3,-1.274914388E-2,1.302221760E-2
1.480890667E0,-2.142130397E-4,-2.229311503E-3,-1.432014257E-2,1.449421264E-2
1.490847667E0,6.107100053E-4,-1.963011920E-3,-1.519392617E-2,1.533237669E-2
1.500804667E0,-1.524346182E-3,-1.536373049E-3,-1.770928130E-2,1.784104026E-2
1.510761667E0,-1.482185908E-3,9.363414720E-4,-1.533587463E-2,1.543575917E-2
1.520718667E0,-4.163887352E-4,-5.313269794E-4,-1.509832032E-2,1.511340347E-2
1.530675667E0,9.188629920E-4,5.685016513E-4,-1.355901640E-2,1.360200092E-2
1.540631667E0,1.366273966E-3,1.044142060E-3,-1.237018127E-2,1.248912815E-2
1.550588667E0,-3.173833247E-4,7.989834994E-4,-1.445143763E-2,1.447698713E-2
1.560545667E0,-1.775197685E-3,1.023221761E-3,-1.740967855E-2,1.752983790E-2
1.570502667E0,7.103477838E-4,-2.061200328E-3,-1.501815766E-2,1.517557908E-2
1.580459667E0,3.391030477E-4,1.332199201E-3,-1.684774831E-2,1.690373831E-2
1.590416667E0,-3.248513676E-4,-1.693014055E-4,-1.202956028E-2,1.203513656E-2
1.600373667E0,1.267719083E-3,-1.499284059E-3,-1.160691492E-2,1.177180693E-2
1.610330667E0,1.731751137E-3,-1.732898876E-3,-1.249510329E-2,1.273300855E-2
1.620287667E0,4.422485363E-4,-7.161032408E-4,-1.737241447E-2,1.739279081E-2
1.630244667E0,2.606562339E-4,-3.985967487E-4,-1.703300327E-2,1.703966025E-2
1.640201667E0,4.569311859E-4,-6.404118612E-4,-1.861199178E-2,1.862861110E-2
1.650158667E0,3.403830342E-4,4.078550264E-4,-1.647218317E-2,1.648074709E-2
1.660115667E0,2.498608781E-3,7.383534685E-4,-1.356001757E-2,1.380805157E-2
1.670072667E0,1.155876555E-3,1.085018739E-3,-1.225050725E-2,1.235266142E-2
1.680029667E0,-9.288459551E-4,-9.635929018E-5,-1.221854985E-2,1.225418297E-2
1.689986667E0,3.898433642E-4,7.467493415E-4,-1.523630880E-2,1.525957792E-2
1.699943667E0,-1.315911300E-3,-1.983789727E-3,-1.722382568E-2,1.738755921E-2
1.709900667E0,-9.846454486E-5,4.074769095E-4,-1.768528670E-2,1.769025433E-2
1.719857667E0,5.249814130E-4,-9.078579023E-4,-1.627833769E-2,1.631208415E-2
1.729814667E0,-1.388509525E-3,-8.115386590E-4,-1.318352763E-2,1.328126328E-2
1.739771667E0,-7.794445846E-4,3.876825795E-4,-1.422508992E-2,1.425170218E-2
1.749728667E0,4.114239709E-4,8.034948260E-4,-1.351360977E-2,1.354372632E-2
1.759685667E0,9.525783826E-4,-6.188992411E-4,-1.526064239E-2,1.530286405E-2
1.769642667E0,8.479560493E-4,-7.788361982E-4,-1.585084945E-2,1.589260972E-2
1.779599667E0,1.047160476E-3,-7.474105805E-4,-1.594166271E-2,1.599349173E-2
1.789556667E0,-2.131508663E-4,-1.012833789E-3,-1.427301206E-2,1.431049051E-2
1.799513667E0,-8.427221328E-4,1.993961632E-5,-1.359097660E-2,1.361709305E-2
1.809469667E0,-4.780385643E-5,2.470938489E-4,-1.281451620E-2,1.281698740E-2
1.819426667E0,-2.571283840E-4,-2.193161286E-3,-1.262037177E-2,1.281209799E-2
1.829383667E0,-5.680217873E-4,-2.463487908E-4,-1.392585784E-2,1.393961453E-2
1.839340667E0,1.440268010E-3,-2.868496813E-3,-1.654614136E-2,1.685459699E-2
1.849297667E0,2.480449388E-3,-2.501808107E-3,-1.806139201E-2,1.840178128E-2
1.859254667E0,-1.476208912E-3,-7.731504738E-4,-1.722462475E-2,1.730504702E-2
1.869211667E0,-1.464857254E-3,5.477275699E-4,-1.287946105E-2,1.297406371E-2
1.879168667E0,5.314482842E-4,9.925104678E-5,-1.358466595E-2,1.359541971E-2
1.889125667E0,1.067000092E-3,-5.365377292E-4,-1.287077554E-2,1.292606765E-2
1.899082667E0,1.357284607E-3,2.304520458E-4,-1.396054216E-2,1.402825958E-2
1.909039667E0,-1.638577320E-3,-2.194615081E-4,-1.579657197E-2,1.588284562E-2
1.918996667E0,-1.069992315E-3,1.653647050E-4,-1.731297560E-2,1.734679663E-2
1.928953667E0,2.398946090E-3,2.976180986E-4,-1.712430455E-2,1.729408353E-2
1.938910667E0,-2.228030004E-3,1.835859381E-3,-1.770540699E-2,1.793922892E-2
1.948867667E0,1.309580752E-3,2.249972895E-4,-1.395036653E-2,1.401350605E-2
1.958824667E0,-4.949772265E-4,-6.860699505E-4,-9.249088354E-3,9.287697767E-3
1.968781667E0,1.074613305E-3,3.749625757E-4,-1.334453188E-2,1.339298032E-2
1.978738667E0,1.140926033E-3,2.889418975E-4,-1.457384601E-2,1.462129226E-2
1.988695667E0,4.826596705E-4,5.437787622E-4,-1.431846991E-2,1.433691865E-2
1.998652667E0,-2.088089706E-3,-1.123892143E-3,-1.634939760E-2,1.652047378E-2
2.008609667E0,1.092565013E-3,3.987699747E-4,-1.572224498E-2,1.576520545E-2
2.018566667E0,-7.990782615E-4,9.228801355E-4,-1.581013016E-2,1.585718921E-2
2.028523667E0,6.439407589E-4,-1.381226815E-3,-1.243894547E-2,1.253195163E-2
2.038480667E0,9.985687211E-5,-9.663067758E-4,-1.260059886E-2,1.263799081E-2
2.048436667E0,1.922600204E-4,3.230851144E-5,-1.350743137E-2,1.350883822E-2
2.058393667E0,-1.249224879E-4,1.313288696E-3,-1.365443878E-2,1.371801849E-2
2.068350667E0,1.586217550E-3,1.396844164E-3,-1.595037244E-2,1.608979928E-2
2.078307667E0,1.979832770E-3,2.216831781E-3,-1.236975286E-2,1.272182639E-2
2.088264667E0,-2.772333100E-4,-1.291954890E-3,-1.512097195E-2,1.517859672E-2
2.098221667E0,-1.599226613E-3,3.861030564E-4,-1.203223877E-2,1.214419084E-2
2.108178667E0,-9.215490427E-4,2.930313349E-4,-1.030070707E-2,1.034599856E-2
2.118135667E0,-2.397472970E-3,-8.590519428E-4,-1.253323443E-2,1.278936325E-2
2.128092667E0,-2.644840395E-3,-1.256276853E-3,-1.627928205E-2,1.654050895E-2
2.138049667E0,-1.557471463E-3,-1.683182083E-3,-1.393170655E-2,1.411918081E-2
2.148006667E0,-8.898302913E-4,1.768077724E-3,-1.330775581E-2,1.345415406E-2
2.157963667E0,3.109889803E-4,1.523066312E-3,-1.363239530E-2,1.372073784E-2
2.167920667E0,-1.393241808E-3,9.554997087E-4,-1.187581196E-2,1.199537462E-2
2.177877667E0,-1.359419664E-3,-1.014706679E-3,-1.286331192E-2,1.297468477E-2
2.187834667E0,-1.043145778E-3,-3.066342324E-4,-1.323818415E-2,1.328275940E-2
2.197791667E0,-1.262193546E-4,-8.182274178E-4,-1.524460874E-2,1.526707317E-2
2.207748667E0,1.653934130E-3,-2.145385370E-4,-1.464935765E-2,1.474398875E-2
2.217705667E0,-2.126156818E-3,-2.155183814E-3,-1.628427207E-2,1.656329910E-2
2.227662667E0,-3.087194636E-5,-9.217141196E-4,-1.311255805E-2,1.314494917E-2
2.237619667E0,6.008298369E-4,8.423635736E-4,-1.378686912E-2,1.382564042E-2
2.247576667E0,-1.545908628E-3,-8.357390761E-4,-1.130304299E-2,1.143884060E-2
2.257533667E0,9.233742021E-4,-1.101789065E-3,-1.089478098E-2,1.098921342E-2
2.267490667E0,-2.575961640E-3,-2.641333267E-4,-1.201520953E-2,1.229107826E-2
2.277448542E0,-1.779942540E-3,1.629814506E-5,-1.437210757E-2,1.448191759E-2
2.287405542E0,1.342411502E-3,-1.658136025E-4,-1.307451539E-2,1.314429593E-2
2.297362542E0,-1.599848736E-3,8.440567181E-4,-1.177089754E-2,1.190907120E-2
2.307318542E0,1.985900337E-3,2.704551443E-4,-1.351075061E-2,1.365859905E-2
2.317275542E0,9.786927840E-4,4.017483443E-4,-1.339490339E-2,1.343661707E-2
2.327232542E0,2.221553354E-3,-1.015756279E-4,-1.392389461E-2,1.410037085E-2
2.337189542E0,1.283087768E-4,-4.911962897E-4,-1.323493477E-2,1.324466818E-2
2.347146542E0,3.305855207E-4,-1.535212621E-3,-1.151537243E-2,1.162196054E-2
2.357103542E0,1.032328466E-3,-2.321274951E-4,-1.489838585E-2,1.493591264E-2
2.367060542E0,-1.118932152E-3,-7.423833013E-4,-1.233501919E-2,1.240789428E-2
2.377017542E0,4.978729412E-4,1.553678885E-4,-1.018478349E-2,1.019812882E-2
2.386974542E0,1.899923314E-3,-1.017985865E-3,-1.431303658E-2,1.447442641E-2
2.396931542E0,3.507625079E-4,1.807361841E-3,-1.255987864E-2,1.269409873E-2
2.406888542E0,-1.352548832E-3,1.211499795E-3,-1.389591862E-2,1.401405274E-2
2.416845542E0,-5.290994886E-4,-6.268806756E-4,-1.301600970E-2,1.304183401E-2
2.426802542E0,-3.091816325E-4,9.902091697E-4,-8.630678058E-3,8.692796513E-3
2.436759542E0,-5.804537795E-5,9.726323187E-4,-7.578463759E-3,7.640843922E-3
2.446716542E0,2.099771053E-3,8.718324825E-4,-1.144163311E-2,1.166533748E-2
2.456673542E0,-3.771966556E-3,-2.661650069E-3,-1.572879031E-2,1.639228347E-2
2.466630542E0,2.189918654E-3,7.959902287E-4,-1.291406341E-2,1.312259036E-2
2.476587542E0,-6.716479547E-4,-3.600874916E-4,-1.576684229E-2,1.578524912E-2
2.486544542E0,-1.286019571E-3,9.814314544E-4,-1.403292175E-2,1.412586093E-2
2.496501542E0,1.997924177E-3,-1.527799293E-3,-1.125657745E-2,1.153414095E-2
2.506458542E0,-1.529492438E-4,-1.062735915E-3,-8.982348256E-3,9.046291024E-3
2.516415542E0,2.197290305E-3,1.942766830E-4,-1.140103117E-2,1.161246484E-2
2.526372542E0,1.033760840E-3,-6.667152047E-5,-1.306672022E-2,1.310771848E-2
2.536329542E0,1.387961209E-3,1.584221609E-3,-1.522707753E-2,1.537205531E-2
2.546286542E0,9.924246697E-4,-6.031561643E-4,-1.203714032E-2,1.209303316E-2
2.556242542E0,2.944101579E-4,-1.086785458E-3,-1.499431487E-2,1.503653080E-2
2.566199542E0,-3.856866853E-3,1.515668817E-3,-1.071903296E-2,1.149218610E-2
2.576156542E0,1.176774036E-3,-6.923582405E-4,-8.275583386E-3,8.387457150E-3
2.586113542E0,-1.285096863E-3,4.141544923E-4,-1.025283709E-2,1.034135708E-2
2.596070542E0,3.157291794E-4,-1.004511490E-3,-1.182170585E-2,1.186850696E-2
2.606027542E0,1.185520086E-3,-1.517551951E-3,-1.501778886E-2,1.514075308E-2
2.615984542E0,1.470478252E-3,3.418616951E-3,-1.183184981E-2,1.240330271E-2
2.625941542E0,-1.926182769E-3,1.284796745E-3,-1.159764454E-2,1.182650589E-2
2.635898542E0,-6.814212538E-4,5.628075451E-5,-1.289273985E-2,1.291085757E-2
2.645855542E0,-2.807690762E-4,1.142819412E-3,-1.303860359E-2,1.309160231E-2
2.655812542E0,1.368792728E-3,4.812907428E-4,-1.283433847E-2,1.291609377E-2
2.665769542E0,1.270461944E-3,-8.113831282E-4,-1.194893755E-2,1.204365080E-2
2.675726542E0,-1.745301764E-3,-6.438707933E-4,-1.170046628E-2,1.184742837E-2
2.685683542E0,4.936326295E-4,5.972199142E-5,-1.236728393E-2,1.237727561E-2
2.695640542E0,1.835333183E-3,-1.330714673E-3,-1.103410590E-2,1.126457911E-2
2.705597542E0,-1.244570594E-3,4.908628762E-5,-1.272185892E-2,1.278268594E-2
2.715554542E0,9.916857816E-4,-2.760859206E-4,-1.112902164E-2,1.117652839E-2
2.725511542E0,-2.275148872E-4,1.135722734E-3,-1.103019621E-2,1.109084567E-2
2.735468542E0,2.497235546E-4,-2.720533870E-3,-1.680313051E-2,1.702377341E-2
2.745425542E0,-2.451487817E-4,7.142387331E-4,-1.186303236E-2,1.188704217E-2
2.755382542E0,7.926851977E-4,-9.163375944E-5,-1.465748716E-2,1.467919196E-2
2.765339542E0,-5.966573954E-4,-8.832719177E-4,-1.179774478E-2,1.184579889E-2
2.775296542E0,1.166621689E-3,-3.245407715E-4,-9.938858449E-3,1.001235438E-2
2.785253542E0,8.647768991E-4,1.782551408E-5,-8.942005225E-3,8.983741663E-3
2.795210542E0,-1.145110698E-3,-3.150701523E-4,-9.398205206E-3,9.472951430E-3
2.805166542E0,-1.345925964E-3,3.670947626E-4,-1.435550861E-2,1.442313776E-2
2.815123542E0,-2.737960080E-3,5.652336404E-4,-1.394964382E-2,1.422703332E-2
2.825080542E0,-2.000752138E-3,-8.319690824E-5,-1.348178647E-2,1.362969176E-2
2.835037542E0,2.965776715E-3,-4.887972027E-4,-1.196405012E-2,1.233585220E-2
2.844994542E0,5.715962034E-4,-8.663404733E-4,-9.224077687E-3,9.282288360E-3
2.854951542E0,1.914362074E-3,-3.795139492E-4,-1.088775508E-2,1.106128490E-2
2.864908542E0,4.059630446E-4,-6.933119148E-4,-8.739699610E-3,8.776550386E-3
2.874865542E0,1.716047991E-4,-1.161762513E-3,-1.200739760E-2,1.206468970E-2
2.884822542E0,-2.753712703E-3,9.337896481E-4,-1.399448141E-2,1.429336933E-2
2.894779542E0,-1.589378575E-3,-8.473321795E-4,-1.312575862E-2,1.324875977E-2
2.904736542E0,-1.585576916E-3,5.487520248E-4,-9.804926813E-3,9.947450565E-3
2.914693542E0,1.819629688E-4,3.607328981E-4,-1.224012114E-2,1.224678751E-2
2.924650542E0,-4.141856916E-4,-1.691947691E-3,-1.016066596E-2,1.030889759E-2
2.934607542E0,2.462561009E-3,6.726728752E-4,-1.064908877E-2,1.095078934E-2
2.944564542E0,1.363012940E-3,1.707455143E-3,-1.138247829E-2,1.159025536E-2
2.954521542E0,-2.732332796E-4,2.104919404E-4,-1.072574314E-2,1.073128739E-2
2.964478542E0,1.080364455E-3,4.563480616E-4,-1.092758216E-2,1.099033634E-2
2.974435542E0,-4.418985918E-4,-8.243657649E-4,-1.195076853E-2,1.198731503E-2
2.984392542E0,1.348586753E-3,-4.404820502E-4,-9.870648384E-3,9.972081537E-3
2.994349542E0,7.772631943E-5,9.933635592E-4,-1.136095449E-2,1.140456486E-2
3.004306542E0,-2.626809292E-4,1.708366908E-3,-9.509105235E-3,9.664915992E-3
3.014263542E0,-1.215334050E-4,-1.751878299E-3,-1.190089062E-2,1.202975667E-2
3.024220542E0,-1.887793187E-4,9.571127594E-4,-1.221218146E-2,1.225108479E-2
3.034177542E0,2.636916470E-4,-1.709510572E-3,-1.313976012E-2,1.325312249E-2
3.044134542E0,-2.379945712E-3,4.894370213E-4,-1.087531075E-2,1.114343188E-2
3.054090542E0,1.652373467E-4,4.146024585E-4,-1.259491406E-2,1.260281948E-2
3.064047542E0,7.273658412E-4,-7.815230638E-4,-1.167803630E-2,1.172673745E-2
3.074004542E0,8.008690784E-4,-5.607772619E-5,-9.387983009E-3,9.422248191E-3
3.083961542E0,3.069990315E-3,1.503438689E-3,-8.986292407E-3,9.614500489E-3
3.093918542E0,-1.980960835E-3,-1.724893227E-4,-1.082680374E-2,1.100788979E-2
3.103875542E0,1.146066701E-3,1.003742218E-4,-1.067972742E-2,1.074151394E-2
3.113832542E0,-1.746835187E-5,-1.217341051E-4,-1.135270856E-2,1.135337466E-2
3.123789542E0,7.433991414E-5,6.875870749E-4,-1.197772939E-2,1.199767910E-2
3.133746542E0,2.594295656E-4,-7.257517427E-4,-1.125548035E-2,1.128183749E-2
3.143703542E0,1.218694029E-3,1.906231046E-5,-1.111127250E-2,1.117792266E-2
3.153660542E0,-1.220228733E-3,1.761885360E-4,-1.070513949E-2,1.077589959E-2
3.163617542E0,2.150486689E-3,-7.009143010E-4,-1.070769876E-2,1.094397947E-2
3.173574542E0,7.107817801E-4,3.449087963E-4,-1.057427563E-2,1.060374829E-2
3.183531542E0,3.112528939E-3,-1.061078161E-3,-9.198382497E-3,9.768519019E-3
3.193488542E0,-1.100858208E-3,1.632975414E-3,-8.744580671E-3,8.963603551E-3
3.203445542E0,7.558544166E-4,9.294003248E-4,-1.017515548E-2,1.024543263E-2
3.213402542E0,-2.639675979E-3,7.395166904E-4,-1.145267393E-2,1.177618421E-2
3.223359542E0,-1.608853810E-3,8.825799450E-4,-1.173885167E-2,1.188141391E-2
3.233316542E0,-5.230830284E-4,1.914555207E-3,-1.013882458E-2,1.033125846E-2
3.243273542E0,8.824240649E-4,1.407982782E-3,-1.206893101E-2,1.218278226E-2
3.253230542E0,7.013290888E-4,2.612530254E-3,-1.013201382E-2,1.048689091E-2
3.263187542E0,2.179303207E-3,1.404126175E-3,-1.040006429E-2,1.071831470E-2
3.273144542E0,-1.380011556E-3,2.631843090E-3,-8.571272716E-3,9.071810509E-3
3.283100792E0,2.534455154E-3,-1.890568063E-3,-9.900461882E-3,1.039311580E-2
3.293056792E0,-2.437932882E-3,-2.139572985E-3,-1.041738130E-2,1.091068845E-2
3.303013792E0,6.437911652E-4,-7.073236629E-4,-8.831707761E-3,8.883345980E-3
3.312970792E0,9.764199494E-4,-2.933726646E-3,-9.899368510E-3,1.037100019E-2
3.322927792E0,1.286963234E-3,6.669098511E-4,-1.175291836E-2,1.184196492E-2
3.332884792E0,-5.207904615E-4,-1.873212866E-3,-1.165651157E-2,1.181754675E-2
3.342841792E0,-1.125927316E-3,-1.805423759E-3,-1.203516964E-2,1.222180737E-2
3.352798792E0,8.725087391E-4,1.381581649E-3,-1.097176876E-2,1.109277914E-2
3.362755792E0,-1.045619254E-3,-1.759044826E-4,-1.006579772E-2,1.012148930E-2
3.372712792E0,7.930002175E-5,2.339556813E-4,-8.393865079E-3,8.397499313E-3
3.382669792E0,1.518034376E-3,2.615564503E-3,-9.879516438E-3,1.033201099E-2
3.392626792E0,2.005685819E-4,1.630727202E-3,-7.945794612E-3,8.113886306E-3
3.402583792E0,1.100955065E-3,8.498076349E-4,-1.065475680E-2,1.074514390E-2
3.412540792E0,3.555590520E-3,-8.602719754E-5,-1.223001629E-2,1.273667630E-2
3.422497792E0,9.544752538E-4,4.558702931E-4,-1.272864453E-2,1.277251864E-2
3.432454792E0,2.545964671E-4,-1.640303992E-3,-1.208815351E-2,1.220159300E-2
3.442411792E0,-3.462870372E-4,-6.296262145E-4,-9.925651364E-3,9.951627951E-3
3.452368792E0,2.253224608E-3,4.164641723E-4,-6.710949354E-3,7.091354227E-3
3.462325792E0,3.445241833E-3,5.471706390E-4,-7.488298696E-3,8.260974782E-3
3.472282792E0,-6.006325129E-4,-9.561832994E-4,-1.082444005E-2,1.088317730E-2
3.482239792E0,2.163415775E-4,2.578361891E-3,-9.580845013E-3,9.924079045E-3
3.492196792E0,1.574857160E-4,-5.849404261E-4,-1.408531703E-2,1.409833724E-2
3.502153792E0,5.623581819E-4,-2.231214195E-3,-8.756347001E-3,9.053627798E-3
3.512110792E0,1.333343331E-3,-1.985670067E-3,-7.689750753E-3,8.053133347E-3
3.522067792E0,2.296991413E-3,2.653164789E-3,-7.860410959E-3,8.608223591E-3
3.532023792E0,1.480866922E-4,8.653849363E-4,-7.546956185E-3,7.597852882E-3
3.541980792E0,3.789423499E-5,1.362347975E-3,-1.185609866E-2,1.193417376E-2
3.551937792E0,2.088692272E-4,9.271875024E-4,-1.261190418E-2,1.264766501E-2
3.561894792E0,1.305547776E-3,-1.365651377E-3,-1.396507956E-2,1.409229952E-2
3.571851792E0,-1.240370329E-4,1.440787688E-3,-9.049683809E-3,9.164498426E-3
3.581808792E0,2.564013004E-3,7.217712700E-4,-1.059275493E-2,1.092252597E-2
3.591765792E0,-2.654717304E-3,1.555074938E-3,-7.008406799E-3,7.653989018E-3
3.601722792E0,-1.605839934E-4,1.079749316E-3,-7.875423878E-3,7.950719909E-3
3.611679792E0,1.825335319E-3,1.925036311E-3,-1.074657775E-2,1.106917103E-2
3.621636792E0,-2.736398950E-3,-5.955435336E-5,-1.095854864E-2,1.129518544E-2
3.631593792E0,3.794995137E-4,7.413607091E-5,-1.016066596E-2,1.016802089E-2
3.641550792E0,1.124183880E-3,-1.200353727E-3,-1.048022322E-2,1.060847384E-2
3.651507792E0,3.630523570E-4,-1.156677492E-3,-1.145334169E-2,1.151732372E-2
3.661464792E0,-3.129127435E-4,7.771765813E-4,-8.657574654E-3,8.698017976E-3
3.671421792E0,-2.124128398E-3,-4.979455844E-4,-8.577944711E-3,8.851045515E-3
3.681378792E0,4.859614419E-4,2.327589318E-4,-1.007596590E-2,1.009036293E-2
3.691335792E0,2.395448042E-3,3.993511200E-6,-1.107997727E-2,1.133596416E-2
3.701292792E0,6.869910285E-4,-1.795534976E-3,-9.644836187E-3,9.834570026E-3
3.711249792E0,-1.574973576E-4,1.386144198E-3,-1.246592216E-2,1.254374013E-2
3.721206792E0,1.372708939E-3,-1.199185848E-3,-1.095163822E-2,1.110228608E-2
3.731163792E0,3.825455206E-4,3.513069823E-4,-7.828283124E-3,7.845493887E-3
3.741120792E0,5.627258215E-4,1.808869652E-3,-7.816014811E-3,8.042310445E-3
3.751077792E0,-1.536377706E-3,-8.867820725E-4,-7.989919744E-3,8.184476551E-3
3.761034792E0,7.053904701E-4,2.198479138E-3,-8.684154600E-3,8.985845945E-3
3.770991792E0,1.934439293E-3,1.489279792E-3,-1.184905507E-2,1.209793849E-2
3.780948792E0,-1.337260474E-4,1.287786290E-4,-1.100361440E-2,1.100518044E-2
3.790904792E0,-1.282347366E-3,4.795175046E-4,-1.025180425E-2,1.034281597E-2
3.800861792E0,-1.500276150E-3,-3.800643608E-4,-1.002022251E-2,1.013904023E-2
3.810818792E0,6.036210107E-4,-2.738027833E-3,-8.035901934E-3,8.510985527E-3
3.820775792E0,2.529788530E-3,1.722414978E-3,-6.728817243E-3,7.392125868E-3
3.830732792E0,4.999272060E-4,5.018888041E-4,-8.373051882E-3,8.402964798E-3
3.840689792E0,-1.213810174E-3,1.882382669E-3,-8.871698752E-3,9.150067672E-3
3.850646792E0,1.979316585E-4,4.093879834E-4,-1.004189067E-2,1.005218104E-2
3.860603792E0,4.067744594E-4,6.692344323E-4,-8.830251172E-3,8.864912631E-3
3.870560792E0,-1.356238266E-3,-1.149438322E-3,-9.011879563E-3,9.185562800E-3
3.880517792E0,9.811879136E-4,6.319638342E-4,-8.541317657E-3,8.620685316E-3
3.890474792E0,1.316395355E-4,3.267657012E-4,-8.065944538E-3,8.073634007E-3
3.900431792E0,2.107932232E-5,-1.439779997E-3,-6.899469066E-3,7.048126288E-3
3.910388792E0,-6.274003536E-4,-1.934861764E-3,-7.365522441E-3,7.641219934E-3
3.920345792E0,-4.909303971E-5,-9.776083753E-4,-9.741282091E-3,9.790337330E-3
3.930302792E0,-1.499450533E-3,-2.895883285E-3,-1.109656505E-2,1.156582240E-2
3.940259792E0,1.991461962E-3,-1.085964032E-3,-8.697565645E-3,8.988486345E-3
3.950216792E0,-3.120885231E-5,3.722373396E-3,-7.913796231E-3,8.745582227E-3
3.960173792E0,1.225594082E-3,1.384530216E-3,-7.991734892E-3,8.202855074E-3
3.970130792E0,1.116670785E-3,3.372846171E-3,-7.823955268E-3,8.592864538E-3
3.980087792E0,2.790163271E-4,-2.833724022E-3,-1.023489237E-2,1.062359938E-2
3.990044792E0,8.345516399E-4,-1.150073484E-3,-8.867092431E-3,8.980226814E-3
4.000001792E0,-7.432564162E-4,1.426257193E-3,-7.923409343E-3,8.084989505E-3
4.009958792E0,-3.055146663E-3,-2.094572410E-4,-9.061643854E-3,9.565102341E-3
4.019915792E0,1.393113635E-3,4.377663136E-4,-8.352359757E-3,8.479051742E-3
4.029872792E0,-1.060190378E-3,-2.359085716E-3,-9.115889668E-3,9.475691716E-3
4.039828792E0,-6.977561861E-5,-1.187927090E-3,-8.295899257E-3,8.380810455E-3
4.049785792E0,-1.071390463E-3,6.978567690E-4,-8.994713426E-3,9.085139031E-3
4.059742792E0,2.953442745E-4,-1.319679432E-3,-9.738335386E-3,9.831783060E-3
4.069699792E0,1.412540441E-3,1.412989572E-3,-8.993981406E-3,9.213224819E-3
4.079656792E0,7.871063426E-4,-1.137844287E-3,-7.415586151E-3,7.543549826E-3
4.089613792E0,9.290528251E-4,-3.399616107E-4,-6.501588970E-3,6.576425487E-3
4.099570792E0,8.251518011E-6,-9.464016184E-4,-9.276280180E-3,9.324436609E-3
4.109527792E0,5.057299277E-4,6.581535563E-4,-7.230706047E-3,7.278189253E-3
4.119484792E0,1.039746683E-3,1.776429825E-3,-8.241429925E-3,8.494583174E-3
4.129441792E0,2.645005006E-4,-2.253465354E-3,-1.012162119E-2,1.037281457E-2
4.139398792E0,2.217913046E-3,-5.728658289E-4,-9.301501326E-3,9.579417543E-3
4.149355792E0,-8.236833382E-4,1.787760295E-3,-7.212784141E-3,7.476549751E-3
4.159312792E0,1.173867146E-3,1.290956512E-3,-6.892604288E-3,7.110030004E-3
4.169269792E0,-5.148432683E-4,-5.463575944E-4,-6.585009862E-3,6.627663622E-3
4.179226792E0,1.384002389E-4,1.514098607E-3,-7.449304219E-3,7.602879887E-3
4.189183792E0,-8.799924981E-4,4.810579121E-4,-7.265014108E-3,7.333909838E-3
4.199140792E0,-2.216696274E-3,2.372008748E-3,-8.857605979E-3,9.433840763E-3
4.209097792E0,1.066182507E-3,-1.078915782E-3,-7.451456506E-3,7.604275670E-3
4.219054792E0,-9.145850781E-4,-6.336318329E-4,-7.599863689E-3,7.680877766E-3
4.229011792E0,-4.216339439E-4,-1.577456482E-3,-8.072042838E-3,8.235533966E-3
4.238968792E0,-9.411869105E-4,-7.269289345E-4,-1.045696065E-2,1.052436623E-2
4.248925792E0,-1.686871983E-3,5.734926090E-4,-8.425768465E-3,8.612084828E-3
4.258882792E0,-1.586791128E-3,-2.266680822E-4,-1.065711118E-2,1.077698025E-2
4.268839792E0,1.474593300E-4,1.264967956E-3,-9.773207828E-3,9.855834792E-3
4.278796417E0,6.427229382E-4,2.007558942E-5,-7.222212851E-3,7.250783011E-3
4.288752417E0,-3.828604240E-4,4.957159981E-4,-6.400627084E-3,6.431200784E-3
4.298709417E0,-6.135406438E-4,-1.925304532E-4,-6.532585714E-3,6.564158454E-3
4.308666417E0,4.740942968E-4,-3.282861784E-3,-7.371215615E-3,8.083116141E-3
4.318623417E0,1.330495346E-3,1.270010136E-3,-8.582859300E-3,8.777734182E-3
4.328580417E0,1.304396428E-3,1.032190397E-3,-1.257413812E-2,1.268368308E-2
4.338537417E0,1.801180653E-3,1.206463203E-4,-7.913544774E-3,8.116834246E-3
4.348494417E0,-2.704355400E-3,-2.321472391E-3,-7.360139862E-3,8.177678826E-3
4.358451417E0,4.596170038E-5,1.188619994E-3,-5.979603622E-3,6.096768771E-3
4.368408417E0,-1.195870340E-3,-6.044870242E-4,-5.156420637E-3,5.327680942E-3
4.378365417E0,-1.045175595E-3,3.274697810E-4,-6.654642522E-3,6.744174937E-3
4.388322417E0,2.294133883E-4,2.156170085E-4,-9.313809685E-3,9.319129361E-3
4.398279417E0,-1.432400662E-3,5.911123008E-4,-1.214903407E-2,1.224745746E-2
4.408236417E0,1.173502533E-3,-3.314064816E-4,-9.910646826E-3,9.985382264E-3
4.418193417E0,-1.612511463E-3,-1.958385110E-5,-5.406549666E-3,5.641928397E-3
4.428150417E0,-5.179522559E-4,5.399463698E-4,-5.828127731E-3,5.875958600E-3
4.438107417E0,1.292442903E-3,-1.154244877E-3,-4.511904437E-3,4.833215446E-3
4.448064417E0,-7.195754442E-4,5.080997944E-4,-5.727371667E-3,5.794716596E-3
4.458021417E0,8.755729068E-4,1.533239149E-3,-8.056901395E-3,8.248097374E-3
4.467978417E0,2.650569659E-3,5.870182067E-4,-9.166641161E-3,9.560199792E-3
4.477935417E0,-4.365183413E-4,-3.306381404E-5,-8.083535358E-3,8.095380496E-3
4.487892417E0,1.189874019E-3,7.267361507E-4,-6.057135295E-3,6.215531642E-3
4.497849417E0,3.838827834E-4,-1.285823993E-3,-3.257311415E-3,3.522894689E-3
4.507806417E0,-7.682007272E-4,-6.471974775E-4,-7.566306274E-3,7.632692026E-3
4.517763417E0,3.591384273E-3,3.319690004E-4,-5.498136859E-3,6.575542057E-3
4.527720417E0,-2.986951731E-4,-4.006670788E-4,-7.226528134E-3,7.243787807E-3
4.537677417E0,1.214778167E-3,-1.638333313E-3,-1.024071872E-2,1.044184572E-2
4.547633417E0,4.152972251E-4,-2.211978659E-3,-6.942394190E-3,7.298092796E-3
4.557590417E0,4.137520446E-4,-1.040542498E-3,-6.113756914E-3,6.215460003E-3
4.567547417E0,3.018992720E-4,-8.719637990E-4,-3.984558862E-3,4.090008968E-3
4.577504417E0,1.447572489E-3,-8.490756154E-4,-4.708225373E-3,4.998377905E-3
4.587461417E0,-3.726150608E-3,-4.727710038E-4,-7.956216112E-3,8.798243324E-3
4.597418417E0,-1.406316878E-3,-1.242121682E-3,-7.703027688E-3,7.928255104E-3
4.607375417E0,2.440885641E-3,1.083883457E-3,-6.396480836E-3,6.931644332E-3
4.617332417E0,2.642697655E-4,1.570330001E-3,-8.318563923E-3,8.469609233E-3
4.627289417E0,-1.292081550E-3,4.238393158E-4,-6.153699942E-4,1.492579890E-3
4.637246417E0,5.930844927E-4,2.666095272E-3,-4.418029916E-3,5.194112200E-3
4.647203417E0,1.674594125E-3,-2.601104788E-3,-8.657516912E-3,9.193617932E-3
4.657160417E0,2.581109293E-4,-1.096481457E-3,-6.747978274E-3,6.841352470E-3
4.667117417E0,-4.534856416E-4,-1.089025289E-3,-6.233188789E-3,6.343836993E-3
4.677074417E0,-8.183752652E-4,2.626776695E-4,-6.622291636E-3,6.677835289E-3
4.687031417E0,-1.596817281E-3,-3.873994574E-4,-6.792201195E-3,6.988125703E-3
4.696988417E0,2.642048756E-3,1.847790554E-4,-5.061578937E-3,5.712630415E-3
4.706945417E0,4.189078696E-3,-5.135023966E-4,-6.554547697E-3,7.795778380E-3
4.716902417E0,1.574603375E-3,-1.598754898E-4,-6.392103620E-3,6.585129053E-3
4.726859417E0,-1.551947789E-3,1.837229356E-3,-6.694639102E-3,7.113518563E-3
4.736816417E0,2.163462341E-3,-1.942939125E-3,-6.685020868E-3,7.290067609E-3
4.746773417E0,1.232953742E-3,1.140860841E-4,-5.082331132E-3,5.230992287E-3
4.756730417E0,1.135566388E-3,-9.019421414E-4,-3.931896761E-3,4.190802165E-3
4.766687417E0,-2.513496904E-3,-5.505699664E-5,-4.932446405E-3,5.536219423E-3
4.776644417E0,2.982788486E-3,1.469221897E-3,-5.739922170E-3,6.633426464E-3
4.786601417E0,3.225935157E-3,-8.461298421E-4,-7.744750474E-3,8.432304148E-3
4.796558417E0,5.444042617E-4,-1.062382944E-3,-5.298924632E-3,5.431724936E-3
4.806514417E0,-8.407058194E-4,1.100104302E-3,-7.041696459E-3,7.176524561E-3
4.816471417E0,-7.454899605E-4,-3.036344424E-4,-4.651602358E-3,4.720736558E-3
4.826428417E0,-9.889027569E-4,1.737678424E-3,-4.039075226E-3,4.506837433E-3
4.836385417E0,1.585431863E-3,1.195142046E-3,-6.614588201E-3,6.906137543E-3
4.846342417E0,-1.932071289E-3,-5.087489262E-4,-9.199186228E-3,9.413647125E-3
4.856299417E0,-4.465170205E-4,1.530209556E-4,-9.139679372E-3,9.151859477E-3
4.866256417E0,-7.791458629E-4,-1.242209226E-3,-7.904771715E-3,8.039624861E-3
4.876213417E0,-5.319870543E-4,-1.333681867E-4,-6.121263839E-3,6.145784595E-3
4.886170417E0,1.095470623E-3,-1.044435427E-3,-4.205119796E-3,4.469220709E-3
4.896127417E0,1.105112256E-3,3.402184695E-3,-4.159608856E-3,5.486208129E-3
4.906084417E0,2.824617550E-4,1.840507612E-3,-4.576926120E-3,4.941204875E-3
4.916041417E0,1.914919587E-3,-1.294750720E-3,-5.518047139E-3,5.982653314E-3
4.925998417E0,-8.963132277E-4,-1.475046389E-3,-8.521294221E-3,8.694342670E-3
4.935955417E0,-2.798532136E-3,-1.294999383E-3,-8.583486080E-3,9.120583249E-3
4.945912417E0,4.214959918E-4,-1.567972824E-3,-7.939001545E-3,8.103329142E-3
4.955869417E0,8.786128601E-4,-1.703379676E-4,-6.045022979E-3,6.110914694E-3
4.965826417E0,-7.642912678E-4,9.464658797E-5,-4.104910418E-3,4.176528303E-3
4.975783417E0,-9.985743091E-4,1.063760370E-3,-4.676131532E-3,4.898463318E-3
4.985740417E0,-4.837852903E-4,-8.593080565E-4,-4.521135241E-3,4.627431513E-3
4.995697417E0,-3.344542347E-5,8.189585060E-5,-7.682705298E-3,7.683214576E-3
5.005654417E0,-2.110178117E-3,-1.131706871E-3,-7.228637114E-3,7.614906871E-3
5.015611417E0,-1.395964297E-3,-1.934320666E-3,-9.729975834E-3,1.001812071E-2
5.025568417E0,-3.293682821E-4,-4.165852442E-4,-6.965082139E-3,6.985298557E-3
5.035525417E0,-9.365822189E-5,6.917398423E-4,-4.812153056E-3,4.862519194E-3
5.045482417E0,2.967611654E-4,-4.515554756E-4,-5.809772760E-3,5.834846104E-3
5.055439417E0,1.288597239E-3,-4.699267447E-5,-5.654247478E-3,5.799414254E-3
5.065395417E0,-2.040886553E-3,-4.062531516E-4,-6.818048656E-3,7.128537509E-3
5.075352417E0,2.159321448E-4,-1.945467666E-4,-8.157676086E-3,8.162852091E-3
5.085309417E0,-5.091656931E-5,-2.121875994E-3,-7.328899577E-3,7.630053686E-3
5.095266417E0,9.920988232E-4,1.812603325E-3,-5.825581029E-3,6.181196099E-3
5.105223417E0,5.706306547E-5,-5.996879190E-4,-4.328351468E-3,4.370069590E-3
5.115180417E0,-5.271874834E-4,-1.052628271E-3,-4.204727709E-3,4.366427376E-3
5.125137417E0,-1.949315425E-3,5.005272105E-4,-1.859813929E-3,2.740303991E-3
5.135094417E0,-3.116053995E-4,2.143727615E-4,-6.878696382E-3,6.889086842E-3
5.145051417E0,3.429997014E-4,-1.712534577E-4,-8.840380237E-3,8.848689127E-3
5.155008417E0,-2.031636657E-3,8.972510695E-4,-3.968772478E-3,4.547940410E-3
5.164965417E0,9.084932972E-4,1.695932820E-3,-5.649494007E-3,5.968109478E-3
5.174922417E0,5.437047221E-4,-7.120538503E-4,-3.861148842E-3,3.963723740E-3
5.184879417E0,-8.312852588E-4,1.062143594E-3,-3.342631273E-3,3.604492755E-3
5.194836417E0,-8.966657333E-5,1.565831713E-3,-3.251398914E-3,3.609911903E-3
5.204793417E0,2.420096425E-3,-9.849434718E-4,-6.784881465E-3,7.270598108E-3
5.214750417E0,-2.933177166E-4,3.058500588E-4,-6.700995378E-3,6.714381476E-3
5.224707417E0,9.927228093E-4,1.686698757E-3,-6.708717905E-3,6.988372286E-3
5.234664417E0,2.184415935E-3,-7.705781609E-4,-6.318517961E-3,6.729720120E-3
5.244621417E0,8.405848639E-4,-1.009463333E-3,-5.896407180E-3,6.040961576E-3
5.254578417E0,7.766310591E-4,1.071821898E-3,-5.752600729E-3,5.902912259E-3
5.264535417E0,2.362010768E-3,-1.041662879E-3,-3.443374299E-3,4.303601164E-3
5.274492417E0,-1.251716632E-3,4.472164437E-4,-5.233794451E-3,5.399944576E-3
5.284450417E0,2.650879556E-3,-2.259620465E-3,-4.895040765E-3,6.007867439E-3
5.294407417E0,-2.078171121E-3,-3.192853183E-4,-5.157078616E-3,5.569218812E-3
5.304364417E0,-1.547935884E-3,-1.470303163E-3,-3.420963883E-3,4.032479483E-3
5.314321417E0,-1.511446200E-3,-4.771370441E-4,-4.505068995E-3,4.775748740E-3
5.324278417E0,-1.099987887E-3,1.103981398E-3,-7.218297571E-3,7.384616991E-3
5.334234417E0,-5.029335152E-4,-7.041310892E-4,-4.448963329E-3,4.532330241E-3
5.344191417E0,-1.893902430E-3,1.306821592E-3,-5.054832436E-3,5.553915740E-3
5.354148417E0,1.984122908E-3,7.687509060E-5,-4.930108786E-3,5.314943662E-3
5.364105417E0,-3.400177229E-4,-3.921072930E-4,-4.606268369E-3,4.635414595E-3
5.374062417E0,3.899680451E-6,-1.250309870E-4,-7.182380185E-3,7.183469431E-3
5.384019417E0,1.313908608E-3,-5.838936195E-4,-4.453971982E-3,4.680294222E-3
5.393976417E0,-3.571973648E-4,-2.887872979E-4,-6.831321865E-3,6.846747147E-3
5.403933417E0,8.596009575E-4,3.035003319E-4,-5.718918517E-3,5.791118654E-3
5.413890417E0,2.894832287E-4,-9.823590517E-4,-5.237968639E-3,5.337147675E-3
5.423847417E0,-1.019460382E-3,-6.334846839E-4,-6.200967357E-3,6.316058777E-3
5.433804417E0,-5.493941717E-5,7.067164406E-4,-5.880109966E-3,5.922681798E-3
5.443761417E0,1.401277026E-3,-4.416387528E-4,-3.893923946E-3,4.161882481E-3
5.453718417E0,1.423924812E-3,1.983324997E-3,-5.158020183E-3,5.706690120E-3
5.463675417E0,1.823591301E-4,-2.443231642E-5,-5.865622312E-3,5.868507212E-3
5.473632417E0,-1.595906215E-3,-6.734440103E-4,-7.340575568E-3,7.542180928E-3
5.483589417E0,1.730914460E-3,-1.439369284E-3,-4.909642041E-3,5.401151153E-3
5.493546417E0,8.590898942E-4,7.658284158E-4,-5.729675293E-3,5.844117348E-3
5.503503417E0,-9.715668857E-4,1.160775311E-3,-4.191166721E-3,4.456144076E-3
5.513460417E0,1.582670491E-3,1.063840464E-4,-3.791067749E-3,4.109544759E-3
5.523417417E0,-1.346007688E-3,-6.936294958E-4,-3.501848318E-3,3.815206444E-3
5.533374417E0,-1.260756515E-3,-4.550181329E-4,-6.274604239E-3,6.416167613E-3
5.543331417E0,7.997311186E-4,-1.113618724E-3,-9.352419525E-3,9.452378934E-3
5.553288417E0,5.746167153E-5,4.191333428E-4,-9.178921580E-3,9.188665626E-3
5.563245417E0,9.527849033E-5,4.096422344E-5,-8.068382740E-3,8.069049269E-3
5.573202417E0,3.698444925E-5,-1.020682976E-4,-7.182158530E-3,7.182978973E-3
5.583159417E0,1.743271830E-3,1.797830686E-3,-1.974080689E-3,3.188759385E-3
5.593116417E0,-7.877266034E-4,-1.139896922E-3,-2.423690632E-3,2.791801296E-3
5.603073417E0,1.979564084E-3,-1.533245668E-3,-4.322791472E-3,4.995602301E-3
5.613029417E0,6.627431139E-5,-8.747307584E-4,-2.460369840E-3,2.612080767E-3
5.622986417E0,4.191432381E-4,-2.501389943E-3,-5.420207046E-3,5.984252428E-3
5.632943417E0,-2.796470653E-4,4.344945773E-4,-5.013839342E-3,5.040394128E-3
5.642900417E0,-1.704438357E-3,7.969504222E-4,-4.742463119E-3,5.102077668E-3
5.652857417E0,1.785649918E-3,3.155563027E-4,-2.654855140E-3,3.215023674E-3
5.662814417E0,4.644556902E-4,-7.899217308E-4,-6.333746016E-3,6.399690151E-3
5.672771417E0,-8.168048225E-4,6.435150281E-4,-5.768111907E-3,5.861091765E-3
5.682728417E0,-1.458626473E-3,-9.956611320E-4,-4.133995622E-3,4.495425684E-3
5.692685417E0,-8.671334945E-4,-5.673170090E-4,-5.873437040E-3,5.964145517E-3
5.702642417E0,-2.769769635E-4,-1.032571308E-3,-5.312309600E-3,5.418814726E-3
5.712599417E0,3.104701173E-4,-6.245570257E-4,-6.748100743E-3,6.784049440E-3
5.722556417E0,-8.432113100E-4,1.175739802E-3,-5.654073320E-3,5.836258605E-3
5.732513417E0,9.175878949E-5,-1.213499345E-3,-4.397098906E-3,4.562398396E-3
5.742470417E0,-4.873438738E-3,1.764980145E-3,-4.200557247E-3,6.671599601E-3
5.752427417E0,1.044880832E-3,-2.587307245E-5,-4.720235243E-3,4.834569900E-3
5.762384417E0,-3.761592321E-3,-2.333768643E-3,-6.284043193E-3,7.686693159E-3
5.772341417E0,-1.279078424E-5,1.758922823E-3,-3.897202201E-3,4.275764037E-3
5.782298417E0,-1.784395427E-4,3.511756659E-4,-2.876678482E-3,2.903522706E-3
5.792255417E0,-4.850793630E-6,1.449416392E-3,-3.125899471E-3,3.445588326E-3
5.802212417E0,-1.639765454E-3,5.972050130E-4,-2.416699193E-3,2.980925958E-3
5.812169417E0,2.257394372E-3,7.063848898E-4,-4.598015919E-3,5.170740697E-3
5.822126417E0,-6.659575738E-4,6.390064955E-4,-4.829711281E-3,4.917106857E-3
5.832083417E0,-4.321082961E-4,3.608129919E-4,-4.297099076E-3,4.333816340E-3
5.842040417E0,-1.380460104E-3,-2.369193360E-3,-5.348248407E-3,6.010200355E-3
5.851997417E0,-8.298407774E-4,2.250326797E-4,-3.988511860E-3,4.080135081E-3
5.861954417E0,-7.909585256E-4,-2.044779249E-3,-3.104608506E-3,3.800701454E-3
5.871911417E0,-5.133652594E-4,-7.135365158E-4,-5.587924272E-3,5.656639985E-3
5.881868417E0,6.565613439E-4,-1.567079686E-3,-5.749844946E-3,5.995625776E-3
5.891824417E0,-8.837971836E-5,-1.756541431E-3,-6.201021373E-3,6.445612061E-3
5.901781417E0,-5.855248310E-5,1.425594091E-4,-2.688311040E-3,2.692724982E-3
5.911738417E0,6.319512613E-5,-4.999060184E-5,-2.512576059E-3,2.513867764E-3
5.921695417E0,2.499987371E-3,-2.932063304E-3,-3.357331268E-3,5.110636489E-3
5.931652417E0,-2.456782386E-5,1.378944144E-4,-4.607625306E-3,4.609753725E-3
5.941609417E0,-2.188386163E-3,-4.032598808E-4,-4.379658960E-3,4.912541616E-3
5.951566417E0,-1.694808481E-3,-5.474854261E-4,-4.809651524E-3,5.128826753E-3
5.961523417E0,-7.243524306E-4,-2.144316211E-3,-4.449059255E-3,4.991683756E-3
5.971480417E0,-5.414416082E-4,1.631215215E-3,-5.583073013E-3,5.841637301E-3
5.981437417E0,1.045536133E-3,1.089526340E-4,-5.906380713E-3,5.999195747E-3
5.991394417E0,1.160261570E-3,-8.751247078E-4,-1.170550473E-3,1.866075716E-3
6.001351417E0,3.431938123E-3,-2.249049023E-3,-4.091238603E-3,5.794363994E-3
6.011308417E0,-1.447282732E-3,-1.056054607E-3,-4.072685726E-3,4.449342385E-3
6.021265417E0,-2.329028212E-5,-4.453919828E-4,-4.236736335E-3,4.260146855E-3
6.031222417E0,6.224332610E-4,-3.266884014E-4,-5.954507738E-3,5.995857810E-3
6.041179417E0,1.869591535E-3,-2.423661761E-3,-5.588588305E-3,6.371956378E-3
6.051136417E0,-2.331021475E-3,4.235338420E-4,-3.643749282E-3,4.346257109E-3
6.061093417E0,-2.210113918E-3,6.067594513E-4,-5.665354431E-3,6.111382936E-3
6.071050417E0,3.155035665E-4,-2.853563055E-4,-4.678008147E-3,4.697311033E-3
6.081007417E0,-4.490900319E-4,-1.407080330E-3,-4.552572966E-3,4.786175667E-3
6.090964417E0,-2.224193886E-4,-2.137847245E-3,-3.331923857E-3,3.965044491E-3
6.100921417E0,1.543522812E-3,7.729884237E-4,-2.811275423E-3,3.298976095E-3
6.110878417E0,-4.810043611E-4,1.684849150E-3,-4.536596127E-3,4.863207406E-3
6.120835417E0,1.327814767E-3,-1.107474789E-3,-4.935537465E-3,5.229638853E-3
6.130792417E0,-1.258636126E-3,1.197766513E-3,-5.044950172E-3,5.335759717E-3
6.140749417E0,1.308651175E-3,6.811134517E-4,-3.723223694E-3,4.004856815E-3
6.150706417E0,-2.803779207E-4,9.685717523E-4,-2.253001556E-3,2.468351480E-3
6.160663417E0,3.137734020E-4,-1.166485250E-3,-4.636530764E-3,4.791300357E-3
6.170620417E0,-5.835734773E-4,2.296595834E-3,-2.555149607E-3,3.484781190E-3
6.180576417E0,2.893449739E-3,3.343783319E-4,-2.979124896E-3,4.166418775E-3
6.190533417E0,2.767770784E-4,3.058267757E-4,-3.888735548E-3,3.910549799E-3
6.200490417E0,-1.495823031E-3,1.714373007E-3,-3.713233396E-3,4.354843695E-3
6.210447417E0,1.450586133E-3,-3.797505051E-4,-6.687086076E-3,6.853140211E-3
6.220404417E0,-1.058111666E-3,8.290577680E-4,-4.239108413E-3,4.447131347E-3
6.230361417E0,1.943671028E-3,-5.697486922E-4,-4.473705776E-3,4.910856749E-3
6.240318417E0,-2.041216940E-3,6.840676069E-4,-4.430295900E-3,4.925650906E-3
6.250275417E0,9.671458974E-4,-1.998366788E-4,-5.677685142E-3,5.762934535E-3
6.260232417E0,4.960326478E-4,1.494999044E-3,-1.837673597E-3,2.420354267E-3
6.270189417E0,-2.161356853E-3,-2.640765160E-5,-5.078606308E-3,5.519456752E-3
6.280145417E0,-2.364239190E-4,-2.718330361E-3,-5.381939933E-3,6.034110843E-3
6.290102417E0,-9.172828868E-6,1.747983508E-3,-3.671263345E-3,4.066165888E-3
6.300059417E0,1.613224857E-3,-2.021454275E-3,-3.351151012E-3,4.233082202E-3
6.310016417E0,3.814286320E-4,5.151424557E-5,-2.468386665E-4,4.572426555E-4
6.319973417E0,6.181836361E-4,8.925404400E-4,-1.224751584E-3,1.636702749E-3
6.329930417E0,-1.697988017E-3,1.911578700E-3,-4.084382206E-3,4.818658987E-3
6.339887417E0,3.784128930E-3,-2.204603516E-3,-5.841801874E-3,7.301133992E-3
6.349844417E0,8.730295813E-4,-2.360176295E-4,-5.639970303E-3,5.712018031E-3
6.359801417E0,-9.989063255E-4,2.303021029E-4,-4.844482988E-3,4.951754066E-3
6.369758417E0,-1.366408542E-4,-9.470591322E-4,-1.064484008E-3,1.431334316E-3
6.379715417E0,-1.140652457E-3,1.533675939E-3,-8.916454390E-4,2.109094949E-3
6.389672417E0,3.194401506E-4,2.469727769E-4,-2.079121768E-3,2.117967160E-3
6.399629417E0,1.133568469E-3,1.659247093E-3,-4.524169490E-3,4.950372507E-3
6.409586417E0,-4.140846431E-4,-1.803505234E-3,-6.490696222E-3,6.749313644E-3
6.419543417E0,-7.033038419E-4,-6.133383140E-4,-6.714401767E-3,6.778938801E-3
6.429500417E0,1.797143253E-3,-5.518300459E-4,-3.666626289E-3,4.120484027E-3
6.439457417E0,2.320454456E-3,-1.733474433E-3,-1.320381649E-3,3.183213815E-3
6.449414417E0,3.462677356E-3,-1.449519768E-4,-2.533281222E-3,4.292861435E-3
6.459371417E0,1.664829906E-4,3.448035568E-4,-1.185189001E-3,1.245503532E-3
6.469328417E0,7.162470138E-4,1.892156899E-3,-3.521873616E-3,4.061632834E-3
6.479284417E0,-1.109882491E-3,-8.908463642E-4,-5.308853462E-3,5.496305256E-3
6.489241417E0,-2.856884385E-3,-4.986999556E-4,-3.449007869E-3,4.506234050E-3
6.499198417E0,4.488974810E-4,1.614252105E-3,-5.193112418E-3,5.456714707E-3
6.509155417E0,3.722726833E-4,-6.791511551E-4,-2.688191831E-3,2.797536159E-3
6.519112417E0,1.203445252E-3,-3.507826477E-4,-7.283715531E-4,1.449777245E-3
6.529069417E0,-1.255530864E-3,-7.814643905E-4,-2.792651765E-3,3.160055098E-3
6.539026417E0,-1.571648056E-3,-2.486072481E-5,-3.422489390E-3,3.766182323E-3
6.548983417E0,1.251861337E-3,-2.404842526E-4,-5.779596046E-3,5.918506563E-3
6.558940417E0,1.762122964E-3,-8.149277419E-4,-7.006781176E-3,7.270774856E-3
6.568897417E0,-1.894892892E-3,-9.541828185E-4,-5.254294723E-3,5.666453649E-3
6.578854417E0,-1.665860880E-3,-2.654893324E-4,-6.189331412E-3,6.415091612E-3
6.588811417E0,1.294915797E-3,1.524107531E-3,-4.985785112E-3,5.371942281E-3
6.598768417E0,-1.983186230E-4,-3.893738613E-4,-3.598751500E-4,5.660851558E-4
6.608725417E0,3.694910556E-4,2.024872229E-4,-4.915080965E-3,4.933107094E-3
6.618682417E0,5.093070213E-4,6.315223873E-4,-4.229316488E-3,4.306429161E-3
6.628639417E0,1.038749935E-3,6.152503192E-5,-2.733931877E-3,2.925264136E-3
6.638596417E0,4.608440213E-4,6.218533963E-4,-9.035412222E-4,1.189733415E-3
6.648553417E0,-1.350477338E-3,5.363328382E-4,-2.147576772E-3,2.592976657E-3
6.658510417E0,-5.210749805E-7,-1.079140231E-3,-2.585400827E-3,2.801578367E-3
6.668467417E0,1.513970783E-3,-4.398394376E-4,-6.756454706E-3,6.937956937E-3
6.678424417E0,1.058570226E-3,-9.277304634E-4,-6.343131885E-3,6.497428479E-3
6.688381417E0,2.782064257E-3,-9.751273319E-4,-3.939102404E-3,4.920089694E-3
6.698338417E0,1.664868207E-3,1.657707617E-4,-3.260262311E-3,3.664502207E-3
6.708295417E0,1.751402626E-3,4.274491221E-4,-1.471465454E-3,2.327087126E-3
6.718252417E0,-2.625769004E-3,4.908321425E-4,1.594545320E-4,2.676005382E-3
6.728209417E0,1.411368605E-3,-7.244767621E-4,-5.064232275E-3,5.306908370E-3
6.738166417E0,1.265693689E-3,-1.442465000E-3,-4.646116868E-3,5.026836753E-3
6.748123417E0,1.687838929E-3,-2.802725881E-3,-7.337190211E-3,8.033581568E-3
6.758080417E0,1.332573243E-3,-1.211487688E-3,-2.152016386E-3,2.806176829E-3
6.768037417E0,1.260944875E-3,-4.026545212E-4,-1.175669022E-3,1.770398342E-3
6.777994417E0,-1.731915632E-3,2.471162938E-3,-1.194311306E-3,3.245390195E-3
6.787951417E0,8.117605466E-4,-7.307576016E-4,1.226849854E-4,1.099096658E-3
6.797907417E0,-1.634352840E-3,7.038870826E-4,-2.632620744E-3,3.177618324E-3
6.807864417E0,-6.743655540E-4,-2.918587998E-4,-3.641393967E-3,3.714794810E-3
6.817821417E0,-1.294615678E-3,7.827263325E-4,-1.630173996E-3,2.223995846E-3
6.827778417E0,2.441728022E-3,-7.353201509E-4,-2.615766600E-3,3.653076287E-3
6.837735417E0,-2.762943041E-4,-1.726548187E-3,-3.113511018E-3,3.570890372E-3
6.847692417E0,1.095473301E-3,-1.166505739E-3,-3.039126284E-3,3.434688627E-3
6.857649417E0,-1.000700751E-3,2.883793786E-4,-1.676120795E-3,1.973308283E-3
6.867606417E0,1.008203253E-5,2.746547572E-3,-9.300541133E-4,2.899763071E-3
6.877563417E0,1.050845371E-3,7.923198864E-4,4.113810137E-4,1.378869513E-3
6.887520417E0,1.957389992E-3,6.814757362E-4,-3.199383616E-3,3.812065094E-3
6.897477417E0,1.269761822E-3,1.694541425E-3,-4.231359810E-3,4.731614055E-3
6.907434417E0,9.878678247E-4,1.055807807E-3,-4.541510716E-3,4.766123430E-3
6.917391417E0,1.650196034E-3,-1.081379130E-3,-3.533771262E-3,4.047229559E-3
6.927348417E0,1.544369152E-3,-1.972526312E-3,-8.445195854E-4,2.643699956E-3
6.937305417E0,-2.226382494E-4,-2.883430570E-4,-2.749212086E-3,2.773242976E-3
6.947262417E0,3.320123069E-4,-7.235994563E-4,-2.467183396E-3,2.592454871E-3
6.957219417E0,-1.013150439E-3,-2.958790399E-3,-4.134587944E-3,5.184180929E-3
6.967176417E0,1.599748386E-3,-4.579126835E-5,-2.489191480E-3,2.959284705E-3
6.977133417E0,3.792217467E-4,1.688725315E-3,-2.541122958E-3,3.074558214E-3
6.987090417E0,-9.657908231E-5,2.207174897E-3,-1.926437952E-3,2.931230412E-3
6.997047417E0,8.975788951E-4,2.082006074E-3,-2.390094101E-3,3.294381123E-3
7.007004417E0,1.202514395E-4,1.777543686E-3,-2.281156369E-3,2.894442320E-3
7.016961417E0,-1.406538999E-3,-4.672342911E-4,-2.141606063E-3,2.604445501E-3
7.026918417E0,-2.142673125E-3,-1.484408975E-3,-1.415620558E-3,2.966226507E-3
7.036875417E0,1.649402082E-3,-1.973025501E-4,-2.916045487E-3,3.356006080E-3
7.046832417E0,-1.246428816E-3,-2.209646627E-4,-2.489010803E-3,2.792415613E-3
7.056789417E0,-1.414740458E-3,-1.218584366E-3,-3.705277108E-3,4.149158573E-3
7.066746417E0,4.063459346E-4,-8.445726708E-4,-5.553860217E-3,5.632387001E-3
7.076703417E0,1.576272538E-3,-1.349774189E-3,-2.359664068E-3,3.142378078E-3
7.086660417E0,2.168398350E-3,-1.692551188E-3,-3.186981194E-3,4.209932311E-3
7.096617417E0,2.677004086E-4,-2.866206691E-3,-1.274565235E-3,3.148225030E-3
7.106574417E0,1.209095470E-3,1.838901080E-3,-4.102043808E-3,4.655129691E-3
7.116530417E0,2.361178864E-3,8.681789041E-4,-1.982168294E-3,3.202794309E-3
7.126487417E0,2.701678313E-3,1.002345234E-4,-3.903208300E-3,4.748067786E-3
7.136444417E0,3.631564323E-4,1.113034785E-3,-1.042440534E-3,1.567613247E-3
7.146401417E0,-4.099102225E-4,8.809706196E-4,-1.195314340E-3,1.540425914E-3
7.156358417E0,4.612097982E-4,2.237584442E-3,6.209611893E-4,2.367507426E-3
7.166315417E0,1.321043819E-4,-1.143239439E-3,-2.754656598E-4,1.183355108E-3
7.176272417E0,1.635297667E-4,-2.943269908E-3,-3.730917349E-3,4.754926288E-3
7.186229417E0,1.178302919E-3,-6.708474830E-4,-1.490613446E-3,2.015034133E-3
7.196186417E0,-3.879021388E-4,6.831036881E-4,-1.280756667E-3,1.502476741E-3
7.206143417E0,-6.109531969E-4,2.612384968E-3,-2.964158542E-3,3.998006365E-3
7.216100417E0,1.062843483E-3,-1.524036750E-3,-3.606528044E-4,1.892721514E-3
7.226057417E0,2.077391138E-3,3.312120214E-3,-6.524845958E-6,3.909697792E-3
7.236014417E0,-1.437715022E-3,2.092392184E-3,-1.184174791E-3,2.801321022E-3
7.245971417E0,-7.343140896E-4,8.267685771E-4,-4.753146321E-3,4.880078217E-3
7.255928417E0,-1.059219707E-3,-1.862757839E-3,-5.791779608E-3,6.175477648E-3
7.265885417E0,-6.396819372E-4,-3.867950290E-4,-3.622948192E-3,3.699264383E-3
7.275842417E0,1.095633837E-3,2.318574116E-4,-2.335309982E-3,2.589950594E-3
7.285799417E0,9.540809551E-4,-8.321357891E-4,6.906781346E-4,1.442136168E-3
7.295756417E0,1.163139124E-3,5.425885320E-4,3.583161160E-4,1.332548452E-3
7.305713417E0,9.542249609E-4,1.093462110E-3,1.067066565E-3,1.801342753E-3
7.315670417E0,-5.842831451E-4,6.958525628E-4,-9.553376585E-4,1.318433777E-3
7.325627417E0,2.035574988E-3,1.908194274E-3,-5.138823763E-3,5.847416573E-3
7.335584417E0,-1.562621910E-3,-2.911594696E-3,-6.648568437E-3,7.424461810E-3
7.345541417E0,-7.109448779E-4,1.439673826E-3,-3.616813570E-3,3.957201504E-3
7.355498417E0,-2.359974198E-3,5.869297311E-4,-9.733596817E-4,2.619426234E-3
7.365455417E0,2.191305393E-3,-1.518335193E-4,1.865169033E-4,2.204463948E-3
7.375412417E0,1.162792672E-3,-1.417128369E-4,2.293343656E-3,2.575188236E-3
7.385369417E0,-8.623113390E-4,3.686184064E-4,-6.477721035E-4,1.139767114E-3
7.395326417E0,1.427654643E-4,3.691501915E-4,-4.500834271E-3,4.518203512E-3
7.405283417E0,-5.926804151E-4,1.846204512E-3,-6.500348449E-3,6.783381983E-3
7.415240417E0,-1.651286846E-3,7.234159857E-4,-4.542658105E-3,4.887312308E-3
7.425197417E0,-1.984436298E-3,1.367154531E-3,-1.663221978E-3,2.928037957E-3
7.435154417E0,7.125781849E-5,-3.897648305E-3,-8.706646040E-4,3.994345608E-3
7.445110417E0,-9.589027613E-4,8.954238147E-4,9.176209569E-4,1.601032958E-3
7.455068417E0,-1.705120550E-3,-2.476051450E-4,-2.660868689E-3,3.170010502E-3
7.465024417E0,-8.953972720E-4,5.655437708E-4,-4.581471905E-3,4.702282515E-3
7.474981417E0,2.293738071E-3,6.856527179E-4,-4.445118830E-3,5.048805344E-3
7.484938417E0,1.193748438E-3,-1.120829023E-3,-2.541167662E-3,3.023049142E-3
7.494895417E0,-6.271991879E-6,-2.140286379E-3,-1.241545193E-3,2.474328108E-3
7.504852417E0,-9.268755093E-5,1.389876939E-3,3.694025800E-4,1.441113165E-3
7.514809417E0,2.644422930E-4,4.218183458E-4,1.391789876E-3,1.478154086E-3
7.524766417E0,2.832675818E-4,5.086781457E-4,-1.297200099E-3,1.421872735E-3
7.534723417E0,1.091270708E-3,7.574176416E-4,-4.437332973E-3,4.631897792E-3
7.544680417E0,-8.875362109E-4,-1.101480797E-3,-7.016852498E-3,7.158016447E-3
7.554637417E0,1.245655818E-3,5.078678951E-4,-4.412280396E-3,4.612787282E-3
7.564594417E0,2.573778620E-4,6.940430030E-4,-1.513771713E-5,7.403838223E-4
7.574551417E0,1.116779866E-3,-1.389933750E-4,-8.825287223E-4,1.430165505E-3
7.584508417E0,7.451284910E-4,8.624484763E-4,7.425285876E-4,1.360287670E-3
7.594465417E0,-1.263960265E-3,1.409728080E-3,-1.767767593E-3,2.590353465E-3
7.604422417E0,-8.211941458E-4,-1.131069846E-3,-5.576625466E-3,5.749124317E-3
7.614379417E0,3.271609312E-4,-9.505078197E-4,-2.461526543E-3,2.658874256E-3
7.624336417E0,-1.894762507E-3,6.229355931E-4,-3.338505514E-3,3.888932087E-3
7.634293417E0,-2.072129166E-3,9.502377361E-4,-2.499609254E-3,3.383004206E-3
7.644250417E0,1.907333150E-3,1.077770256E-3,-1.347255893E-3,2.571887810E-3
7.654207417E0,-1.115887426E-3,2.555549145E-5,-5.855225027E-5,1.117714720E-3
7.664164417E0,-1.957399305E-3,-3.284271806E-4,2.560485154E-5,1.984926210E-3
7.674121417E0,1.933698077E-4,-2.948716283E-4,1.114305109E-3,1.168767314E-3
7.684078417E0,4.898394691E-4,-2.026921138E-4,-4.185130820E-3,4.218571651E-3
7.694035417E0,-9.527949151E-4,9.555164725E-4,-3.501229919E-3,3.752258097E-3
7.703992417E0,-3.840611316E-4,-2.123955637E-3,-5.100181326E-3,5.538098957E-3
7.713949417E0,2.696151147E-3,-3.481591120E-4,-8.172849193E-4,2.838732184E-3
7.723906417E0,2.275526291E-3,4.212753847E-4,1.072211191E-3,2.550515573E-3
7.733863417E0,1.819859259E-3,3.405194730E-5,7.987041026E-4,1.987706090E-3
7.743820417E0,-6.751785986E-5,1.728084870E-3,-1.328617334E-3,2.180839288E-3
7.753777417E0,4.190416075E-4,-1.421902329E-3,-2.132093534E-3,2.596772023E-3
7.763734417E0,-4.051732831E-4,1.287356950E-3,-4.405541345E-3,4.607629309E-3
7.773691417E0,1.420157263E-3,-4.591438919E-4,-2.990604378E-3,3.342360590E-3
7.783648417E0,-1.102722017E-3,8.693290874E-4,8.590193465E-4,1.646099373E-3
7.793605417E0,4.301934969E-4,-1.642298885E-3,-2.752759494E-3,3.234176387E-3
7.803561417E0,-1.473773969E-3,1.780353487E-4,5.771899596E-4,1.592750623E-3
7.813518417E0,1.548114815E-3,-2.756062895E-5,-2.740043215E-3,3.147261650E-3
7.823475417E0,-3.638039343E-3,6.654225290E-4,-1.978036016E-3,4.194132078E-3
7.833432417E0,1.058978029E-3,-1.954861917E-3,-4.462499171E-3,4.985661283E-3
7.843389417E0,2.268024487E-3,-1.796230674E-3,-1.010783948E-3,3.064647435E-3
7.853346417E0,-1.202340703E-3,6.208540872E-4,1.596752554E-4,1.362563449E-3
7.863303417E0,1.833981369E-4,-1.897281036E-3,2.802603878E-3,3.389380283E-3
7.873260417E0,2.573896199E-5,-1.376367174E-3,5.901511759E-5,1.377872228E-3
7.883217417E0,1.879952266E-3,8.672568947E-4,-9.511215612E-4,2.278373821E-3
7.893174417E0,1.957183937E-3,1.408411190E-3,-5.250795744E-3,5.777979490E-3
7.903131417E0,4.965657135E-4,1.491174102E-3,-4.528286867E-3,4.793282764E-3
7.913088417E0,2.545258030E-5,-1.021252014E-3,-5.740291439E-3,5.830484484E-3
7.923045417E0,-5.828933790E-4,4.502255470E-4,-1.563118771E-3,1.727949081E-3
7.933002417E0,-3.338877577E-4,-5.282200873E-4,1.116819680E-3,1.279759232E-3
7.942959417E0,4.683830775E-5,1.897796057E-3,3.847358748E-3,4.290220628E-3
7.952916417E0,3.586944658E-4,-2.183498815E-3,-7.593771443E-4,2.339440626E-3
7.962873417E0,7.803974440E-4,1.897936687E-3,-3.324798308E-3,3.907104763E-3
7.972830417E0,-1.408454496E-3,2.718102187E-4,-5.318706855E-3,5.508744637E-3
7.982787417E0,1.238382421E-3,-1.300292090E-3,-3.783135675E-3,4.187656394E-3
7.992744417E0,-7.760326844E-4,-3.953501582E-4,-1.193210483E-3,1.477254118E-3
8.002701417E0,4.147232044E-3,1.681754366E-4,-1.030240208E-3,4.276588768E-3
8.012658417E0,-1.284729224E-4,-2.114419825E-3,-7.804362103E-4,2.257511278E-3
8.022615417E0,7.890097331E-4,3.312118351E-4,-9.839329869E-5,8.613471309E-4
8.032572417E0,8.007276338E-4,3.200266510E-4,-5.663111806E-4,1.031644393E-3
8.042529417E0,9.134361753E-4,-1.933554187E-3,-3.452382982E-3,4.061027665E-3
8.052486417E0,9.768193122E-4,5.250759423E-4,-3.271554597E-3,3.454410253E-3
8.062443417E0,3.511521965E-3,9.940424934E-4,-2.227062359E-3,4.275361241E-3
8.072400417E0,2.848361619E-4,-1.329831779E-3,-7.985420525E-4,1.577102916E-3
8.082357417E0,-1.225354616E-3,1.360501163E-3,-1.535956748E-3,2.389899680E-3
8.092314417E0,1.232743030E-3,9.831311181E-4,6.579551846E-4,1.708539493E-3
8.102271417E0,-1.660764683E-4,5.303695798E-4,-2.811079845E-3,2.865491787E-3
8.112228417E0,-1.126412302E-3,-2.132524736E-3,-3.862762824E-3,4.553833886E-3
8.122185417E0,2.595363185E-5,8.772201836E-4,-3.040904179E-3,3.165009805E-3
8.132142417E0,4.752288805E-4,-9.502414614E-4,-4.072613083E-3,4.208916564E-3
8.142099417E0,1.375248656E-3,-4.297867417E-5,-2.034764737E-3,2.456302825E-3
8.152056417E0,-4.315096885E-5,2.840958536E-3,-4.086997360E-3,4.977595286E-3
8.162013417E0,-1.683803275E-4,-3.108428791E-4,-9.984513745E-4,1.059188547E-3
8.171970417E0,6.912881508E-4,-2.949502319E-3,-4.743412137E-4,3.066340298E-3
8.181927417E0,3.726539435E-4,-3.022937104E-3,-1.664214768E-3,3.470825621E-3
8.191884417E0,-1.691029640E-3,7.129460573E-4,-1.644241624E-3,2.464021883E-3
8.201841417E0,5.172935780E-4,9.301397949E-5,-2.371054143E-5,5.261239740E-4
8.211797417E0,2.429879969E-4,-2.332227305E-4,-2.265825868E-3,2.290721037E-3
8.221754417E0,-1.455639023E-3,3.019664437E-3,-3.211068921E-3,4.642006235E-3
8.231711417E0,1.332956948E-3,2.687568776E-3,-1.890939660E-3,3.546188511E-3
8.241668417E0,9.619873017E-4,-1.037037000E-3,-2.689901739E-4,1.439868404E-3
8.251625417E0,-4.710596986E-4,-1.091919839E-4,-7.448969409E-4,8.880830938E-4
8.261582417E0,-7.513791788E-4,2.174396068E-4,-2.245866694E-3,2.378185833E-3
8.271539417E0,6.933858385E-4,4.145130515E-4,-4.013938829E-3,4.094424247E-3
8.281496458E0,-1.532040536E-3,9.606126696E-5,-3.870802000E-3,4.164070616E-3
8.291453458E0,2.391061978E-3,1.583970152E-3,-7.570339367E-4,2.966351161E-3
8.301410458E0,3.065782366E-3,-8.821114898E-5,-2.613675781E-3,4.029653063E-3
8.311367458E0,-7.803549524E-4,-1.674655825E-3,-6.285551935E-4,1.951539806E-3
8.321324458E0,4.853651626E-4,-2.452981658E-3,-6.735362113E-4,2.589662021E-3
8.331281458E0,3.130586119E-4,4.253629595E-4,-1.302042045E-3,1.405081075E-3
8.341238458E0,1.067411038E-3,4.434771836E-4,-1.585628837E-3,1.962207213E-3
8.351195458E0,-2.002536785E-4,-2.122478560E-3,-1.053262502E-3,2.377893747E-3
8.361152458E0,1.771738636E-3,9.053582326E-4,-1.684907824E-3,2.607229506E-3
8.371109458E0,-1.230709022E-3,4.728604108E-4,-2.948843874E-3,3.230158179E-3
8.381066458E0,-9.681801312E-4,1.508566551E-3,-4.021602683E-3,4.403002832E-3
8.391023458E0,-3.569845576E-4,-5.425997078E-4,-1.088663936E-3,1.267691438E-3
8.400980458E0,9.314046474E-4,2.101407386E-3,-1.821391284E-3,2.932728053E-3
8.410937458E0,1.481613843E-3,-2.188146114E-3,-2.443240024E-3,3.598969965E-3
8.420894458E0,-3.476680722E-4,-1.122792251E-3,-2.640143968E-3,2.889964654E-3
8.430851458E0,-1.974859741E-3,-1.991515048E-3,-3.721121699E-3,4.659715643E-3
8.440808458E0,1.628841506E-3,-3.057670780E-3,-2.061472274E-3,4.031394695E-3
8.450765458E0,-2.545460593E-4,-3.020977601E-4,-2.436711453E-3,2.468525766E-3
8.460722458E0,-2.208161168E-3,1.665909775E-3,-1.499950886E-4,2.770149752E-3
8.470679458E0,-3.082621843E-4,2.026502043E-3,-1.115923747E-3,2.333885583E-3
8.480636458E0,-1.055391273E-3,1.983530819E-3,-1.195198856E-3,2.544945099E-3
8.490593458E0,-3.738885280E-4,-1.050342806E-3,-2.580575645E-3,2.811117803E-3
8.500550458E0,-1.472169766E-3,6.405059248E-4,-3.008726984E-3,3.410274142E-3
8.510507458E0,-2.337696962E-3,5.827154964E-4,-3.122771159E-4,2.429382933E-3
8.520464458E0,3.200024366E-4,-1.437433995E-3,-2.565184608E-3,2.957835378E-3
8.530421458E0,-1.957532950E-3,-1.033699140E-3,-2.752404660E-3,3.532166555E-3
8.540378458E0,2.365917666E-3,-1.466053538E-3,-2.894620411E-3,4.015682595E-3
8.550335458E0,1.138466876E-3,-2.368539572E-5,-4.012082703E-3,4.170548578E-3
8.560292458E0,-1.314454712E-4,1.496016979E-3,-2.142797224E-3,2.616662886E-3
8.570249458E0,-1.356499502E-3,8.113188669E-4,-1.007758081E-3,1.874541425E-3
8.580206458E0,-1.505666878E-3,9.169895202E-5,-9.956974536E-4,1.807444291E-3
8.590163458E0,-3.983243369E-4,9.249802679E-5,-1.618610695E-3,1.669466605E-3
8.600120458E0,7.567795692E-4,3.244038671E-4,-1.114137471E-3,1.385371968E-3
8.610077458E0,-1.835825387E-4,5.470439792E-4,-1.622001640E-3,1.721583279E-3
8.620034458E0,-2.622697502E-5,4.335381091E-4,-1.506344415E-3,1.567710638E-3
8.629991458E0,-9.956175927E-4,6.141001359E-4,-2.810760401E-3,3.044461759E-3
8.639948458E0,-1.243707025E-3,1.048203558E-5,-4.192039371E-3,4.372654928E-3
8.649904458E0,-1.172068063E-3,1.241993159E-4,-2.242872491E-3,2.533702040E-3
8.659861458E0,9.185943054E-4,5.742143840E-4,-6.278604269E-5,1.085117387E-3
8.669818458E0,2.890230389E-4,-1.149117015E-3,6.173849106E-4,1.336101927E-3
8.679775458E0,-6.797830574E-4,-8.744010702E-4,3.509148955E-4,1.161819048E-3
8.689732458E0,1.043282216E-3,2.382677048E-4,-1.550049521E-3,1.883577129E-3
8.699689458E0,2.412192989E-4,1.122587360E-3,-2.504209988E-3,2.754896876E-3
8.709646458E0,-2.027295996E-4,3.655068576E-5,-5.002254620E-3,5.006494435E-3
8.719603458E0,9.276476922E-4,5.456898361E-4,-3.910264000E-3,4.055671608E-3
8.729560458E0,-1.638574293E-3,-2.881797962E-3,-2.438601106E-3,4.115393124E-3
8.739517458E0,2.480165567E-3,-1.217999496E-3,-1.736423932E-3,3.263420305E-3
8.749474458E0,-8.871965110E-5,-1.327609643E-4,-1.488483511E-3,1.497023651E-3
8.759431458E0,7.872218266E-4,-7.343981415E-4,-2.338642254E-3,2.574549753E-3
8.769388458E0,2.383443061E-4,4.158206284E-4,-1.779112034E-3,1.842540212E-3
8.779345458E0,2.052798634E-3,3.931084648E-4,-4.706387408E-3,5.149621242E-3
8.789302458E0,3.100752598E-3,5.014995113E-4,-9.332206100E-4,3.276746731E-3
8.799259458E0,-3.102137707E-4,-9.099766612E-4,-2.057980746E-3,2.271469757E-3
8.809216458E0,-1.474281540E-3,-1.753932796E-3,-3.433503211E-3,4.127799730E-3
8.819173458E0,-9.191068821E-4,2.656445839E-3,-1.205111854E-3,3.058391168E-3
8.829130458E0,-8.197710849E-4,9.813169017E-4,-2.155594528E-3,2.506311086E-3
8.839087458E0,-1.562568825E-3,-1.251660287E-4,-9.190523997E-4,1.817125527E-3
8.849044458E0,5.061747506E-4,-2.762760967E-3,-2.435456961E-3,3.717594874E-3
8.859001458E0,2.426764695E-4,2.176323906E-4,-3.748746589E-3,3.762892068E-3
8.868958458E0,-7.288446650E-4,-6.114095449E-4,-4.424657673E-3,4.525774154E-3
8.878915458E0,1.146318740E-3,7.576504722E-4,-9.736139327E-4,1.684044234E-3
8.888872458E0,1.540249214E-4,-1.528141089E-3,-2.588820644E-3,3.010138068E-3
8.898829458E0,3.058743896E-4,7.349224761E-4,-2.352846786E-4,8.300777482E-4
8.908786458E0,1.282414887E-4,-7.726931944E-4,-3.288865089E-3,3.380848152E-3
8.918743458E0,2.667020308E-4,4.029329866E-4,-3.139164299E-3,3.176135617E-3
8.928700458E0,-9.972341359E-4,7.978798822E-4,-3.941575065E-3,4.143320193E-3
8.938657458E0,-1.002534758E-3,1.102259383E-3,-1.167427748E-3,1.892865351E-3
8.948614458E0,-3.351466730E-4,-4.394445568E-4,9.468561038E-4,1.096344514E-3
8.958571458E0,1.539295306E-3,1.598112285E-4,1.040885225E-3,1.865050058E-3
8.968528458E0,-3.390321508E-4,1.998723485E-3,5.351509899E-4,2.096717661E-3
8.978485458E0,-1.155468868E-3,-1.652432606E-3,-1.026044600E-3,2.262390183E-3
8.988442458E0,-8.963432629E-4,1.558007672E-3,-3.962711431E-3,4.351310267E-3
8.998399458E0,-9.143631905E-4,-1.496691257E-4,-5.116119981E-3,5.199340780E-3
9.008356458E0,-1.478420570E-3,3.390209749E-4,-2.656689845E-3,3.059193282E-3
9.018313458E0,-1.385611249E-3,-1.567238942E-3,-3.747273237E-3,4.291644573E-3
9.028270458E0,2.419247059E-3,1.620031893E-3,-9.544165805E-4,3.064012186E-3
9.038227458E0,2.758783521E-3,-8.030096069E-4,-1.247441396E-4,2.875981927E-3
9.048184458E0,-2.637579571E-3,6.910245866E-4,4.158774391E-4,2.758132524E-3
9.058141458E0,-7.841910701E-4,3.531454131E-4,-3.707297146E-3,3.805748211E-3
9.068098458E0,-5.112171639E-4,-1.689232886E-3,-6.267393008E-3,6.511149349E-3
9.078055458E0,4.877967294E-4,-1.238835976E-3,-4.572620615E-3,4.762511891E-3
9.088012458E0,-6.099583115E-4,5.907556042E-4,-2.994696610E-3,3.112755871E-3
9.097969458E0,-1.349117607E-3,1.311630942E-3,-6.055431440E-4,1.976657923E-3
9.107926458E0,9.348093299E-4,6.178775802E-4,1.495691016E-3,1.868885444E-3
9.117883458E0,1.481827814E-3,5.207397044E-5,1.092762686E-3,1.841916300E-3
9.127839458E0,-1.071344828E-3,2.943724394E-5,-1.898500137E-3,2.180125928E-3
9.137796458E0,5.871352041E-4,4.524355754E-4,-4.787532613E-3,4.844573688E-3
9.147753458E0,2.655346179E-3,-3.174841404E-4,-4.451440647E-3,5.192974422E-3
9.157710458E0,1.443208894E-3,1.497581601E-3,-2.628224902E-3,3.351591965E-3
9.167667458E0,1.166506438E-3,-8.041886613E-4,1.481299289E-3,2.049805906E-3
9.177624458E0,2.359006554E-3,4.440499470E-4,1.355071552E-3,2.756503435E-3
9.187581458E0,1.010115375E-3,6.624292582E-4,1.690098085E-3,2.077396719E-3
9.197538458E0,-3.108750097E-4,-4.995968193E-4,-2.526742406E-3,2.594352991E-3
9.207495458E0,1.398608088E-3,-1.287627034E-3,-2.225805074E-3,2.927165214E-3
9.217452458E0,1.993471524E-3,6.401557475E-4,-2.035658807E-3,2.920211443E-3
9.227409458E0,-6.451886147E-4,5.826316774E-4,-3.577896394E-3,3.681992752E-3
9.237366458E0,9.481349261E-4,-9.826011956E-4,-2.034049481E-3,2.449861678E-3
9.247323458E0,4.237584071E-4,-2.789944410E-4,-1.647761092E-4,5.334418918E-4
9.257280458E0,-7.499845233E-4,-1.639383845E-3,4.823431373E-4,1.866202314E-3
9.267237458E0,2.981103957E-3,4.112506285E-4,-2.592010424E-3,3.971728329E-3
9.277194458E0,1.662684837E-3,3.001172096E-3,-4.911079071E-3,5.990847391E-3
9.287151292E0,-9.773068596E-4,-6.039496511E-4,-3.684694879E-3,3.859645091E-3
9.297108292E0,1.563374884E-3,-5.193073303E-4,-3.299861215E-3,3.688211649E-3
9.307065292E0,1.256046118E-3,9.717959911E-4,-1.338962466E-4,1.593727550E-3
9.317022292E0,8.732657880E-4,5.672005937E-4,7.303040475E-4,1.271870139E-3
9.326979292E0,-8.506933227E-6,-7.076542825E-4,-3.709131852E-4,7.990141065E-4
9.336936292E0,3.626302583E-3,1.279595308E-3,-1.162150875E-3,4.017216603E-3
9.346893292E0,1.504828455E-3,9.746635333E-4,-3.893755376E-3,4.286701367E-3
9.356850292E0,7.720406866E-4,9.299293160E-4,-3.445530310E-3,3.651368849E-3
9.366807292E0,8.854913758E-4,1.855644397E-3,-1.424190588E-3,2.501165716E-3
9.376764292E0,-1.466309186E-3,-6.231060252E-4,-1.426856965E-3,2.138748360E-3
9.386721292E0,2.463697456E-4,1.728997566E-3,-2.759235911E-3,3.265503552E-3
9.396678292E0,5.332368892E-4,7.009031251E-4,-2.795469016E-3,2.930913474E-3
9.406635292E0,1.954033272E-3,-1.910059713E-3,-3.758734092E-3,4.647005069E-3
9.416592292E0,3.780912375E-3,-8.793426678E-4,-2.107574604E-3,4.417059274E-3
9.426549292E0,-1.020234311E-3,-1.554954797E-4,-2.435942180E-3,2.645537979E-3
9.436506292E0,5.864072591E-4,1.607053913E-3,-7.493561134E-4,1.867626927E-3
9.446463292E0,3.888007486E-4,-2.595558763E-4,-3.202660941E-3,3.236598890E-3
9.456420292E0,9.976206347E-4,1.015756279E-4,-2.736913040E-3,2.914834048E-3
9.466377292E0,-3.802194493E-3,-5.309255794E-4,1.692456193E-3,4.195589696E-3
9.476334292E0,1.621477539E-3,4.480024800E-4,-3.186986782E-3,3.603717577E-3
9.486291292E0,-2.995378338E-3,-4.747826606E-4,-2.209873870E-3,3.752499498E-3
9.496248292E0,-2.633792115E-3,3.272890113E-3,5.131848156E-4,4.232260537E-3
9.506205292E0,-4.518642090E-4,-3.475602716E-5,-2.270351164E-3,2.315142253E-3
9.516162292E0,4.165526479E-4,3.178985789E-3,5.478691310E-5,3.206628816E-3
9.526119292E0,-7.062361110E-4,-9.936559945E-5,5.882177502E-4,9.244690847E-4
9.536076292E0,4.883918446E-4,-2.016547136E-3,-2.505192533E-3,3.252841615E-3
9.546033292E0,4.146222491E-4,2.077530138E-3,-3.849822097E-3,4.394220438E-3
9.555990292E0,3.138915636E-4,1.946762204E-4,-4.659231752E-3,4.673849298E-3
9.565947292E0,-2.521043411E-3,8.727163076E-4,-6.028629839E-3,6.592546653E-3
9.575904292E0,-6.364514120E-4,-2.218084410E-4,-1.256175339E-3,1.425568612E-3
9.585861292E0,1.617115573E-3,-4.817079753E-5,1.392072067E-3,2.134302659E-3
9.595818292E0,1.263307757E-3,1.792987809E-3,-1.054180786E-3,2.433526022E-3
9.605775292E0,-4.304626491E-4,1.517883502E-3,-3.321862780E-3,3.677504690E-3
9.615732292E0,9.561646730E-4,-6.968807429E-4,-3.399318084E-3,3.599341202E-3
9.625689292E0,-4.230865743E-4,-1.123252325E-3,-4.502931610E-3,4.660159988E-3
9.635646292E0,-1.143427333E-3,1.650749706E-3,-2.153150737E-3,2.944224644E-3
9.645603292E0,3.633891465E-4,-9.458325803E-4,-1.477506943E-3,1.791557342E-3
9.655560292E0,6.509282393E-4,-2.518231049E-4,-1.685526222E-4,7.180058742E-4
9.665517292E0,7.518620696E-4,-1.081664115E-3,2.013641410E-3,2.406251349E-3
9.675474292E0,2.106292406E-3,1.611378975E-3,-1.815557480E-4,2.658189683E-3
9.685430292E0,1.905223820E-3,-4.309993237E-4,-1.983983442E-3,2.784210574E-3
9.695387292E0,1.567208907E-3,2.639423124E-3,-4.168380052E-3,5.176687207E-3
9.705344292E0,4.984823754E-4,1.440201886E-3,-2.133193426E-3,2.621675102E-3
9.715301292E0,-2.728921827E-4,-7.394216955E-4,-2.459769137E-3,2.582959310E-3
9.725258292E0,5.680718459E-5,-1.871530898E-3,1.741633750E-3,2.557174824E-3
9.735215292E0,3.533151466E-4,2.734301612E-3,9.265793487E-4,2.908571159E-3
9.745172292E0,7.671703352E-4,9.523807094E-4,-6.795730442E-4,1.399070713E-3
9.755129292E0,-3.373995423E-3,9.168339893E-4,-3.237755969E-3,4.765238021E-3
9.765086292E0,-6.847351324E-4,-4.208711907E-4,-4.723267630E-3,4.791163936E-3
9.775043292E0,-1.857338473E-3,5.469452590E-4,-3.844781779E-3,4.304788293E-3
9.785000292E0,-2.324456815E-3,2.044973895E-3,-2.260785550E-4,3.104211531E-3
9.794957292E0,-2.140010241E-3,3.015739843E-3,1.541221514E-3,4.006206983E-3
9.804914292E0,1.643009949E-3,1.685490832E-3,-1.178398728E-3,2.632296450E-3
9.814871292E0,-8.586072363E-4,1.453810371E-3,-2.520393580E-3,3.033670183E-3
9.824828292E0,1.208272181E-3,-7.526185364E-4,-3.141975030E-3,3.449400443E-3
9.834785292E0,-9.096672293E-4,-7.352251559E-4,-1.979477704E-3,2.299213447E-3
9.844742292E0,1.484781038E-3,1.993183047E-3,-5.525555462E-4,2.546108996E-3
9.854699292E0,1.776821446E-4,2.403538674E-4,-7.722424343E-4,8.280696248E-4
9.864656292E0,1.114848419E-3,5.351649597E-4,2.409968525E-3,2.708733435E-3
9.874613292E0,5.029655294E-4,-2.091433853E-4,2.499426715E-3,2.558094835E-3
9.884570292E0,1.396988751E-3,-1.150570810E-3,-2.411175519E-3,3.014823070E-3
9.894527292E0,-7.309862413E-4,-3.027990460E-4,-2.195774578E-3,2.333978180E-3
9.904484292E0,1.024569501E-3,-9.957533330E-4,-3.088999540E-3,3.403407927E-3
9.914441292E0,-5.762088113E-4,-7.707318291E-4,-4.220522940E-3,4.328840264E-3
9.924398292E0,-2.479303861E-3,-1.692451537E-3,-2.244724892E-3,3.748350261E-3
9.934355292E0,2.887079027E-4,-2.090698108E-4,-1.319810748E-3,1.367100161E-3
9.944312292E0,1.664687879E-4,1.440653577E-4,-3.095339984E-3,3.103159084E-3
9.954269292E0,2.583100926E-3,1.013568603E-3,-1.214607619E-3,3.029026803E-3
9.964226292E0,-3.716764040E-4,-9.081689641E-4,-3.288397565E-4,1.034915360E-3
9.974183292E0,3.792319912E-4,1.874728128E-3,-2.113728784E-3,2.850661648E-3
9.984140292E0,-2.950802445E-4,-6.565079093E-5,-6.930321455E-3,6.936911261E-3
9.994097292E0,2.518722322E-4,-3.109220415E-4,-3.947049379E-3,3.967280043E-3
1.000405429E1,-7.756077684E-5,2.033337951E-4,-5.326103419E-4,5.753556141E-4
1.001401129E1,-1.449272269E-3,-9.273020551E-4,-1.019656658E-3,1.999994728E-3
1.002396829E1,1.848435495E-4,-2.398432232E-3,7.303804159E-5,2.406653042E-3
1.003392529E1,1.771384850E-3,8.282652125E-4,-1.198394224E-3,2.293463814E-3
1.004388229E1,7.061205106E-4,-2.082835883E-3,-3.046894446E-3,3.757709044E-3
1.005383929E1,-2.191000618E-3,-8.698431775E-4,-4.727069288E-3,5.282262292E-3
1.006379629E1,-1.600844320E-3,9.320518002E-4,-4.749441519E-3,5.097903279E-3
1.007375329E1,1.655022148E-3,1.028913073E-3,-2.317992970E-3,3.028341433E-3
1.008371029E1,1.744504436E-3,-3.022819757E-3,-1.141408458E-3,3.671995136E-3
1.009366729E1,-9.752328042E-4,1.409448683E-3,6.301719695E-4,1.826127412E-3
1.010362429E1,3.542171326E-4,-2.193274908E-3,-2.124601975E-3,3.074062158E-3
1.011358129E1,1.431006705E-3,2.935558558E-3,-1.976314932E-3,3.817211672E-3
1.012353829E1,-4.025795497E-4,-2.289563417E-3,-4.979295656E-3,5.495230311E-3
1.013349529E1,-2.116792370E-3,7.034940645E-4,-6.338007748E-3,6.719081489E-3
1.014345229E1,9.983070195E-4,-2.058736980E-3,-2.002913505E-3,3.040834978E-3
1.015340929E1,9.323086124E-4,-2.375049517E-4,-1.076416112E-3,1.443703431E-3
1.016336629E1,-3.209749702E-4,-1.080928370E-3,2.442418598E-3,2.690137483E-3
1.017332329E1,2.512333449E-3,6.297631189E-4,2.538816072E-3,3.626845460E-3
1.018328029E1,-1.370555488E-3,-7.084757090E-4,-3.071664833E-3,3.437366000E-3
1.019323729E1,-1.397272339E-3,2.660632133E-3,-7.030321285E-4,3.086355053E-3
1.020319429E1,9.710767772E-4,-2.643852495E-3,-3.916135058E-3,4.823801396E-3
1.021315129E1,-4.192420747E-4,-8.259443566E-4,-4.636529833E-3,4.728145185E-3
1.022310829E1,-6.277675275E-4,-1.219026744E-3,-3.256713971E-4,1.409319031E-3
1.023306529E1,4.300372675E-3,2.779961564E-3,1.167583279E-3,5.252108353E-3
1.024302229E1,-1.652591163E-3,4.470320418E-4,3.686351702E-4,1.751224454E-3
1.025297929E1,-1.196447294E-3,-6.268825382E-4,-9.192926809E-4,1.633880925E-3
1.026293629E1,-7.437097374E-4,6.884522736E-4,-3.201621585E-3,3.358191698E-3
1.027289329E1,1.084226184E-3,-1.804473810E-3,-2.876956947E-3,3.564905809E-3
1.028285017E1,3.265568521E-4,-6.039207801E-4,-3.860995173E-3,3.921561349E-3
1.029280717E1,1.272154506E-3,8.886782452E-4,-3.426115960E-3,3.761169590E-3
1.030276417E1,3.733376507E-4,5.033183843E-4,-8.487086743E-4,1.054996119E-3
1.031272117E1,9.404728189E-6,-5.280319601E-4,-1.018111594E-3,1.146933920E-3
1.032267817E1,2.642692998E-4,1.215133816E-4,9.491657838E-4,9.927333227E-4
1.033263517E1,7.481756620E-5,2.108272165E-4,-9.518768638E-4,9.778115091E-4
1.034259217E1,2.721467055E-3,7.780808955E-4,-3.874430433E-3,4.798229256E-3
1.035254917E1,-1.915134490E-4,1.981314272E-4,-1.532245427E-3,1.556826745E-3
1.036250617E1,-5.118916743E-4,2.412816510E-3,-3.345858306E-3,4.156739635E-3
1.037246317E1,-1.413094113E-3,1.789515838E-3,-3.361059353E-3,4.061517189E-3
1.038241917E1,3.270154120E-4,1.079516485E-3,2.994555980E-4,1.167034094E-3
1.039237617E1,2.754037967E-3,-7.414538413E-5,-2.500602975E-3,3.720650199E-3
1.040233417E1,-1.008706167E-4,-8.368743584E-4,-2.302995883E-3,2.452411794E-3
1.041229017E1,3.021894023E-3,1.113654114E-3,-1.355718821E-3,3.494287122E-3
1.042224717E1,-2.247170312E-3,4.183026031E-4,-3.800234757E-3,4.434696798E-3
1.043220417E1,-7.186916191E-4,7.560607046E-4,-2.674794756E-3,2.871005472E-3
1.044216117E1,2.768451348E-3,2.718277276E-3,-1.863063313E-3,4.303993392E-3
1.045211817E1,2.695448231E-3,2.387259156E-5,-2.217969857E-3,3.490759424E-3
1.046207517E1,-3.032709938E-4,-1.905853860E-3,5.698269233E-4,2.012201519E-3
1.047203217E1,-1.222897321E-3,2.634199336E-4,-3.985103220E-3,4.176830807E-3
1.048198917E1,9.856621036E-4,-1.774963923E-3,-2.333677374E-3,3.093230802E-3
1.049194617E1,3.197291633E-3,3.976225853E-4,-3.949772567E-3,5.097203237E-3
1.050190317E1,1.351889223E-4,-3.794878721E-4,-2.704212442E-3,2.734054137E-3
1.051186017E1,1.289649168E-3,6.626304239E-4,-1.195820048E-3,1.879430670E-3
1.052181717E1,4.001534544E-4,1.238724217E-4,-7.824981585E-4,8.875643819E-4
1.053177417E1,6.963426713E-4,6.638802588E-4,4.076836631E-4,1.044909605E-3
1.054173117E1,1.461735112E-3,5.277935416E-4,-4.740888253E-4,1.624806380E-3
1.055168817E1,1.630711136E-3,1.826594584E-3,-2.621039748E-4,2.462593161E-3
1.056164517E1,2.002754714E-3,-1.985720359E-3,3.187311813E-4,2.838256746E-3
1.057160217E1,-2.771732397E-4,9.836433455E-4,-3.591572866E-3,3.734136431E-3
1.058155917E1,4.405487562E-4,-5.545979366E-4,-1.624828205E-3,1.772492249E-3
1.059151617E1,8.235758869E-4,-1.163479872E-3,-3.247451037E-3,3.546533645E-3
1.060147317E1,7.854927098E-4,-8.758585900E-4,-1.681778580E-3,2.052439100E-3
1.061143017E1,-4.852667917E-4,6.185779348E-4,6.768591702E-4,1.037429929E-3
1.062138717E1,1.324351178E-3,-2.205837518E-4,3.753900528E-4,1.394087848E-3
1.063134417E1,2.800305374E-3,7.199291140E-4,9.347815067E-4,3.038720879E-3
1.064130117E1,4.058573395E-4,-1.560268924E-3,-1.536099240E-3,2.226827378E-3
1.065125817E1,2.243049210E-3,-2.139973454E-3,-6.702337414E-4,3.171745483E-3
1.066121517E1,-8.574028034E-4,1.954103820E-3,-2.648696303E-3,3.401360524E-3
1.067117217E1,1.650427934E-3,-9.425850585E-4,-3.153016791E-3,3.681561332E-3
1.068112917E1,4.011390265E-4,-1.281900331E-4,-4.794700071E-4,6.381509938E-4
1.069108617E1,-3.672507592E-4,-1.074965112E-3,-1.210662536E-3,1.660158694E-3
1.070104317E1,-1.792316325E-4,-5.524046719E-5,-1.884176396E-3,1.893487834E-3
1.071100017E1,1.829190180E-3,-6.194692105E-5,-1.817253418E-3,2.579182840E-3
1.072095717E1,3.956105793E-4,-2.068234608E-4,-1.898746006E-3,1.950517898E-3
1.073091417E1,1.881913398E-3,-2.254365012E-3,-1.953017898E-3,3.526760349E-3
1.074087117E1,-3.372987267E-4,4.127994180E-5,-1.302940771E-3,1.346524830E-3
1.075082817E1,1.245864085E-3,-5.798414350E-6,2.917749807E-4,1.279587269E-3
1.076078517E1,4.085662076E-4,-7.533477619E-4,-6.328746676E-4,1.065358879E-3
1.077074217E1,-1.883012941E-3,2.136491239E-4,-2.868872136E-3,3.438286058E-3
1.078069917E1,-9.745359421E-6,1.551087946E-3,-2.833452076E-3,3.230235201E-3
1.079065617E1,3.361294512E-4,-4.393355921E-4,-3.015022725E-3,3.065348398E-3
1.080061317E1,4.503789824E-4,-1.271041110E-3,-4.139941186E-3,4.354021102E-3
1.081057017E1,9.538911982E-4,-2.425201237E-4,-1.275450923E-3,1.611055395E-3
1.082052717E1,-3.268229775E-4,-1.756744459E-4,1.217267476E-3,1.272562328E-3
1.083048417E1,-1.176403603E-3,7.100710645E-4,-3.345841542E-4,1.414239339E-3
1.084044117E1,-2.554825041E-4,-6.430810317E-4,-2.883494832E-3,2.965361187E-3
1.085039817E1,3.252151655E-4,-8.609024808E-4,-6.748095155E-3,6.810558435E-3
1.086035517E1,-8.517783135E-5,-1.071025617E-3,-3.088377416E-4,1.117914078E-3
1.087031217E1,2.753461013E-3,-1.840598881E-3,6.893463433E-4,3.382979481E-3
1.088026917E1,1.448512077E-3,3.216220066E-4,3.043847159E-3,3.386241793E-3
1.089022617E1,1.744509907E-3,3.507854417E-4,4.476280883E-4,1.834866793E-3
1.090018317E1,1.708557247E-3,1.006722450E-3,-3.041379154E-3,3.630791252E-3
1.091014017E1,2.052587224E-3,6.507746875E-4,-3.614558838E-3,4.207333788E-3
1.092009717E1,-3.932600375E-4,-1.282002777E-4,-4.767707549E-3,4.785616370E-3
1.093005417E1,-1.323002623E-3,4.558647051E-4,-3.135265782E-3,3.433371535E-3
1.094001117E1,1.485034358E-3,1.962063834E-4,3.790417686E-4,1.545152630E-3
1.094996817E1,3.521461738E-3,6.618043408E-4,1.769647934E-3,3.996289725E-3
1.095992517E1,6.934510311E-4,-2.500629053E-4,1.221036538E-3,1.426301517E-3
1.096988217E1,5.216269055E-4,-1.446986571E-3,2.415804192E-4,1.556992570E-3
1.097983917E1,9.671737207E-4,1.309365034E-4,-5.673034117E-3,5.756377807E-3
1.098979617E1,3.158372128E-4,1.186589710E-3,-3.684969619E-3,3.884166497E-3
1.099975317E1,-2.099916106E-3,-5.173003301E-4,-1.239389181E-3,2.492655778E-3
1.100971017E1,6.606838433E-4,1.543687657E-3,1.523040235E-3,2.266964111E-3
1.101966717E1,1.042581163E-3,-1.700567082E-4,2.175588161E-4,1.078529835E-3
1.102962417E1,-6.706221029E-5,4.130592570E-4,-5.527092144E-4,6.932551951E-4
1.103958117E1,-1.774681034E-3,5.888277665E-4,-2.739164047E-3,3.316508795E-3
1.104953817E1,-8.843804244E-4,-3.462750465E-5,-5.901799537E-3,5.967794029E-3
1.105949517E1,-2.790438011E-4,-2.232533880E-3,-3.695369698E-3,4.326410772E-3
1.106945217E1,9.727505967E-4,5.910014734E-4,-1.756190322E-3,2.092780665E-3
1.107940917E1,-2.335428260E-3,7.310835645E-4,-2.088285983E-3,3.217086676E-3
1.108936617E1,1.068976591E-3,1.013964415E-3,1.194448210E-3,1.896718565E-3
1.109932317E1,1.870854408E-3,-2.393191680E-4,-2.681250684E-3,3.278181678E-3
1.110928017E1,-2.526203170E-4,9.647700936E-4,-3.666512668E-3,3.799725451E-3
1.111923717E1,-1.469152281E-3,8.241552860E-4,-4.588499665E-3,4.887941237E-3
1.112919417E1,1.229603775E-3,-7.397485897E-4,-5.807206035E-3,5.981872228E-3
1.113915117E1,-5.254193675E-4,-1.295817085E-3,-3.255365416E-3,3.542966472E-3
1.114910817E1,-1.022964716E-5,2.312067896E-3,4.371069372E-5,2.312503671E-3
1.115906517E1,1.794061973E-3,-1.935673878E-3,-1.480150037E-3,3.025943795E-3
1.116902217E1,3.990218975E-4,-1.188598573E-3,-4.569487646E-4,1.334461396E-3
1.117897917E1,-4.093232565E-5,-9.619630873E-4,-1.406366006E-3,1.704380761E-3
1.118893617E1,-6.128256209E-4,5.842931569E-4,-2.274599858E-3,2.427088430E-3
1.119889317E1,6.505778292E-4,1.760079525E-3,-2.278594300E-3,2.951800033E-3
1.120885017E1,2.380765276E-3,-3.453763202E-4,5.253506824E-4,2.462381254E-3
1.121880717E1,-9.074397385E-4,-1.010367647E-3,-5.633495748E-4,1.470255898E-3
1.122876417E1,1.435010578E-3,-1.355232671E-4,1.236039214E-3,1.898792999E-3
1.123872117E1,1.033672248E-3,-3.171507269E-4,-3.493409604E-4,1.136266697E-3
1.124867817E1,-1.648379490E-3,-4.189591855E-4,-1.436621882E-3,2.226334246E-3
1.125863517E1,5.761588691E-4,-1.957734115E-3,-3.488054499E-3,4.041188699E-3
1.126859217E1,1.990940189E-3,2.844605595E-3,-7.584178820E-4,3.553986707E-3
1.127854917E1,-2.479793038E-4,-2.162936144E-3,-7.072845474E-4,2.289112913E-3
1.128850633E1,-1.287877792E-3,8.660126477E-4,1.561240293E-3,2.201381014E-3
1.129846333E1,6.801983109E-4,-5.987258628E-4,1.612372696E-3,1.849564304E-3
1.130842033E1,6.941686152E-4,5.873180926E-4,-3.313868307E-3,3.436355011E-3
1.131837733E1,-1.775647048E-3,4.648128524E-4,-2.813992091E-3,3.359691193E-3
1.132833433E1,2.115535550E-3,-4.719831049E-4,-5.407601595E-3,5.825840173E-3
1.133829133E1,-9.092828259E-4,-1.211808994E-3,-1.235228032E-3,1.954754355E-3
1.134824833E1,-3.147055395E-4,6.416495889E-4,-7.693152875E-4,1.050047515E-3
1.135820533E1,2.347045811E-4,1.280541532E-3,-7.104594260E-4,1.483113432E-3
1.136816233E1,-1.333418535E-3,7.643243298E-4,4.052883014E-4,1.589482708E-3
1.137811933E1,1.567296451E-3,1.155809499E-3,1.723286696E-3,2.600390509E-3
1.138807633E1,-2.260800917E-3,1.044399105E-3,-1.522848383E-3,2.919085040E-3
1.139803333E1,1.005299855E-3,-9.223455563E-4,-2.297562547E-3,2.672104560E-3
1.140799033E1,2.656913828E-3,-3.289226443E-4,-1.891062595E-3,3.277727709E-3
1.141794733E1,1.024662401E-3,-2.796538174E-4,7.340153679E-4,1.291091729E-3
1.142790433E1,-1.423308626E-3,3.625741228E-4,-2.313069999E-4,1.486865955E-3
1.143786133E1,-1.067243982E-3,-1.940261573E-3,-1.804169267E-3,2.856335315E-3
1.144781833E1,-1.207427122E-3,5.339207128E-4,-3.261476755E-3,3.518548309E-3
1.145777533E1,-2.425638959E-4,7.570935413E-4,-3.641510382E-3,3.727281280E-3
1.146773233E1,3.075284883E-3,1.317765564E-4,-4.029638134E-3,5.070771703E-3
1.147768933E1,1.089365804E-3,-1.001398079E-3,-1.842117868E-3,2.362819123E-3
1.148764633E1,-3.861121368E-4,1.262356527E-3,4.507098347E-4,1.394907143E-3
1.149760333E1,-8.231368847E-4,-3.294153139E-4,1.854994334E-3,2.055984621E-3
1.150756033E1,-4.134499468E-4,5.018245429E-4,-6.817849353E-4,9.421249537E-4
1.151751733E1,8.089409675E-4,-2.058005892E-3,-7.739299908E-4,2.342806302E-3
1.152747433E1,1.626131125E-4,1.206146553E-4,-2.054204233E-3,2.064157443E-3
1.153743133E1,-1.548201544E-3,-3.353212029E-3,-3.079520538E-3,4.808784220E-3
1.154738833E1,1.758500002E-4,4.270942882E-4,-1.327048056E-3,1.405129637E-3
1.155734533E1,-1.483032946E-3,1.196214929E-3,-5.507366732E-4,1.983337530E-3
1.156730233E1,-3.711879253E-5,1.503017731E-3,-2.219867893E-3,2.681091861E-3
1.157725933E1,2.263586037E-3,8.115638047E-5,1.730131917E-3,2.850221843E-3
1.158721633E1,-8.657379076E-4,-5.228044465E-4,3.517325968E-5,1.011960361E-3
1.159717333E1,1.540161902E-3,1.829331741E-4,-2.576056868E-3,3.006930697E-3
1.160713033E1,-1.111891586E-3,8.163964376E-4,-1.930902712E-3,2.373013132E-3
1.161708733E1,-7.230699994E-4,-2.241977490E-3,-3.057153895E-3,3.859466703E-3
1.162704433E1,-2.695349744E-3,1.761988737E-3,-1.314312220E-3,3.478064283E-3
1.163700133E1,-1.157640480E-3,-2.606128342E-3,2.798559144E-4,2.865371834E-3
1.164695833E1,-1.139539294E-3,1.937274821E-3,5.928510800E-4,2.324447448E-3
1.165691533E1,2.608593553E-3,-9.778216481E-4,-1.779226586E-3,3.305532143E-3
1.166687233E1,1.864008140E-3,-1.958004199E-3,-3.002294339E-3,4.040059169E-3
1.167682933E1,1.487969770E-3,-9.681070223E-4,-5.047814921E-4,1.845559427E-3
1.168678633E1,1.775766956E-3,-2.189911902E-4,-3.037525341E-3,3.525317804E-3
1.169674333E1,-8.293371648E-4,7.730368525E-4,-1.720060594E-3,2.060095764E-3
1.170670033E1,-5.494502839E-4,1.571904868E-4,-1.183848828E-3,1.314573129E-3
1.171665733E1,-1.805929467E-3,1.782250591E-3,2.654299140E-3,3.671934413E-3
1.172661433E1,-5.423666444E-4,1.905057579E-4,-3.546457738E-4,6.754462566E-4
1.173657133E1,3.234270262E-4,-3.122985363E-4,-4.638349637E-4,6.459708125E-4
1.174652833E1,7.660962874E-4,7.770135999E-4,7.564555854E-4,1.327734427E-3
1.175648533E1,-2.245939104E-3,-1.259772107E-3,1.045675017E-3,2.779335255E-3
1.176644233E1,4.311334342E-3,1.369643956E-3,9.378548712E-4,4.619859320E-3
1.177639933E1,4.385655047E-4,-1.646385528E-3,-2.904554829E-3,3.367397179E-3
1.178635633E1,2.605105750E-3,1.554762013E-3,-2.889009193E-3,4.189300061E-3
1.179631333E1,1.382448478E-3,-2.369377762E-5,-2.932250500E-4,1.413402320E-3
1.180627033E1,-3.909193911E-4,1.582379453E-3,-3.067953512E-4,1.658573511E-3
1.181622733E1,5.987114273E-4,-1.449463889E-4,-4.628561437E-4,7.705197198E-4
1.182618433E1,-1.023911638E-3,9.549669921E-4,-6.827311590E-4,1.557715903E-3
1.183614133E1,-1.346953213E-3,9.325966239E-4,-2.173302695E-3,2.721628929E-3
1.184609833E1,2.590590157E-5,-4.939921200E-5,-4.861796275E-3,4.862116249E-3
1.185605533E1,3.151251003E-4,-3.608409315E-5,-2.766953781E-3,2.785074347E-3
1.186601233E1,1.372103230E-3,3.748983145E-4,-3.038022667E-3,3.354519004E-3
1.187596933E1,4.149631131E-4,-1.228857785E-3,-2.828698605E-3,3.111883938E-3
1.188592633E1,-2.277200343E-3,-6.320606917E-4,1.773969270E-3,2.955014229E-3
1.189588333E1,-9.160586633E-4,3.020198084E-3,1.061573625E-3,3.329819590E-3
1.190584033E1,7.716821274E-4,4.654154181E-4,-9.622238576E-5,9.062911037E-4
1.191579733E1,-2.688562963E-3,1.255953684E-4,-1.376936212E-3,3.023259555E-3
1.192575433E1,3.605046310E-3,-2.664467320E-4,-1.208318397E-3,3.811480828E-3
1.193571133E1,1.041753800E-3,1.957733184E-5,-1.553197391E-3,1.870309169E-3
1.194566833E1,8.335603634E-4,-7.962482050E-4,8.492590860E-4,1.431808325E-3
1.195562533E1,-2.385668922E-3,4.056356847E-4,-1.257567666E-3,2.727165736E-3
1.196558233E1,2.076663310E-3,-1.966991462E-3,-2.360767685E-3,3.708747764E-3
1.197553933E1,9.141934570E-4,-5.611088127E-4,-2.085129730E-3,2.344857942E-3
1.198549633E1,8.151732618E-4,2.630425617E-3,-2.392746508E-3,3.648134075E-3
1.199545333E1,-1.443636138E-4,3.816531971E-4,-3.913944587E-3,3.935157207E-3
1.200541033E1,3.674207255E-5,-1.289788634E-5,-1.940832473E-3,1.941223074E-3
1.201536733E1,4.977353383E-4,3.040181473E-4,1.305561513E-3,1.429915510E-3
1.202532433E1,-4.594367929E-4,1.617660746E-4,-1.646774821E-3,1.717299549E-3
1.203528133E1,3.704041010E-4,1.999613829E-3,-5.823094398E-4,2.115357877E-3
1.204523833E1,-3.587822430E-4,2.917956561E-3,1.616695896E-3,3.355130520E-3
1.205519533E1,6.327126175E-4,-8.986201137E-4,-4.733530805E-4,1.196622958E-3
1.206515233E1,2.825320233E-3,6.350036711E-5,1.358368434E-3,3.135543257E-3
1.207510933E1,1.532888273E-3,-3.668665886E-4,-7.947972044E-4,1.765230905E-3
1.208506633E1,1.334056724E-3,-7.240995765E-4,-3.057328984E-3,3.413398315E-3
1.209502333E1,2.023815410E-3,-1.267651096E-3,-1.830943860E-3,3.009173231E-3
1.210498033E1,-1.542863902E-4,3.302525729E-4,-1.254261471E-3,1.306155768E-3
1.211493733E1,-4.616798833E-6,-1.600006595E-3,1.041649841E-3,1.909208425E-3
1.212489433E1,1.836891519E-3,6.298599765E-4,1.365468837E-3,2.373899574E-3
1.213485133E1,1.533291186E-3,8.923839778E-5,-1.004744321E-3,1.835335529E-3
1.214480833E1,1.347611193E-3,-2.345507964E-3,-7.150042802E-4,2.797980461E-3
1.215476533E1,-1.464154338E-3,-5.619889125E-4,-3.330495209E-3,3.681273937E-3
1.216472233E1,9.977204027E-4,-2.031431533E-3,-4.584657960E-3,5.112851326E-3
1.217467933E1,-9.477187414E-4,2.413103357E-4,-2.447205596E-3,2.635377908E-3
1.218463633E1,-1.435527578E-3,-1.006025821E-3,-1.722294837E-5,1.753032803E-3
1.219459333E1,-3.894378897E-4,-1.180995256E-3,8.179442957E-4,1.488436944E-3
1.220455033E1,3.009526525E-3,-1.002064906E-3,1.058167778E-3,3.343815639E-3
1.221450733E1,-8.826237172E-5,-1.173572615E-3,-5.322722718E-4,1.291656572E-3
1.222446433E1,-1.667205710E-3,1.393305138E-4,1.568011940E-4,1.680349513E-3
1.223442133E1,-2.106626984E-3,4.123048857E-4,-1.232037321E-3,2.475033036E-3
1.224437833E1,-1.112479251E-3,1.435820013E-5,-7.656132802E-4,1.350548013E-3
1.225433533E1,-1.353761647E-3,-6.130822003E-4,2.462670207E-3,2.876331853E-3
1.226429233E1,5.116222892E-4,1.046580262E-3,-1.510988921E-3,1.907924299E-3
1.227424933E1,2.625106834E-3,-1.768114977E-3,-8.457312360E-4,3.276076584E-3
1.228420629E1,-5.100388080E-4,-1.130360179E-3,-1.299490221E-3,1.796254034E-3
1.229416329E1,-7.481256034E-4,9.628850967E-4,-1.876330934E-3,2.237734882E-3
1.230412029E1,6.733358605E-4,1.821368933E-3,-5.727605894E-4,2.024554436E-3
1.231407729E1,-1.328031067E-4,-6.878608838E-4,-1.846816391E-3,1.975226580E-3
1.232403429E1,-3.861866426E-4,-2.157310024E-3,-1.504213549E-3,2.658154447E-3
1.233399129E1,-2.347338479E-3,7.311552763E-4,-1.742833294E-3,3.013644615E-3
1.234394829E1,-6.636830512E-4,-1.681819558E-4,-1.148539595E-3,1.337125112E-3
1.235390529E1,-2.538548317E-3,1.910681836E-3,-7.416084409E-4,3.262654704E-3
1.236386229E1,1.001535566E-3,2.591256984E-3,-5.050785840E-4,2.823613044E-3
1.237381929E1,-1.261618687E-3,2.014416270E-3,-6.283828989E-4,2.458540154E-3
1.238377629E1,-1.207328634E-3,2.166168764E-3,-1.354580745E-3,2.825742122E-3
1.239373329E1,-3.126668744E-3,-2.554550767E-3,-4.250235856E-3,5.862277022E-3
1.240369029E1,-2.457187977E-3,1.675299369E-3,-1.298373565E-3,3.245023057E-3
1.241364729E1,1.368975500E-3,-2.025162801E-3,-4.917019978E-4,2.493421173E-3
1.242360429E1,-6.334350910E-4,-2.885479480E-4,1.864110120E-3,1.989825739E-3
1.243356129E1,4.795000423E-4,8.925637230E-4,2.161469311E-4,1.036006653E-3
1.244351829E1,5.097421817E-4,-6.854012609E-4,-2.289259806E-3,2.443424327E-3
1.245347529E1,-1.285494771E-3,-1.711444929E-4,3.496669233E-4,1.343150848E-3
1.246343229E1,1.444754889E-4,8.971318603E-4,-5.865832791E-4,1.081572321E-3
1.247338929E1,-2.792333253E-4,-3.295205534E-4,4.001175985E-4,5.887691718E-4
1.248334629E1,-1.630957937E-3,-1.147342846E-4,6.298311055E-4,1.752105867E-3
1.249330329E1,2.545601455E-4,1.925513148E-3,-1.142769121E-3,2.253513482E-3
1.250326029E1,-2.112081973E-3,-4.976550117E-4,-1.329566352E-3,2.544857060E-3
1.251321729E1,-2.888820600E-4,-1.061712392E-3,4.227934405E-4,1.178745240E-3
1.252317429E1,9.573152056E-4,-1.415429637E-3,-2.299211919E-4,1.724168557E-3
1.253313129E1,-8.813312743E-4,1.095887274E-5,-2.013173886E-3,2.197665581E-3
1.254308829E1,6.269573933E-4,2.178319730E-3,-1.731015742E-3,2.852116393E-3
1.255304529E1,6.714322371E-4,1.505072229E-3,-2.625570633E-3,3.099949162E-3
1.256300229E1,8.989772759E-4,1.486167312E-4,-1.878135838E-3,2.087496419E-3
1.257295929E1,1.430011587E-3,-1.952617429E-3,-4.783784971E-4,2.467082072E-3
1.258291629E1,7.468028925E-4,-1.523466781E-4,1.499875449E-3,1.682423975E-3
1.259287329E1,-2.255644882E-3,-1.237051561E-3,4.430950619E-3,5.123627015E-3
1.260283029E1,7.522782544E-4,-1.959455200E-3,2.146986313E-3,3.002488548E-3
1.261278729E1,3.226354951E-3,-1.074752770E-3,-4.173712805E-4,3.426172584E-3
1.262274429E1,-1.733887475E-4,3.802413121E-4,-3.609714098E-3,3.633824842E-3
1.263270129E1,-7.218867540E-5,-7.204432040E-4,-2.934335731E-3,3.022346075E-3
1.264265829E1,1.473454759E-4,2.205697820E-4,-2.533297054E-3,2.547146577E-3
1.265261529E1,7.177945226E-4,-5.442900583E-4,-1.093059778E-3,1.416425191E-3
1.266257229E1,2.015421633E-3,1.599192619E-4,2.316404134E-3,3.074609998E-3
1.267252929E1,-2.097031800E-3,1.729053445E-3,1.010671258E-5,2.717953335E-3
1.268248629E1,-2.820647787E-4,2.423226833E-3,-1.287920401E-3,2.758682255E-3
1.269244329E1,-8.126231842E-5,-8.308896795E-4,-2.267697826E-3,2.416492221E-3
1.270240029E1,-9.131315164E-5,4.330407828E-4,-5.377004854E-3,5.395187079E-3
1.271235729E1,2.579837339E-3,-1.410133205E-3,-3.064314835E-3,4.246653007E-3
1.272231429E1,-5.145743489E-4,1.181711443E-3,1.306210645E-3,1.835051755E-3
1.273227129E1,-7.183062844E-4,-4.374906421E-4,2.314483747E-3,2.462559034E-3
1.274222829E1,-1.628544880E-3,2.307083458E-3,2.000802197E-3,3.460925012E-3
1.275218529E1,1.518778852E-3,-1.251698472E-3,-2.189427614E-4,1.980245994E-3
1.276214229E1,-1.384396106E-3,8.909581229E-4,-1.111634076E-3,1.986476598E-3
1.277209929E1,-5.132760853E-4,1.906688325E-3,-1.125482842E-3,2.272800989E-3
1.278205629E1,1.291842898E-3,-1.547369175E-3,-3.493250348E-3,4.033113863E-3
1.279201329E1,2.966194879E-4,-9.231241420E-4,-2.649026923E-3,2.820901441E-3
1.280197029E1,1.359393355E-3,-1.512159593E-3,-2.317762002E-3,3.083277092E-3
1.281192729E1,2.272324869E-3,1.900681295E-3,2.552626655E-3,3.910492620E-3
1.282188429E1,6.354211364E-4,2.069336362E-3,8.360352367E-4,2.320531818E-3
1.283184129E1,-4.418275785E-4,2.589188516E-4,2.466775477E-4,5.684192057E-4
1.284179829E1,-2.015507780E-4,-1.944735646E-3,1.666061580E-4,1.962237769E-3
1.285175529E1,4.745461047E-5,-2.317903563E-4,-2.071514726E-3,2.084982486E-3
1.286171229E1,8.437681245E-4,5.854098126E-4,3.633638844E-4,1.089349627E-3
1.287166929E1,2.484009136E-3,3.260178491E-4,-1.225478016E-3,2.788975688E-3
1.288162629E1,4.900243366E-4,-4.891809076E-4,-3.228820860E-4,7.639860289E-4
1.289158329E1,2.269040560E-4,-1.659640111E-3,1.247051172E-3,2.088307299E-3
1.290154029E1,2.380290534E-4,4.093954340E-4,-5.549434572E-4,7.295373139E-4
1.291149729E1,1.186913345E-3,-1.127781346E-3,-2.667363733E-3,3.129773688E-3
1.292145429E1,1.603747718E-3,-6.120912731E-4,-5.627766252E-3,5.883741620E-3
1.293141129E1,1.323511824E-4,3.052950837E-3,4.836563021E-4,3.093856665E-3
1.294136829E1,3.335583024E-4,3.028616309E-3,1.345336437E-3,3.330721846E-3
1.295132529E1,8.094651857E-4,-1.464935020E-3,1.684889197E-3,2.374893704E-3
1.296128229E1,6.262628594E-4,-1.656121574E-3,1.745216548E-3,2.486106321E-3
1.297123929E1,-2.389983274E-4,-9.573083371E-4,7.736952975E-4,1.253859588E-3
1.298119629E1,-5.660229363E-4,6.805583835E-4,-1.936787739E-3,2.129480788E-3
1.299115329E1,-1.006243285E-3,1.275508665E-3,-4.025237635E-3,4.340735642E-3
1.300111029E1,-4.483882803E-4,-3.898916766E-4,-4.298062995E-3,4.338941470E-3
1.301106729E1,1.920759794E-3,-1.449297182E-3,-8.506011218E-4,2.552117313E-3
1.302102429E1,1.321386080E-3,-7.420387119E-4,6.642388180E-4,1.654658826E-3
1.303098129E1,2.574531827E-4,8.396124467E-4,3.680269234E-3,3.783597869E-3
1.304093829E1,-6.725238636E-4,3.089362755E-3,1.047492027E-3,3.330719161E-3
1.305089529E1,9.932834655E-4,1.156440936E-3,-2.861229703E-3,3.242006029E-3
1.306085229E1,-7.826117799E-4,-5.517704412E-4,-4.697606899E-3,4.794209256E-3
1.307080929E1,1.631543739E-3,-4.881210625E-4,-3.021945246E-3,3.468767823E-3
1.308076629E1,2.601120155E-3,5.094548687E-4,-9.783161804E-4,2.825327038E-3
1.309072329E1,-3.450114746E-3,1.283369027E-3,2.335188910E-3,4.359292955E-3
1.310068029E1,1.017045812E-3,2.361644059E-3,3.652321175E-4,2.597140610E-3
1.311063729E1,1.784302527E-3,5.741296336E-4,-4.010088742E-5,1.874824905E-3
1.312059429E1,-8.397009224E-4,1.175682992E-3,-1.530690119E-3,2.104837375E-3
1.313055129E1,1.519859768E-3,-2.168980427E-3,-2.211128362E-3,3.450150495E-3
1.314050829E1,-1.720915083E-3,-5.095433444E-4,-6.672935560E-4,1.914801251E-3
1.315046529E1,-2.191495383E-3,1.370914280E-3,-4.228148609E-4,2.619318687E-3
1.316042229E1,1.743086032E-3,1.117007807E-3,-5.221245810E-4,2.135104080E-3
1.317037929E1,6.895394763E-4,6.878748536E-5,-1.186584122E-3,1.374109998E-3
1.318033629E1,1.381249400E-3,-1.116608270E-3,-9.192368016E-4,1.999915056E-3
1.319029329E1,-5.886908621E-4,-2.745166421E-4,-2.949897200E-3,3.020564485E-3
1.320025029E1,-1.986355055E-3,-2.938592806E-4,-1.418501139E-3,2.458476187E-3
1.321020729E1,2.806005068E-5,-2.008676529E-5,-1.461111940E-3,1.461519397E-3
1.322016429E1,1.796629047E-3,-7.365187630E-4,-4.015946761E-4,1.982829822E-3
1.323012129E1,2.001159824E-3,6.445962936E-4,1.405892894E-3,2.529165841E-3
1.324007829E1,-1.621404197E-3,1.893518493E-3,-6.781173870E-4,2.583448672E-3
1.325003529E1,-1.271198504E-3,5.046799779E-4,3.160405904E-4,1.403755381E-3
1.325999229E1,-5.327141844E-5,6.548697129E-4,-4.382962361E-3,4.431935383E-3
1.326994929E1,-2.993475646E-4,-8.538113907E-4,-1.075317152E-3,1.405314852E-3
1.327990629E1,-8.888263255E-4,1.603920013E-3,-3.308411688E-4,1.863337737E-3
1.328986379E1,-2.188182669E-3,3.421138972E-4,2.699836157E-3,3.492033875E-3
1.329982079E1,1.632722560E-3,-5.696304142E-4,-1.338915899E-3,2.186997383E-3
1.330977779E1,1.712617348E-3,-2.437305637E-3,-2.282206900E-3,3.752597138E-3
1.331973479E1,3.904354526E-4,1.445677131E-3,-3.753188998E-3,4.040897161E-3
1.332969179E1,3.117509186E-5,-6.531607360E-4,4.761768505E-4,8.089099000E-4
1.333964879E1,-3.607762046E-4,4.208059981E-4,2.300264314E-4,6.001244180E-4
1.334960579E1,1.334059634E-3,5.835015327E-5,2.296905965E-3,2.656858457E-3
1.335956279E1,-6.194275338E-4,2.289358526E-4,1.500966959E-3,1.639818254E-3
1.336951979E1,-1.062311232E-3,-1.556240022E-4,-1.363795251E-3,1.735702011E-3
1.337947679E1,9.580884362E-4,2.581320703E-3,-2.099830657E-3,3.462721302E-3
1.338943379E1,-6.890767254E-4,-2.261837944E-4,-1.224715263E-3,1.423345818E-3
1.339939079E1,-9.458647110E-4,-1.926887780E-4,1.486787573E-3,1.772660797E-3
1.340934779E1,-1.052391250E-3,3.167744726E-4,2.084135078E-3,2.356160528E-3
1.341930479E1,1.490053022E-3,5.616648123E-4,-6.921468303E-4,1.736315814E-3
1.342926179E1,1.100166235E-3,1.573133282E-3,4.700571299E-4,1.976377437E-3
1.343921879E1,-8.156583644E-4,1.326970756E-3,-3.539549187E-3,3.867112411E-3
1.344917579E1,-9.341689292E-4,-5.558840930E-4,-2.734741196E-3,2.942870728E-3
1.345913279E1,-8.756997995E-4,7.898472250E-4,-1.598655246E-3,1.986556663E-3
1.346908979E1,1.176532125E-3,5.344497040E-4,2.650951035E-3,2.949136436E-3
1.347904679E1,-8.125677705E-4,-1.231525093E-4,1.231229864E-3,1.480324255E-3
1.348900379E1,-1.946541714E-3,5.913740024E-4,1.249073073E-3,2.387243472E-3
1.349896079E1,-1.568561653E-3,6.693890318E-4,-4.320451990E-4,1.759298266E-3
1.350891779E1,-1.600158866E-4,-6.661862135E-4,-5.588112399E-4,8.841262109E-4
1.351887479E1,-1.528325956E-4,1.615731046E-3,-1.272557303E-3,2.062364348E-3
1.352883179E1,5.337302573E-4,-1.899374649E-3,-1.745268703E-3,2.634094700E-3
1.353878879E1,-1.082634553E-3,1.195443794E-3,1.130359247E-3,1.969491170E-3
1.354874579E1,1.308884122E-3,-1.300117001E-4,-1.222810708E-3,1.795925031E-3
1.355870279E1,2.286588075E-3,9.213015437E-4,4.464648664E-4,2.505316833E-3
1.356865979E1,-9.587570094E-5,-3.413027152E-4,1.595352776E-3,1.634267473E-3
1.357861679E1,1.300863107E-3,4.010973498E-4,-1.733017154E-3,2.203740539E-3
1.358857379E1,1.289145206E-3,-2.253275365E-3,-1.728223637E-3,3.118637871E-3
1.359853079E1,1.927496633E-4,9.120656177E-4,1.417092048E-3,1.696221093E-3
1.360848779E1,2.354703844E-3,1.941910014E-3,1.059696078E-3,3.230882305E-3
1.361844479E1,1.191455871E-3,1.465721056E-3,6.928928196E-4,2.011965647E-3
1.362840179E1,1.110495767E-3,-1.939396374E-3,1.070795581E-3,2.478116688E-3
1.363835879E1,-2.702955389E-3,6.701331586E-5,-4.894053563E-4,2.747722006E-3
1.364831579E1,2.065482549E-4,-1.135487109E-4,-3.887386993E-4,4.546133166E-4
1.365827279E1,-1.039327821E-3,-9.833388031E-4,-1.324145123E-4,1.436903310E-3
1.366823079E1,2.307336545E-4,-7.255440578E-4,2.414938062E-4,7.987311547E-4
1.367818679E1,-2.949235495E-4,-9.596142918E-4,2.095801756E-4,1.025555137E-3
1.368814479E1,8.065599250E-4,1.102738082E-3,4.593851045E-4,1.441389907E-3
1.369810079E1,1.178184990E-3,1.028480940E-3,-1.034294255E-3,1.875008672E-3
1.370805879E1,9.907211643E-5,4.516402259E-4,1.142839901E-3,1.232833005E-3
1.371801579E1,-5.251441617E-4,3.772294149E-4,-1.295097172E-3,1.447534147E-3
1.372797279E1,-1.701728674E-3,-6.211902946E-4,-2.116415650E-3,2.785852305E-3
1.373792979E1,-2.592709847E-3,-8.840309456E-4,4.174942151E-4,2.770912572E-3
1.374788679E1,7.317143027E-4,9.972266853E-4,-1.186261885E-3,1.713792328E-3
1.375784379E1,-6.281358656E-4,6.381897256E-4,1.102837734E-3,1.420595600E-3
1.376780079E1,-2.446407452E-4,7.103616372E-4,1.528942958E-3,1.703563711E-3
1.377775779E1,6.101040635E-4,-1.912312582E-4,-1.026438549E-4,6.475585868E-4
1.378771479E1,4.673586227E-4,-5.603451282E-4,2.481155097E-3,2.586221445E-3
1.379767179E1,-5.571078509E-4,1.267533749E-3,-1.409005374E-3,1.975425804E-3
1.380762879E1,1.393391285E-3,-1.384175383E-3,-2.530729398E-3,3.203446901E-3
1.381758579E1,3.386611352E-4,7.792422548E-4,-6.481921300E-4,1.068673427E-3
1.382754279E1,-2.164976439E-3,8.852360770E-4,-2.510540187E-3,3.431264770E-3
1.383749979E1,-6.188978441E-4,-9.656623006E-4,5.787676200E-4,1.284721829E-3
1.384745679E1,-2.393973991E-4,7.765777409E-4,1.437637024E-3,1.651418879E-3
1.385741379E1,4.070775583E-3,-4.711356014E-4,-1.052096486E-3,4.230849752E-3
1.386737079E1,1.516537857E-3,2.692230046E-4,-3.788499162E-4,1.586157419E-3
1.387732779E1,-2.145356266E-3,-2.490235493E-4,-2.289050259E-3,3.147112537E-3
1.388728479E1,9.891842492E-4,1.879640855E-3,-2.015278675E-3,2.927948661E-3
1.389724179E1,-5.762488581E-4,5.627488717E-4,-6.339736283E-4,1.025022732E-3
1.390719879E1,-2.291857032E-3,2.032015473E-3,-1.975408755E-3,3.644713334E-3
1.391715579E1,-1.003051409E-3,-5.091018975E-4,-1.057141460E-3,1.543646637E-3
1.392711279E1,-2.710936591E-3,1.455033198E-4,-7.633948699E-4,2.820127682E-3
1.393706979E1,1.086323056E-3,1.550083980E-3,-1.050432213E-3,2.164778502E-3
1.394702679E1,5.680719623E-4,-9.498251602E-4,3.863424063E-4,1.172234637E-3
1.395698379E1,-1.189566450E-3,1.749853604E-3,3.458000720E-4,2.143976134E-3
1.396694079E1,-1.069724094E-3,5.322564393E-4,-8.046859875E-4,1.440529796E-3
1.397689779E1,-1.109620091E-3,-1.137251034E-3,-2.372037619E-3,2.855023490E-3
1.398685479E1,-1.609761734E-3,7.575880736E-4,-1.500651240E-3,2.327493646E-3
1.399681179E1,-5.591893569E-4,-3.427127376E-4,-2.489862964E-4,7.015261457E-4
1.400676879E1,1.185851870E-4,-1.300918870E-3,1.763207838E-4,1.318158325E-3
1.401672579E1,2.571241930E-5,-8.553368971E-4,-9.099906310E-4,1.249137816E-3
1.402668279E1,1.492830925E-4,7.630661130E-4,4.887012765E-4,9.183595549E-4
1.403663979E1,6.818111287E-4,6.008893251E-6,-1.634812914E-3,1.771303414E-3
1.404659679E1,1.646141754E-3,8.837869391E-4,-2.059055492E-3,2.780390539E-3
1.405655379E1,3.181200009E-4,2.433003858E-3,5.767205730E-4,2.520578252E-3
1.406651079E1,1.165537862E-3,1.112595201E-4,1.045969315E-3,1.570002865E-3
1.407646779E1,1.333358232E-3,-5.709100515E-5,-3.613885492E-4,1.382644293E-3
1.408642479E1,3.312106710E-4,4.734108225E-4,-4.404848441E-4,7.265295681E-4
1.409638179E1,2.990073990E-4,-1.310214400E-3,2.503395081E-5,1.344133140E-3
1.410633879E1,1.008681720E-4,-1.447900198E-3,-4.606734961E-3,4.829968569E-3
1.411629579E1,-8.948724717E-4,2.394756302E-4,-2.296762541E-4,9.544089793E-4
1.412625279E1,-1.426439499E-3,6.780978292E-4,-1.198001206E-3,1.982360512E-3
1.413620979E1,-1.263337675E-3,4.316493869E-4,6.944444031E-4,1.504857569E-3
1.414616679E1,1.438172767E-3,5.373768508E-4,2.976773307E-3,3.349372196E-3
1.415612379E1,-4.451866262E-4,-9.774481878E-4,-7.664943114E-4,1.319511130E-3
1.416608079E1,-5.822931416E-5,-5.390914157E-4,-2.311660908E-3,2.374402317E-3
1.417603779E1,-7.944761310E-4,1.033173874E-3,-6.986381486E-4,1.478761590E-3
1.418599479E1,-1.013121568E-3,9.069396183E-4,-1.089589670E-3,1.742458158E-3
1.419595179E1,6.769993342E-5,-1.273043454E-4,-1.834861003E-3,1.840517475E-3
1.420590879E1,1.007795800E-3,-2.100973390E-3,-1.903586090E-4,2.337943104E-3
1.421586579E1,9.840028360E-5,1.049596816E-3,-4.197871312E-4,1.134705833E-3
1.422582279E1,-2.113252413E-4,4.951264709E-4,2.746977843E-3,2.799231297E-3
1.423577979E1,5.354965106E-4,8.110273629E-4,-1.634036191E-3,1.901209133E-3
1.424573679E1,1.504354528E-3,6.155511364E-4,-4.100656137E-3,4.411050499E-3
1.425569379E1,4.078098573E-5,-7.012840360E-4,-3.041404299E-3,3.121474411E-3
1.426565079E1,1.270096167E-3,-1.007281244E-3,-1.667877659E-4,1.629594409E-3
1.427560779E1,1.353158150E-4,-3.826860338E-4,5.890112370E-4,7.153273430E-4
1.428556479E1,1.576352282E-3,1.068031415E-4,-1.107156277E-3,1.929271482E-3
1.429552117E1,2.096616663E-3,-6.493423134E-4,-1.971756108E-3,2.950469288E-3
1.430547817E1,4.039006308E-5,-3.242461942E-3,-2.549129538E-3,4.124712379E-3
1.431543517E1,-2.111656591E-3,-8.908733726E-4,-1.259682700E-3,2.615253225E-3
1.432539217E1,-9.659649804E-4,1.823153347E-3,-8.466262370E-4,2.230191125E-3
1.433534917E1,-1.339372713E-3,7.994594052E-4,1.758810133E-3,2.350844037E-3
1.434530617E1,-7.324381731E-4,-7.563587278E-4,2.512484789E-3,2.724174006E-3
1.435526317E1,2.485269448E-3,1.227855682E-4,1.705153845E-3,3.016486393E-3
1.436522117E1,-1.371451654E-4,-7.651122287E-4,-8.099358529E-4,1.122587014E-3
1.437517817E1,1.472385251E-3,7.061567158E-4,-2.223557793E-3,2.758765103E-3
1.438513517E1,-1.428220421E-4,-1.419578679E-3,-3.129831515E-3,3.439687061E-3
1.439509217E1,-4.306258634E-4,1.688601449E-3,-3.634649329E-3,4.030817440E-3
1.440504917E1,6.213227753E-4,-7.167654112E-4,-1.379750669E-3,1.674367509E-3
1.441500617E1,6.803366123E-4,2.000039443E-3,-3.940444440E-4,2.149019941E-3
1.442496317E1,-6.997135933E-4,6.697904319E-4,1.679759473E-3,1.939023007E-3
1.443492017E1,-1.190952957E-3,-2.690193243E-3,-2.028462477E-3,3.573537274E-3
1.444487717E1,-2.624266315E-3,-3.129243851E-5,-2.705438994E-3,3.769237729E-3
1.445483417E1,1.038412913E-3,1.807231456E-4,-1.719133928E-3,2.016527633E-3
1.446479117E1,-3.275109222E-3,-9.013190866E-4,-2.758299001E-3,4.375720499E-3
1.447474817E1,3.956969595E-4,-7.395036519E-4,-6.028469652E-4,1.032892152E-3
1.448470517E1,2.585442271E-4,1.025639474E-3,8.842619136E-4,1.378658979E-3
1.449466217E1,-4.989113659E-4,2.127215266E-4,1.544462517E-3,1.636926225E-3
1.450461917E1,1.236670651E-3,-1.579053700E-3,-5.503799766E-4,2.079827638E-3
1.451457617E1,8.417998906E-4,4.678852856E-4,-4.033175297E-3,4.146570471E-3
1.452453317E1,9.983937489E-4,-1.345461234E-3,-2.928229980E-3,3.373660746E-3
1.453449017E1,1.285068691E-3,4.382664338E-4,-2.860530280E-3,3.166403715E-3
1.454444717E1,1.241126563E-3,-7.516341284E-4,-1.743333414E-3,2.268162340E-3
1.455440417E1,-1.995315775E-3,-7.523978129E-4,6.132023409E-4,2.218874630E-3
1.456436117E1,1.468924107E-3,-6.179083139E-4,2.596724778E-3,3.046724190E-3
1.457431817E1,-1.078824047E-3,-2.377219498E-4,3.904579207E-4,1.171678470E-3
1.458427517E1,2.240539761E-3,-3.525046632E-4,-1.634609886E-3,2.795751677E-3
1.459423217E1,-2.520415932E-3,-5.271853879E-4,-2.572407946E-3,3.639739488E-3
1.460418917E1,-8.663267363E-4,-8.307853714E-4,-2.457359806E-3,2.734838855E-3
1.461414617E1,-2.319532679E-3,1.543390565E-3,-3.979541361E-5,2.786372186E-3
1.462410317E1,1.253630267E-3,5.782609805E-4,2.677428536E-3,3.012407372E-3
1.463406017E1,1.856043469E-3,5.855765194E-4,1.974855550E-3,2.772697542E-3
1.464401717E1,-1.066509401E-3,1.715822145E-3,2.597769722E-3,3.290880652E-3
1.465397417E1,7.564082043E-4,6.351927295E-4,-1.008883119E-3,1.411902377E-3
1.466393117E1,1.164937159E-3,1.478881575E-3,-3.631297499E-3,4.090292266E-3
1.467388817E1,1.738299150E-3,2.225632779E-3,-1.852618530E-3,3.377472520E-3
1.468384517E1,-1.353098312E-3,1.934017055E-3,2.034530975E-3,3.116185697E-3
1.469380217E1,9.482445894E-4,3.653075546E-4,1.276321709E-3,1.631445530E-3
1.470375917E1,-9.958629962E-4,-2.869004384E-4,3.351722844E-3,3.508290323E-3
1.471371617E1,7.302961312E-4,1.024333760E-3,2.227216959E-3,2.557945948E-3
1.472367317E1,1.169717754E-3,2.880024724E-3,-2.299091779E-3,3.866342592E-3
1.473363017E1,-9.571870323E-4,-8.318591863E-4,-4.153498448E-3,4.342780916E-3
1.474358717E1,-1.646945719E-3,6.161015481E-4,-3.357746638E-3,3.790313154E-3
1.475354417E1,2.290430712E-4,6.098635495E-4,-4.029367119E-4,7.659975661E-4
1.476350117E1,4.687441047E-3,-2.255700529E-4,-6.077336147E-4,4.732052997E-3
1.477345817E1,-5.980017595E-4,3.606821410E-3,4.840590991E-3,6.066142756E-3
1.478341517E1,-1.338893082E-3,7.354011759E-4,3.341496922E-3,3.674105504E-3
1.479337217E1,2.887827577E-4,-6.402730942E-4,2.840403467E-4,7.576437387E-4
1.480332917E1,2.441948513E-3,4.002237692E-4,-2.384712920E-3,3.436589488E-3
1.481328617E1,-4.574558698E-4,1.176851802E-3,-2.916471101E-3,3.178057539E-3
1.482324317E1,1.083182869E-3,-3.020023927E-3,-3.433390521E-3,4.699148871E-3
1.483320017E1,-2.016599989E-3,6.181374192E-4,2.722453326E-3,3.443910785E-3
1.484315717E1,-2.615766134E-4,9.379833937E-4,3.231650218E-3,3.375173819E-3
1.485311417E1,-2.254166175E-4,1.324536279E-4,2.410019748E-3,2.424160020E-3
1.486307117E1,9.176122257E-4,-5.506472662E-4,-7.098168135E-5,1.072503150E-3
1.487302817E1,-6.160773337E-4,1.080203801E-4,-7.104482502E-4,9.465497344E-4
1.488298517E1,-7.305876352E-5,-4.206169397E-4,-3.580536693E-3,3.605897836E-3
1.489294317E1,6.225132383E-4,-4.998510703E-4,-2.741608769E-3,2.855484629E-3
1.490290017E1,-1.432115445E-3,4.785936326E-4,-9.636832401E-4,1.791282194E-3
1.491285717E1,-6.976837758E-4,3.133327700E-3,2.154637128E-3,3.866130660E-3
1.492281417E1,-9.520156309E-4,-6.563505158E-4,3.801004030E-3,3.973004077E-3
1.493277117E1,6.215646863E-4,-1.280047931E-3,-5.131959915E-5,1.423902758E-3
1.494272817E1,-4.647388123E-4,-1.229714602E-3,-1.576777548E-3,2.052902239E-3
1.495268517E1,-2.073213458E-3,-3.136220388E-3,-2.530365251E-3,4.531759114E-3
1.496264217E1,2.517261310E-4,-7.367124781E-4,-3.019322641E-3,3.118079622E-3
1.497259917E1,-5.428912118E-4,-1.890981570E-3,-3.326890990E-3,3.865067377E-3
1.498255617E1,2.816234482E-4,-6.169257686E-4,2.819950692E-3,2.900350165E-3
1.499251317E1,-1.071370207E-4,-9.643845260E-6,3.566990606E-3,3.568612242E-3
1.500247017E1,-9.047538042E-4,-1.826186664E-3,2.549396828E-3,3.263887462E-3
1.501242717E1,-1.278389245E-3,8.732201532E-4,-9.512985125E-4,1.817074946E-3
1.502238417E1,-1.038172282E-3,-7.039038464E-4,-3.261324950E-3,3.494212750E-3
1.503234117E1,1.440257765E-3,6.156992167E-4,-5.589702167E-3,5.805014924E-3
1.504229817E1,2.677562414E-3,-1.640797593E-3,-4.308455624E-3,5.331448873E-3
1.505225517E1,7.092416054E-4,3.668768331E-4,-1.661525108E-3,1.843444588E-3
1.506221217E1,-2.361806110E-4,-6.629675627E-4,2.559052780E-3,2.654064506E-3
1.507216917E1,8.879300440E-4,2.767295577E-3,1.594964415E-3,3.315155510E-3
1.508212617E1,-8.263466880E-4,1.250891946E-3,-1.198424958E-3,1.919323289E-3
1.509208317E1,-1.559248194E-4,-1.851540059E-3,-2.691961825E-3,3.270958821E-3
1.510204017E1,-1.423323061E-3,-7.188972086E-4,-4.685338587E-3,4.949248368E-3
1.511199717E1,-8.783773519E-4,3.272350878E-4,-3.673358820E-3,3.791067739E-3
1.512195417E1,1.437507570E-3,1.655886881E-3,-1.752686687E-3,2.807187204E-3
1.513191117E1,1.248101704E-3,1.734660007E-3,2.613587305E-3,3.376039366E-3
1.514186817E1,9.069195949E-5,3.878995776E-4,4.972615279E-3,4.988546264E-3
1.515182517E1,-1.623502932E-3,4.052538425E-4,1.049991697E-3,1.975468302E-3
1.516178217E1,8.622916648E-4,-2.416632138E-3,6.025806069E-4,2.635670919E-3
1.517173917E1,2.260246547E-3,-5.462775007E-4,-2.233721316E-3,3.224382806E-3
1.518169617E1,-1.340080984E-3,-2.096537501E-4,-1.678719185E-3,2.158209870E-3
1.519165317E1,-9.499024600E-6,2.185129561E-3,-2.934049815E-3,3.658350686E-3
1.520161017E1,-1.128026517E-3,-6.170487031E-4,-8.663712069E-4,1.550416716E-3
1.521156717E1,-1.417607302E-3,7.512243465E-4,2.292480320E-3,2.798109093E-3
1.522152417E1,5.378923379E-5,-1.675980166E-3,1.983553171E-3,2.597361350E-3
1.523148117E1,1.225591404E-4,-1.234568655E-3,1.627429388E-3,2.046388752E-3
1.524143817E1,-1.487055328E-3,1.922609285E-3,-7.172180340E-4,2.534198437E-3
1.525139517E1,1.366134733E-3,-6.633335724E-4,-3.193446435E-3,3.536161149E-3
1.526135217E1,-8.125973400E-4,4.312256351E-4,-3.928653896E-4,1.000306553E-3
1.527130917E1,3.119313158E-3,-1.972775906E-3,5.270009860E-4,3.728228721E-3
1.528126617E1,9.621526115E-4,-2.170382068E-3,3.867403604E-3,4.537962825E-3
1.529122267E1,-1.204720233E-3,-4.321085289E-4,1.401366666E-3,1.897866474E-3
1.530117967E1,9.279391961E-4,1.436364837E-3,5.928305909E-4,1.809879335E-3
1.531113667E1,-2.131185029E-4,-9.766547009E-4,6.607174873E-4,1.198257693E-3
1.532109467E1,1.397028565E-3,-8.165985346E-4,-2.320691943E-3,2.829157662E-3
1.533105167E1,-1.559431199E-3,8.361246437E-4,-2.014236525E-3,2.681059280E-3
1.534100867E1,-7.117469795E-4,-9.833462536E-4,-3.544222564E-3,3.746340507E-3
1.535096567E1,7.885543164E-5,2.206772566E-3,1.552880742E-3,2.699537356E-3
1.536092267E1,1.367026474E-3,-1.532838680E-3,3.344123252E-3,3.924476541E-3
1.537087967E1,1.355282729E-3,1.117940992E-3,1.045417041E-3,2.044377687E-3
1.538083667E1,1.109739300E-3,1.077992842E-3,-2.928817645E-3,3.312334928E-3
1.539079367E1,1.034322428E-3,-8.783964440E-4,-3.845714964E-3,4.078103331E-3
1.540075067E1,5.648072110E-4,2.132040448E-3,9.391866624E-4,2.397222402E-3
1.541070767E1,-8.510651533E-4,2.857056446E-3,2.572557889E-3,3.937656349E-3
1.542066467E1,-1.848152606E-3,-1.274570823E-3,6.013177335E-5,2.245843865E-3
1.543062167E1,7.656381931E-4,1.685545780E-3,5.022492260E-4,1.918207680E-3
1.544057867E1,-1.042648219E-3,1.106042415E-3,-3.449083306E-3,3.769167121E-3
1.545053567E1,-1.282896381E-3,-4.505589604E-4,-4.467470571E-3,4.669809397E-3
1.546049267E1,3.781171981E-4,2.336073667E-4,-3.660533577E-3,3.687417943E-3
1.547044967E1,2.228100784E-4,-5.524866283E-4,2.750912681E-4,6.561714801E-4
1.548040667E1,-4.533664323E-4,3.226278350E-4,4.386746325E-3,4.421897009E-3
1.549036367E1,-2.959792502E-3,1.258498989E-3,4.754538648E-3,5.740194171E-3
1.550032067E1,-1.530474052E-3,-8.243592456E-4,6.524715573E-4,1.856781657E-3
1.551027767E1,-5.206256174E-5,2.151966095E-3,-2.308249474E-3,3.156213589E-3
1.552023467E1,-1.419595676E-3,1.554885879E-3,-4.277909175E-4,2.148470863E-3
1.553019167E1,1.692706021E-3,9.506866336E-4,-5.236180499E-3,5.584500422E-3
1.554014867E1,6.559373578E-4,-1.899960451E-3,-1.253085211E-4,2.013903115E-3
1.555010567E1,2.560726134E-3,-2.734726295E-4,3.941112198E-3,4.707915778E-3
1.556006267E1,-6.262785755E-4,1.640850678E-4,1.543639228E-4,6.655651616E-4
1.557001967E1,-5.763026420E-4,2.140781842E-3,5.237665027E-5,2.217614697E-3
1.557997667E1,-9.568682872E-4,1.802294515E-3,3.048442304E-4,2.063199564E-3
1.558993367E1,3.486658446E-3,8.814390749E-4,-2.943907864E-3,4.647613955E-3
1.559989067E1,-1.357631758E-3,1.762146130E-3,-9.246077389E-5,2.226403371E-3
1.560984767E1,9.397441754E-4,4.776651040E-4,7.841615006E-4,1.313846386E-3
1.561980467E1,-2.229949925E-3,-1.338077709E-3,1.093620434E-3,2.821193768E-3
1.562976167E1,2.528303303E-4,-2.794023603E-4,1.303954050E-4,3.987377791E-4
1.563971867E1,-1.191401854E-3,-1.523690298E-4,-9.410921484E-5,1.204786804E-3
1.564967567E1,1.345720608E-3,-6.965212524E-4,-2.988810651E-3,3.350984171E-3
1.565963267E1,8.972443175E-4,1.967438497E-3,-3.987762146E-3,4.536310013E-3
1.566958967E1,1.376700355E-3,6.253877655E-4,-2.569606528E-3,2.981491478E-3
1.567954667E1,-7.551601157E-4,2.070153132E-3,-1.101139002E-3,2.463393572E-3
1.568950467E1,8.600426372E-5,-1.793727279E-4,3.013392910E-3,3.019951679E-3
1.569946167E1,-1.803508494E-3,-2.478156239E-4,4.433922470E-3,4.793091272E-3
1.570941867E1,1.170465257E-4,5.983784795E-4,2.061329782E-3,2.149613259E-3
1.571937567E1,-2.522678580E-3,1.890510321E-4,-1.088656485E-3,2.754055274E-3
1.572933267E1,-4.456907045E-4,-1.681400463E-3,-3.629993647E-3,4.025245533E-3
