"Time (s)","Gyroscope x (rad/s)","Gyroscope y (rad/s)","Gyroscope z (rad/s)","Absolute (rad/s)"
4.100166669E-3,4.236440873E-4,-3.475190140E-3,-3.518544137E-1,3.518718302E-1
1.405616667E-2,2.794390079E-3,-4.487990402E-3,-3.525609374E-1,3.526005747E-1
2.401316667E-2,4.900856409E-3,-5.152146332E-3,-3.568428755E-1,3.569137162E-1
3.396916667E-2,1.513315714E-3,-2.104424872E-3,-3.623473644E-1,3.623566354E-1
4.392516667E-2,3.663640236E-3,-4.621514119E-3,-3.686863780E-1,3.687335433E-1
5.388116667E-2,4.153395537E-3,-3.214831464E-3,-3.675436080E-1,3.675811333E-1
6.383716667E-2,2.845560201E-3,-2.392471768E-3,-3.656582832E-1,3.656771817E-1
7.379316667E-2,4.149177577E-3,-3.019912168E-3,-3.593724072E-1,3.594090464E-1
8.374916667E-2,4.723030142E-3,-1.797175035E-3,-3.520374000E-1,3.520736682E-1
9.370516667E-2,1.526704174E-3,-5.163411610E-3,-3.483041823E-1,3.483457981E-1
1.036621667E-1,3.359867493E-3,-5.990613252E-3,-3.518900275E-1,3.519570537E-1
1.136181667E-1,2.402993618E-3,-3.559947014E-3,-3.589194417E-1,3.589451396E-1
1.235741667E-1,7.435466163E-3,-3.851098008E-3,-3.663208187E-1,3.664165107E-1
1.335301667E-1,4.229819402E-3,-3.972537816E-3,-3.708870709E-1,3.709324626E-1
1.434861667E-1,2.562787617E-3,-5.329581909E-3,-3.683480024E-1,3.683954712E-1
1.534421667E-1,4.261618014E-3,-2.914627083E-3,-3.611385524E-1,3.611754567E-1
1.633981667E-1,3.019961063E-3,-2.629054710E-3,-3.570795655E-1,3.571020137E-1
1.733541667E-1,4.175240174E-3,-4.078613594E-3,-3.529947996E-1,3.530430516E-1
1.833101667E-1,1.278319396E-3,-3.227484412E-3,-3.520381153E-1,3.520552305E-1
1.932671667E-1,4.528973717E-3,-3.469299525E-3,-3.613528013E-1,3.613978343E-1
2.032231667E-1,5.653720349E-3,-3.167233430E-3,-3.665299714E-1,3.665872554E-1
2.131791667E-1,3.575656097E-3,-2.092381939E-3,-3.677552938E-1,3.677786284E-1
2.231351667E-1,4.037836101E-3,-3.045760095E-3,-3.616870046E-1,3.617223660E-1
2.330911667E-1,3.955012187E-3,-9.210901335E-4,-3.562901020E-1,3.563132432E-1
2.430471667E-1,5.396387540E-3,-5.616405047E-3,-3.580833077E-1,3.581680057E-1
2.530031667E-1,2.479693154E-3,-3.268828616E-3,-3.601839840E-1,3.602073521E-1
2.629591667E-1,4.662468564E-3,-2.764939331E-3,-3.639759123E-1,3.640162747E-1
2.729161667E-1,4.088557325E-3,-1.885830425E-3,-3.627559245E-1,3.627838659E-1
2.828721667E-1,3.626421792E-3,-4.259675741E-3,-3.596424758E-1,3.596859828E-1
2.928281667E-1,4.524173215E-3,-5.617622286E-3,-3.552461565E-1,3.553193739E-1
3.027841667E-1,4.179066978E-3,-5.177377723E-3,-3.580370545E-1,3.580988722E-1
3.127401667E-1,3.276788164E-3,-6.420540623E-3,-3.612852991E-1,3.613572028E-1
3.226961667E-1,4.308203235E-3,-5.322111771E-3,-3.645803630E-1,3.646446580E-1
3.326521667E-1,3.352661151E-3,-6.325058639E-3,-3.704350591E-1,3.705042236E-1
3.426081667E-1,1.732981880E-3,-3.170944750E-3,-3.733677268E-1,3.733852133E-1
3.525641667E-1,6.325336639E-3,-3.358164802E-3,-3.703045845E-1,3.703738280E-1
3.625211667E-1,4.322608002E-3,-3.645028919E-3,-3.616698682E-1,3.617140649E-1
3.724771667E-1,4.822216928E-3,-5.456245504E-3,-3.486965299E-1,3.487725539E-1
3.824331667E-1,1.702098642E-3,-2.932486124E-3,-3.464795351E-1,3.464961253E-1
3.923891667E-1,1.236430835E-4,-4.999100231E-3,-3.512950838E-1,3.513306735E-1
4.023446667E-1,2.894266741E-3,-4.366243258E-3,-3.606677651E-1,3.607058049E-1
4.123006667E-1,6.689270958E-3,-3.054903820E-3,-3.696825802E-1,3.697557152E-1
4.222566667E-1,6.520935334E-3,-4.415959120E-3,-3.720750213E-1,3.721583598E-1
4.322126667E-1,3.013286274E-3,-2.892097458E-3,-3.688472509E-1,3.688708970E-1
4.421686667E-1,5.087581463E-3,-4.246869124E-3,-3.617519140E-1,3.618126127E-1
4.521256667E-1,2.601520624E-3,-4.131820984E-3,-3.529323339E-1,3.529661063E-1
4.620816667E-1,4.423973151E-3,-5.024921149E-3,-3.533579409E-1,3.534213573E-1
4.720376667E-1,3.094789339E-3,-4.327705130E-3,-3.551824689E-1,3.552223148E-1
4.819936667E-1,5.085561424E-3,-3.383660689E-3,-3.590515852E-1,3.591035407E-1
4.919496667E-1,5.434169434E-3,-4.593000747E-3,-3.651105464E-1,3.651798693E-1
5.019056667E-1,4.344052169E-3,-2.578175627E-3,-3.601759970E-1,3.602114193E-1
5.118616667E-1,1.304320060E-3,-2.181365155E-3,-3.597685397E-1,3.597775170E-1
5.218176667E-1,3.962714691E-3,-1.788945869E-3,-3.562968373E-1,3.563233640E-1
5.317736667E-1,5.876906798E-4,-5.272360519E-3,-3.608436584E-1,3.608826527E-1
5.417306667E-1,2.120370045E-3,-6.217787974E-3,-3.664806187E-1,3.665394941E-1
5.516866667E-1,4.054890480E-3,-4.091787152E-3,-3.692479134E-1,3.692928464E-1
5.616426667E-1,5.184901878E-3,-1.886768267E-3,-3.701893389E-1,3.702304549E-1
5.715986667E-1,2.371005947E-3,-2.797569148E-3,-3.627492785E-1,3.627678144E-1
5.815546667E-1,5.925060832E-4,-4.995828494E-3,-3.558039963E-1,3.558395610E-1
5.915106667E-1,3.441555891E-3,-6.251242012E-3,-3.488925397E-1,3.489655092E-1
6.014666667E-1,3.102720482E-3,-2.465022728E-3,-3.389436007E-1,3.389667648E-1
6.114226667E-1,1.820142148E-3,-4.993161187E-3,-3.482438922E-1,3.482844427E-1
6.213786667E-1,6.522737443E-3,-3.026242368E-3,-3.644512892E-1,3.645222166E-1
6.313356667E-1,3.218819387E-3,-2.886159346E-3,-3.761172891E-1,3.761421352E-1
6.412916667E-1,7.249101531E-3,-1.502709463E-3,-3.748849332E-1,3.749580253E-1
6.512476667E-1,5.807532463E-3,-3.441224806E-3,-3.653172553E-1,3.653796196E-1
6.612036667E-1,3.838469274E-3,-2.522617579E-3,-3.532694578E-1,3.532993168E-1
6.711596667E-1,2.936190460E-3,-3.693609498E-3,-3.454562724E-1,3.454884949E-1
6.811156667E-1,4.923489760E-4,-5.383498035E-3,-3.458903134E-1,3.459325561E-1
6.910716667E-1,6.271408871E-3,-6.260266528E-4,-3.560513258E-1,3.561071034E-1
7.010276667E-1,2.728170250E-3,-2.295397222E-3,-3.710198700E-1,3.710370005E-1
7.109846667E-1,5.676290020E-3,4.990575835E-4,-3.794937730E-1,3.795365504E-1
7.209406667E-1,3.070300445E-3,-1.462726854E-3,-3.752070665E-1,3.752224795E-1
7.308966667E-1,2.927288879E-3,-3.394584171E-3,-3.651368618E-1,3.651643740E-1
7.408526667E-1,2.740985481E-3,-3.292343579E-3,-3.553025126E-1,3.553283383E-1
7.508086667E-1,2.761225682E-3,-3.906468861E-3,-3.465803862E-1,3.466133998E-1
7.607646667E-1,4.076673184E-3,-5.413029343E-3,-3.459696472E-1,3.460360052E-1
7.707206667E-1,2.259332221E-3,-6.203189492E-3,-3.509162068E-1,3.509783018E-1
7.806766667E-1,3.667477518E-3,-3.861940466E-3,-3.647833765E-1,3.648222536E-1
7.906326667E-1,2.605941612E-3,-2.942882478E-3,-3.716615140E-1,3.716823005E-1
8.005896667E-1,6.448038388E-3,-2.264873125E-3,-3.690908849E-1,3.691541523E-1
8.105456667E-1,1.642364543E-3,-1.816130243E-3,-3.610720932E-1,3.610803958E-1
8.205016667E-1,-7.879228797E-4,-2.655610442E-3,-3.552995920E-1,3.553103899E-1
8.304576667E-1,3.841183614E-3,-2.678513527E-3,-3.514763415E-1,3.515075358E-1
8.404136667E-1,3.386270721E-3,-4.666226916E-3,-3.530624509E-1,3.531095223E-1
8.503696667E-1,3.604915924E-3,-5.104315467E-3,-3.597848117E-1,3.598390754E-1
8.603256667E-1,3.563040402E-3,-2.144495025E-3,-3.647712469E-1,3.647949516E-1
8.702816667E-1,4.515120294E-3,-3.140251152E-3,-3.666380942E-1,3.666793417E-1
8.802376667E-1,5.923166405E-3,-4.463137127E-3,-3.668921590E-1,3.669671100E-1
8.901946667E-1,6.335157435E-3,-6.771879271E-4,-3.574355245E-1,3.574923033E-1
9.001506667E-1,2.780636773E-3,-1.690889709E-3,-3.554764390E-1,3.554913357E-1
9.101066667E-1,3.865342587E-3,-4.390802234E-3,-3.509528041E-1,3.510015537E-1
9.200626667E-1,3.212811658E-3,-4.884243943E-3,-3.606757522E-1,3.607231296E-1
9.300186667E-1,5.571839865E-3,-5.585453473E-3,-3.685310185E-1,3.686154558E-1
9.399746667E-1,3.821992781E-3,-4.295763560E-3,-3.678159118E-1,3.678608516E-1
9.499306667E-1,5.473951809E-3,-4.845705815E-3,-3.655937612E-1,3.656668473E-1
9.598866667E-1,3.933843225E-3,-3.700026311E-3,-3.627884686E-1,3.628286624E-1
9.698426667E-1,4.348497838E-3,-3.991375677E-3,-3.586256802E-1,3.586742520E-1
9.797996667E-1,4.886078183E-3,-4.287113436E-3,-3.577538431E-1,3.578128915E-1
9.897556667E-1,5.072765984E-3,-2.620241605E-3,-3.643265069E-1,3.643712423E-1
9.997116667E-1,3.708939534E-3,-2.942906693E-3,-3.598637879E-1,3.598949330E-1
1.009667667E0,2.219167305E-3,-4.517367110E-3,-3.603974879E-1,3.604326297E-1
1.019623667E0,5.295904353E-3,-2.858792432E-3,-3.604317307E-1,3.604819716E-1
1.029579667E0,1.288112951E-3,-1.489395276E-3,-3.590961397E-1,3.591015386E-1
1.039535667E0,3.036830574E-3,-5.313749425E-3,-3.568383753E-1,3.568908578E-1
1.049491667E0,2.643215470E-3,-3.393343650E-3,-3.545523286E-1,3.545784188E-1
1.059447667E0,3.095870605E-3,-4.120510072E-3,-3.531022966E-1,3.531399084E-1
1.069404667E0,5.161152221E-3,-2.645650879E-3,-3.592238426E-1,3.592706585E-1
1.079360667E0,5.148976110E-3,-6.106244400E-4,-3.667764962E-1,3.668131445E-1
1.089316667E0,3.826716682E-3,-6.590941921E-4,-3.649232090E-1,3.649438677E-1
1.099272667E0,5.979725160E-3,-2.745372243E-3,-3.607017696E-1,3.607617784E-1
1.109228667E0,9.407578036E-4,-2.600762993E-3,-3.576428592E-1,3.576535527E-1
1.119184667E0,5.439530127E-3,-3.571221605E-3,-3.582925797E-1,3.583516635E-1
1.129140667E0,1.502312720E-3,-3.164823167E-3,-3.594473302E-1,3.594644019E-1
1.139096667E0,3.448295873E-3,-2.806544304E-3,-3.675768673E-1,3.676037552E-1
1.149052667E0,3.644304350E-3,-1.390274614E-3,-3.684240282E-1,3.684446747E-1
1.159009667E0,4.154046532E-3,-1.181347296E-3,-3.640929163E-1,3.641185293E-1
1.168965667E0,1.800344908E-3,-6.481303833E-3,-3.554286063E-1,3.554922541E-1
1.178921667E0,3.686852288E-3,-2.263584174E-3,-3.485009968E-1,3.485278489E-1
1.188877667E0,4.969164729E-3,-4.657500423E-3,-3.501774669E-1,3.502436912E-1
1.198833667E0,1.103302930E-4,-3.730937839E-3,-3.536015153E-1,3.536212150E-1
1.208789667E0,6.158901844E-3,-2.287237905E-3,-3.651849329E-1,3.652440263E-1
1.218745667E0,5.097094923E-3,-5.370656028E-3,-3.683669269E-1,3.684413348E-1
1.228701667E0,4.883509595E-3,-4.422836006E-3,-3.709986508E-1,3.710571506E-1
1.238657667E0,4.140193574E-3,-4.347139969E-3,-3.658475876E-1,3.658968382E-1
1.248614667E0,6.370712072E-4,-2.423805185E-3,-3.579174876E-1,3.579262615E-1
1.258570667E0,3.260785714E-3,-5.409956910E-3,-3.526163399E-1,3.526729130E-1
1.268526667E0,5.222736392E-3,-2.633878030E-3,-3.517633080E-1,3.518119372E-1
1.278482667E0,3.424639348E-3,-1.084029675E-3,-3.537341356E-1,3.537523738E-1
1.288438667E0,5.351170432E-3,1.907498576E-3,-3.609707654E-1,3.610154664E-1
1.298394667E0,2.976009157E-3,-3.027676605E-3,-3.636918068E-1,3.637165844E-1
1.308350667E0,4.262848757E-3,-8.579986170E-4,-3.662244976E-1,3.662503115E-1
1.318306667E0,1.832490903E-3,-2.352288924E-3,-3.667497933E-1,3.667619148E-1
1.328262667E0,7.238974329E-3,-3.298509866E-3,-3.623952568E-1,3.624825583E-1
1.338219667E0,5.922809243E-3,-2.577028237E-3,-3.573040664E-1,3.573624443E-1
1.348175667E0,4.208265804E-3,-5.414626561E-3,-3.536930978E-1,3.537595725E-1
1.358131667E0,4.087051377E-3,-6.237114780E-3,-3.507591486E-1,3.508384043E-1
1.368087667E0,-9.668291314E-4,-3.608574159E-3,-3.560375571E-1,3.560571564E-1
1.378043667E0,4.219769500E-3,-2.741367556E-3,-3.596695065E-1,3.597047060E-1
1.387999667E0,6.440046709E-3,-2.287298441E-3,-3.672350049E-1,3.672985907E-1
1.397956000E0,5.734091625E-3,-1.965023577E-3,-3.671057522E-1,3.671557904E-1
1.407912000E0,4.234998487E-3,-2.430544235E-3,-3.625442982E-1,3.625771792E-1
1.417868000E0,3.482026514E-3,-5.229780450E-3,-3.562069237E-1,3.562623298E-1
1.427824000E0,4.279909655E-3,-4.788493738E-3,-3.522662520E-1,3.523247928E-1
1.437781000E0,5.345768295E-3,-3.874207847E-3,-3.539130092E-1,3.539745821E-1
1.447737000E0,3.033878282E-3,-5.317374133E-3,-3.589895368E-1,3.590417335E-1
1.457693000E0,2.637800295E-3,-5.208452232E-3,-3.649534583E-1,3.650001544E-1
1.467649000E0,5.522269756E-3,-3.583040088E-4,-3.694725633E-1,3.695140036E-1
1.477605000E0,5.050217267E-3,-2.629073337E-3,-3.658802509E-1,3.659245479E-1
1.487561000E0,4.016111605E-3,-5.323393270E-3,-3.607254326E-1,3.607870638E-1
1.497517000E0,2.277974505E-3,-1.370309852E-3,-3.624158800E-1,3.624256296E-1
1.507473000E0,3.644175828E-3,-4.390867427E-3,-3.657323122E-1,3.657768226E-1
1.517429000E0,3.597550560E-3,-1.933266409E-3,-3.673496842E-1,3.673723865E-1
1.527386000E0,2.843875904E-3,-1.079989597E-3,-3.679629862E-1,3.679755607E-1
1.537342000E0,1.607210026E-3,-1.629916020E-3,-3.603256047E-1,3.603328755E-1
1.547298000E0,2.827470424E-3,-3.296256065E-3,-3.480257988E-1,3.480528933E-1
1.557254000E0,3.538401099E-3,-2.204418182E-3,-3.452083468E-1,3.452335188E-1
1.567210000E0,4.805000499E-3,-2.472865395E-3,-3.529435098E-1,3.529848782E-1
1.577166000E0,5.325127859E-3,-2.482498065E-3,-3.660177588E-1,3.660649117E-1
1.587122000E0,5.344835110E-3,-1.516037621E-3,-3.759678602E-1,3.760089062E-1
1.597078000E0,5.506741814E-3,-2.989302389E-3,-3.782018721E-1,3.782537722E-1
1.607034000E0,3.502446692E-3,-1.508851536E-3,-3.682597578E-1,3.682795038E-1
1.616990000E0,3.714865772E-3,-3.310852684E-3,-3.587552607E-1,3.587897700E-1
1.626947000E0,4.452561028E-3,-2.460772172E-3,-3.486363292E-1,3.486734442E-1
1.636903000E0,2.251756378E-3,-4.732591100E-3,-3.460154831E-1,3.460551725E-1
1.646859000E0,2.580656903E-3,-2.583420835E-3,-3.510355353E-1,3.510545270E-1
1.656815000E0,4.503886215E-3,-6.155118346E-3,-3.670804203E-1,3.671596457E-1
1.666771000E0,4.083905835E-3,-4.831170663E-4,-3.728539050E-1,3.728765830E-1
1.676727000E0,4.809658043E-3,-6.800983101E-4,-3.709833622E-1,3.710151619E-1
1.686683000E0,4.383285996E-3,-3.570159897E-3,-3.654623628E-1,3.655060845E-1
1.696639000E0,8.971506031E-4,-5.183717236E-3,-3.596780002E-1,3.597164712E-1
1.706595000E0,1.191962510E-3,-2.993267030E-3,-3.580534756E-1,3.580679710E-1
1.716552000E0,3.632602748E-3,-2.052943222E-3,-3.593493402E-1,3.593735642E-1
1.726508000E0,5.479238927E-3,-2.265996300E-3,-3.596393466E-1,3.596882211E-1
1.736464000E0,2.429631539E-3,-3.053890541E-3,-3.604032397E-1,3.604243673E-1
1.746420000E0,5.219559185E-3,-4.658298567E-4,-3.605233431E-1,3.605614257E-1
1.756376000E0,3.745489055E-3,-3.249972127E-3,-3.621655107E-1,3.621994590E-1
1.766332000E0,3.510065610E-3,-5.040415563E-3,-3.604480326E-1,3.605003614E-1
1.776288000E0,3.672415856E-3,-2.298860811E-3,-3.637597561E-1,3.637855571E-1
1.786244000E0,1.370645827E-3,-4.533786327E-3,-3.624907732E-1,3.625217160E-1
1.796200000E0,4.761497956E-3,-4.290342331E-3,-3.688270450E-1,3.688827293E-1
1.806156000E0,3.394230967E-3,-2.294569276E-3,-3.652898371E-1,3.653128125E-1
1.816113000E0,4.290103447E-3,5.342848599E-4,-3.630854785E-1,3.631112160E-1
1.826069000E0,4.136172589E-3,-1.198634505E-3,-3.564424813E-1,3.564684939E-1
1.836025000E0,1.045820187E-3,-2.836900763E-3,-3.506224155E-1,3.506354518E-1
1.845981000E0,3.601922188E-3,-4.305367358E-3,-3.478836119E-1,3.479288972E-1
1.855937000E0,4.043024033E-3,-5.598161370E-3,-3.543243110E-1,3.543915953E-1
1.865893000E0,2.873363905E-3,-2.139779739E-3,-3.643101156E-1,3.643277305E-1
1.875849000E0,3.893245477E-3,-4.052701406E-3,-3.681494594E-1,3.681923494E-1
1.885805000E0,4.164887592E-3,-1.664644107E-3,-3.695982099E-1,3.696254240E-1
1.895761000E0,5.289405119E-3,-4.007794894E-3,-3.641385138E-1,3.641989806E-1
1.905718000E0,3.963151015E-3,-3.367303871E-3,-3.564086854E-1,3.564466248E-1
1.915674000E0,2.772950102E-3,-2.487082966E-3,-3.559228182E-1,3.559423090E-1
1.925630000E0,2.922886051E-3,-6.126026623E-3,-3.574714363E-1,3.575358712E-1
1.935586000E0,5.007429980E-3,-3.630939871E-3,-3.602164090E-1,3.602695094E-1
1.945542000E0,4.032713361E-3,-2.487378195E-3,-3.588299453E-1,3.588612259E-1
1.955498000E0,1.963695046E-3,-3.670423292E-3,-3.621455729E-1,3.621694963E-1
1.965454000E0,2.897399478E-3,-2.481055446E-3,-3.636417389E-1,3.636617451E-1
1.975410000E0,2.679249505E-3,-2.618339844E-3,-3.667876720E-1,3.668068026E-1
1.985366000E0,4.231073428E-3,-1.039884984E-3,-3.693784177E-1,3.694041132E-1
1.995322000E0,5.337005481E-3,-2.466458827E-3,-3.672573566E-1,3.673044147E-1
2.005279000E0,5.130610429E-3,-3.314409405E-3,-3.581682444E-1,3.582203229E-1
2.015235000E0,3.648461774E-3,-3.423919901E-3,-3.549155593E-1,3.549508258E-1
2.025191000E0,2.885199618E-3,-6.199998781E-3,-3.517586291E-1,3.518250950E-1
2.035147000E0,3.915114794E-3,-3.590224311E-3,-3.549859822E-1,3.550257250E-1
2.045103000E0,5.633120425E-3,-2.780889161E-3,-3.656988144E-1,3.657527693E-1
2.055059000E0,6.282297894E-3,-4.120552912E-4,-3.684437573E-1,3.684975432E-1
2.065015000E0,3.931578249E-5,-2.923415974E-3,-3.589234948E-1,3.589354023E-1
2.074971000E0,9.120713221E-4,-2.010145225E-3,-3.540491462E-1,3.540560273E-1
2.084927000E0,4.547552206E-3,-3.439197317E-3,-3.531785309E-1,3.532245504E-1
2.094883000E0,3.589089960E-3,-3.289313987E-3,-3.555120528E-1,3.555453850E-1
2.104839000E0,3.568849992E-3,-6.154876202E-3,-3.676038980E-1,3.676727418E-1
2.114796000E0,5.801796913E-3,-1.894179732E-4,-3.724409044E-1,3.724861393E-1
2.124752000E0,7.628725842E-3,-3.820905462E-3,-3.691076934E-1,3.692062921E-1
2.134708000E0,4.279900808E-3,-3.915037960E-3,-3.592323065E-1,3.592791326E-1
2.144664000E0,1.493701595E-3,-3.956049681E-3,-3.501021862E-1,3.501277228E-1
2.154620000E0,2.285626717E-3,-4.086100496E-3,-3.474306166E-1,3.474621615E-1
2.164576000E0,4.191651009E-3,-4.162265919E-3,-3.526464105E-1,3.526958820E-1
2.174532000E0,4.019315820E-3,-1.336636022E-3,-3.667819202E-1,3.668063774E-1
2.184488000E0,2.453110646E-3,-2.036514692E-3,-3.798843920E-1,3.798977710E-1
2.194444000E0,3.239667974E-3,-4.496284761E-3,-3.806219399E-1,3.806622823E-1
2.204401000E0,1.152016106E-3,-2.220080234E-3,-3.686726093E-1,3.686810936E-1
2.214357000E0,2.988425782E-3,-6.832404993E-3,-3.559093773E-1,3.559874960E-1
2.224313000E0,5.030537955E-3,-2.996388823E-3,-3.435595036E-1,3.436093962E-1
2.234269000E0,4.775106441E-3,-6.933127530E-3,-3.413671255E-1,3.414709128E-1
2.244225000E0,3.978022374E-3,-4.776232876E-3,-3.531289697E-1,3.531836722E-1
2.254181000E0,4.202723503E-3,-1.255715266E-3,-3.677212894E-1,3.677474492E-1
2.264137000E0,3.501512809E-3,-1.308415085E-5,-3.812272549E-1,3.812433352E-1
2.274093000E0,3.694267944E-3,-4.031999037E-3,-3.770252168E-1,3.770648734E-1
2.284049000E0,1.306211459E-3,-3.673005849E-3,-3.668133318E-1,3.668340464E-1
2.294005000E0,4.634487443E-3,-3.079897724E-3,-3.579118550E-1,3.579551092E-1
2.303962000E0,2.975870855E-3,-5.285260268E-3,-3.515186608E-1,3.515709867E-1
2.313918000E0,1.008868683E-3,-2.852212638E-3,-3.516655564E-1,3.516785699E-1
2.323874000E0,3.250717651E-3,-5.086338148E-3,-3.623482883E-1,3.623985652E-1
2.333830000E0,4.332524724E-3,-3.472455777E-3,-3.749389350E-1,3.749800444E-1
2.343786000E0,3.836111631E-3,-1.553115435E-3,-3.771549463E-1,3.771776524E-1
2.353742000E0,4.592231475E-3,-9.209038690E-4,-3.689376712E-1,3.689673995E-1
2.363698000E0,2.541064518E-3,-3.502039239E-3,-3.607402146E-1,3.607661621E-1
2.373654000E0,1.232788083E-3,-3.903082572E-3,-3.532015681E-1,3.532252844E-1
2.383610000E0,5.086648278E-3,-3.339824267E-3,-3.601332307E-1,3.601846363E-1
2.393566000E0,2.703438513E-3,-3.379862756E-3,-3.631213009E-1,3.631470931E-1
2.403522417E0,2.200900111E-3,-1.984898932E-3,-3.664917946E-1,3.665037780E-1
2.413478417E0,3.584366059E-3,2.372516319E-4,-3.639671504E-1,3.639848768E-1
2.423434417E0,1.563825761E-3,-2.852814272E-3,-3.564605117E-1,3.564753575E-1
2.433390417E0,2.556444146E-3,-2.131764777E-3,-3.570706248E-1,3.570861394E-1
2.443346417E0,4.098946694E-3,-4.441257566E-3,-3.566924632E-1,3.567436606E-1
2.453302417E0,4.577928339E-4,-3.979341127E-3,-3.565017283E-1,3.565242306E-1
2.463258417E0,4.090344533E-3,-4.847000353E-3,-3.629314005E-1,3.629868122E-1
2.473214417E0,1.017769100E-3,-3.199396655E-3,-3.663830459E-1,3.663984284E-1
2.483170417E0,3.499302547E-3,-3.747476265E-3,-3.691974878E-1,3.692330886E-1
2.493126417E0,2.167584142E-3,2.159681171E-4,-3.609851301E-1,3.609917024E-1
2.503083417E0,9.505195776E-4,-2.905257046E-3,-3.560769260E-1,3.560900465E-1
2.513039417E0,2.357722493E-3,3.078430891E-4,-3.520224392E-1,3.520304694E-1
2.522995417E0,1.066089375E-3,-3.564394079E-3,-3.529396355E-1,3.529592438E-1
2.532951417E0,-1.201208215E-5,-3.503518179E-3,-3.567088842E-1,3.567260894E-1
2.542907417E0,3.294036258E-3,-4.701407626E-3,-3.580660224E-1,3.581120360E-1
2.552863417E0,3.245793749E-3,-4.458979703E-3,-3.602682054E-1,3.603104183E-1
2.562819417E0,3.647398204E-3,-3.538590856E-3,-3.606301248E-1,3.606659286E-1
2.572775417E0,3.443847410E-3,-3.303046338E-3,-3.594003618E-1,3.594320384E-1
2.582731417E0,4.751817323E-5,-2.851108089E-3,-3.603119850E-1,3.603232682E-1
2.592687417E0,3.376465756E-3,-9.301248938E-4,-3.573935628E-1,3.574107223E-1
2.602643417E0,4.472623114E-3,-1.074201427E-3,-3.571392298E-1,3.571688504E-1
2.612600417E0,4.580656067E-3,-1.294784248E-3,-3.531135917E-1,3.531456746E-1
2.622556417E0,4.042164423E-3,-4.541710950E-3,-3.556417227E-1,3.556936901E-1
2.632512417E0,2.069985960E-3,-3.567590378E-3,-3.575654328E-1,3.575892214E-1
2.642468417E0,2.238031477E-3,-3.431770019E-3,-3.585153818E-1,3.585387912E-1
2.652424417E0,4.631355405E-3,-2.110414207E-3,-3.641940355E-1,3.642295963E-1
2.662380417E0,4.290204495E-3,-4.616183229E-3,-3.640933633E-1,3.641478988E-1
2.672336417E0,3.540280275E-3,-1.923448406E-3,-3.641804159E-1,3.642027025E-1
2.682292417E0,4.596489947E-3,-2.127446234E-3,-3.618719876E-1,3.619074317E-1
2.692248417E0,1.664664829E-3,-2.870067954E-3,-3.575653732E-1,3.575807664E-1
2.702204417E0,4.002653994E-3,-2.963012084E-3,-3.500959873E-1,3.501314054E-1
2.712161417E0,1.059611910E-3,-5.395400338E-3,-3.493948579E-1,3.494381202E-1
2.722117417E0,5.194702186E-3,-3.342104144E-3,-3.574138880E-1,3.574672599E-1
2.732073417E0,5.599926692E-3,-3.028305247E-3,-3.669305146E-1,3.669857386E-1
2.742029417E0,6.858621491E-4,6.362423301E-5,-3.736201227E-1,3.736207576E-1
2.751985417E0,-1.564734848E-4,-1.480249688E-3,-3.697914779E-1,3.697944737E-1
2.761941417E0,1.893627923E-3,-1.756685786E-3,-3.631250560E-1,3.631342425E-1
2.771897417E0,3.854340874E-3,-6.151500158E-3,-3.575806916E-1,3.576543693E-1
2.781853417E0,6.049051881E-3,-4.754672758E-3,-3.583974838E-1,3.584800613E-1
2.791809417E0,3.219891572E-3,-5.306045525E-3,-3.631349206E-1,3.631879574E-1
2.801765417E0,7.088932209E-3,-3.940376453E-3,-3.657232523E-1,3.658131720E-1
2.811722417E0,2.960484941E-3,-1.551531255E-3,-3.632909358E-1,3.633063112E-1
2.821678417E0,2.701359335E-3,-3.148894757E-3,-3.558351696E-1,3.558593553E-1
2.831634417E0,3.065650351E-3,-3.500621766E-3,-3.508268893E-1,3.508577472E-1
2.841590417E0,4.081912804E-3,-4.001561552E-3,-3.515781760E-1,3.516246413E-1
2.851546417E0,4.531832412E-3,-5.535000935E-3,-3.572128117E-1,3.572844337E-1
2.861502417E0,2.868688200E-3,-4.450561479E-3,-3.661634326E-1,3.662017152E-1
2.871458417E0,3.106150776E-3,2.159811556E-4,-3.727211356E-1,3.727341409E-1
2.881414417E0,4.026539158E-3,-2.027465962E-3,-3.654065132E-1,3.654343218E-1
2.891370417E0,3.611775581E-3,-2.185349353E-3,-3.582212925E-1,3.582461655E-1
2.901326417E0,2.747579478E-3,-2.726503648E-3,-3.531442583E-1,3.531654714E-1
2.911282417E0,5.681750830E-3,-1.564339735E-3,-3.580011725E-1,3.580496739E-1
2.921239417E0,3.705951851E-3,-8.775107563E-4,-3.681747019E-1,3.681943987E-1
2.931195417E0,5.007502623E-3,-9.625675157E-4,-3.762424290E-1,3.762769818E-1
2.941151417E0,3.473255783E-3,-5.327487364E-3,-3.752831519E-1,3.753370348E-1
2.951107417E0,5.376538262E-3,-3.985909745E-3,-3.707405627E-1,3.708009701E-1
2.961063417E0,3.355731722E-3,-3.318522125E-3,-3.622679710E-1,3.622987115E-1
2.971019417E0,3.221275983E-3,-9.726081043E-4,-3.564385176E-1,3.564544002E-1
2.980975417E0,2.563741524E-3,-4.769477993E-3,-3.537969291E-1,3.538383639E-1
2.990931417E0,5.452649202E-3,-3.682642244E-3,-3.574252427E-1,3.574858002E-1
3.000887417E0,2.561521716E-3,-3.632041626E-3,-3.594588339E-1,3.594863091E-1
3.010843417E0,3.841704223E-3,-2.255643718E-3,-3.598770201E-1,3.599045932E-1
3.020799417E0,5.617233925E-3,-4.832518287E-3,-3.596383929E-1,3.597147206E-1
3.030756417E0,2.912829164E-3,-1.186608337E-3,-3.581739068E-1,3.581877163E-1
3.040712417E0,2.688324545E-3,-4.404772073E-3,-3.579829335E-1,3.580201249E-1
3.050668417E0,1.221797778E-3,-4.575439729E-3,-3.600273430E-1,3.600584885E-1
3.060624417E0,2.146180952E-3,-2.004423179E-3,-3.644620180E-1,3.644738487E-1
3.070580417E0,3.692705184E-3,-2.036649734E-3,-3.691569567E-1,3.691810432E-1
3.080536417E0,2.949417103E-3,-1.459809020E-3,-3.660250604E-1,3.660398543E-1
3.090492417E0,3.220967017E-3,-2.140317112E-3,-3.608390987E-1,3.608598214E-1
3.100448417E0,3.569042310E-3,-3.362708725E-3,-3.521622419E-1,3.521963806E-1
3.110404417E0,4.381737672E-3,-1.305147074E-3,-3.488697708E-1,3.488997277E-1
3.120360417E0,3.984926268E-3,-3.401054069E-3,-3.528352380E-1,3.528741305E-1
3.130317417E0,2.786772791E-3,-3.321209922E-3,-3.617974818E-1,3.618234574E-1
3.140273417E0,8.583675139E-3,-1.058322378E-3,-3.692130446E-1,3.693143266E-1
3.150229417E0,3.719603177E-3,-9.858692065E-4,-3.739459515E-1,3.739657498E-1
3.160185417E0,4.234924912E-3,-8.628312498E-4,-3.666211963E-1,3.666466700E-1
3.170141417E0,3.635382513E-3,-2.495598048E-3,-3.607087433E-1,3.607356948E-1
3.180097417E0,3.177851439E-3,-5.382730626E-3,-3.533768058E-1,3.534320860E-1
3.190053417E0,4.087178968E-3,-3.187967464E-3,-3.473613858E-1,3.474000583E-1
3.200009417E0,4.328994080E-3,-4.626339301E-3,-3.491052389E-1,3.491627286E-1
3.209965417E0,4.202655051E-3,-3.318971023E-3,-3.601053953E-1,3.601452118E-1
3.219921417E0,4.584819078E-3,-2.787937410E-3,-3.709766865E-1,3.710154917E-1
3.229877417E0,3.703881521E-3,-1.631672494E-3,-3.705673516E-1,3.705894536E-1
3.239834417E0,4.108415917E-3,-1.667625271E-3,-3.693273962E-1,3.693540112E-1
3.249790417E0,4.069893155E-3,-1.493079588E-3,-3.572871983E-1,3.573134974E-1
3.259746417E0,4.125020467E-3,-2.482976764E-3,-3.530586362E-1,3.530914634E-1
3.269702417E0,4.360202234E-3,-4.369332455E-3,-3.561002910E-1,3.561537866E-1
3.279658417E0,2.785741352E-3,-1.798050478E-3,-3.619222343E-1,3.619374214E-1
3.289614417E0,3.929690924E-3,-3.295723349E-3,-3.671408296E-1,3.671766509E-1
3.299570417E0,2.712892601E-3,-1.201946288E-3,-3.627346158E-1,3.627467518E-1
3.309526417E0,2.588769421E-3,-2.310374752E-3,-3.543674052E-1,3.543843922E-1
3.319482417E0,2.964807907E-3,-1.157492399E-3,-3.461108208E-1,3.461254543E-1
3.329438417E0,2.388622612E-3,-2.184764482E-3,-3.439078331E-1,3.439230675E-1
3.339395417E0,5.079746712E-3,-3.476131707E-3,-3.559349477E-1,3.559881660E-1
3.349351417E0,3.729644697E-3,-2.246828750E-3,-3.724197149E-1,3.724451672E-1
3.359307417E0,3.808740526E-3,-3.352839500E-3,-3.817016184E-1,3.817353449E-1
3.369263417E0,3.041359596E-3,-2.180039883E-4,-3.778628111E-1,3.778751135E-1
3.379219417E0,4.160952289E-3,2.048346214E-3,-3.624782860E-1,3.625079545E-1
3.389175417E0,3.252395662E-3,-1.179889776E-3,-3.482448757E-1,3.482620617E-1
3.399131250E0,1.565815648E-3,-7.495228201E-4,-3.419712782E-1,3.419756843E-1
3.409087250E0,4.870566539E-3,-6.311690435E-3,-3.488249183E-1,3.489160120E-1
3.419043250E0,5.443412811E-3,-9.371647611E-4,-3.664880693E-1,3.665296904E-1
3.428999250E0,1.822272781E-3,-1.516303979E-3,-3.722756207E-1,3.722831686E-1
3.438955250E0,6.114489399E-3,-4.658035003E-3,-3.723440766E-1,3.724234091E-1
3.448912250E0,4.394144751E-3,-2.862972207E-3,-3.689592183E-1,3.689964903E-1
3.458868250E0,7.160636596E-3,-1.488780603E-3,-3.620086312E-1,3.620825048E-1
3.468824250E0,2.356383018E-3,-4.227729514E-3,-3.580443859E-1,3.580770986E-1
3.478780250E0,2.109508030E-3,-3.490565345E-3,-3.633123636E-1,3.633352551E-1
3.488736250E0,5.717855413E-3,-4.419849254E-3,-3.659347296E-1,3.660060864E-1
3.498692250E0,2.146289917E-3,-1.639243215E-3,-3.693052232E-1,3.693150980E-1
3.508648250E0,3.111528233E-3,-3.939298913E-4,-3.702768981E-1,3.702901809E-1
3.518604250E0,2.226293553E-3,-9.103678167E-6,-3.644576371E-1,3.644644368E-1
3.528560250E0,5.041920114E-3,-4.717759788E-3,-3.560252190E-1,3.560921717E-1
3.538516250E0,2.612052020E-3,-3.603760153E-3,-3.535820246E-1,3.536100366E-1
3.548472250E0,4.744117614E-3,-2.656769007E-3,-3.545232415E-1,3.545649360E-1
3.558429250E0,5.205377005E-3,-1.565138809E-3,-3.551085889E-1,3.551501873E-1
3.568385250E0,2.433296759E-3,-2.554068342E-3,-3.618797064E-1,3.618968998E-1
3.578341250E0,5.118561909E-3,-4.193777218E-3,-3.655822873E-1,3.656421697E-1
3.588297250E0,2.622731496E-3,-2.342638560E-3,-3.590365648E-1,3.590537864E-1
3.598253250E0,2.589175943E-3,-3.489662893E-3,-3.595122099E-1,3.595384689E-1
3.608209250E0,1.894016052E-3,-1.374618150E-3,-3.565645814E-1,3.565722614E-1
3.618165250E0,8.199849166E-3,-3.924594261E-3,-3.623769283E-1,3.624909353E-1
3.628121250E0,3.711930476E-3,-4.090145230E-4,-3.725957870E-1,3.726145009E-1
3.638077250E0,3.031759057E-3,-4.150490277E-3,-3.791160285E-1,3.791508687E-1
3.648033250E0,1.843798091E-3,-2.264715731E-3,-3.726539910E-1,3.726654338E-1
3.657990250E0,5.325881299E-3,-2.091876231E-3,-3.598303497E-1,3.598758418E-1
3.667946250E0,3.153063590E-3,-3.481852822E-3,-3.525747359E-1,3.526060259E-1
3.677902250E0,3.254263662E-3,-3.263474442E-3,-3.454489112E-1,3.454796531E-1
3.687858250E0,2.315314487E-5,-4.985406995E-3,-3.532803655E-1,3.533155409E-1
3.697814250E0,1.824515406E-3,-2.362459898E-3,-3.709565699E-1,3.709685793E-1
3.707770250E0,1.330294763E-4,-1.014468260E-3,-3.792390823E-1,3.792404625E-1
3.717726250E0,3.118166700E-3,-1.602760516E-3,-3.796084523E-1,3.796246421E-1
3.727682250E0,1.285241335E-3,-1.126721501E-3,-3.639330566E-1,3.639370701E-1
3.737638250E0,2.128664404E-3,-2.834605984E-3,-3.528774977E-1,3.528953026E-1
3.747594250E0,3.411770798E-3,-3.877531737E-3,-3.437182307E-1,3.437570327E-1
3.757550250E0,6.839792244E-3,-4.773417488E-3,-3.468506336E-1,3.469509048E-1
3.767507250E0,3.931376152E-3,-3.457293846E-3,-3.571941257E-1,3.572324901E-1
3.777463250E0,4.122747923E-4,-3.255958669E-3,-3.710593283E-1,3.710738422E-1
3.787419250E0,2.586787799E-3,-2.171963453E-3,-3.804998994E-1,3.805148911E-1
3.797375250E0,3.581478493E-3,-9.841928259E-4,-3.775523305E-1,3.775705999E-1
3.807331250E0,4.188623279E-3,-3.624381498E-4,-3.638279140E-1,3.638522048E-1
3.817287250E0,3.035208210E-3,-1.710530370E-3,-3.497914374E-1,3.498087879E-1
3.827243250E0,5.027103703E-3,-3.424333408E-3,-3.446027339E-1,3.446564115E-1
3.837199250E0,2.632123185E-3,-1.354790293E-3,-3.510252237E-1,3.510377063E-1
3.847155250E0,1.311733853E-3,-2.073796466E-3,-3.621892631E-1,3.621975753E-1
3.857111250E0,2.340513049E-3,-3.285001963E-3,-3.685651422E-1,3.685872125E-1
3.867067250E0,4.583570408E-4,-2.311732620E-3,-3.684139252E-1,3.684214631E-1
3.877024250E0,3.514334559E-3,9.098937735E-4,-3.621421754E-1,3.621603701E-1
3.886980250E0,2.238760702E-3,-3.206674010E-3,-3.508697748E-1,3.508915697E-1
3.896936250E0,1.680562156E-3,-2.870051190E-3,-3.442214727E-1,3.442375398E-1
3.906892250E0,4.139721394E-3,-3.614569083E-3,-3.454222977E-1,3.454660130E-1
3.916848250E0,7.263875566E-3,-5.070254207E-3,-3.602350652E-1,3.603439657E-1
3.926804250E0,3.535273019E-3,-4.360517487E-4,-3.740002811E-1,3.740172437E-1
3.936760250E0,2.051625866E-3,-6.301961839E-4,-3.776429594E-1,3.776490581E-1
3.946716250E0,2.993545495E-3,-4.366655834E-3,-3.680015504E-1,3.680396312E-1
3.956672250E0,4.445500672E-3,-5.142967217E-3,-3.553600609E-1,3.554250772E-1
3.966628250E0,5.929302890E-3,-2.082122490E-3,-3.460808992E-1,3.461379504E-1
3.976585250E0,4.872826859E-3,-3.095720895E-3,-3.428653777E-1,3.429139763E-1
3.986541250E0,4.814715125E-3,3.301333636E-4,-3.563081324E-1,3.563408140E-1
3.996497250E0,5.185959861E-3,-1.707984135E-3,-3.655916452E-1,3.656324144E-1
4.006453250E0,3.105978016E-3,3.336267546E-4,-3.708570302E-1,3.708701865E-1
4.016409250E0,4.628507420E-3,-8.285762742E-4,-3.722344041E-1,3.722641014E-1
4.026365250E0,3.704728559E-3,-9.998315945E-4,-3.604194224E-1,3.604398490E-1
4.036321250E0,2.175275236E-3,-3.937033005E-3,-3.531415164E-1,3.531701611E-1
4.046277250E0,5.431666970E-3,-2.708209679E-3,-3.438265324E-1,3.438800979E-1
4.056233250E0,2.196192276E-3,-2.947362140E-3,-3.458579779E-1,3.458775087E-1
4.066189250E0,5.075100344E-3,-3.150446340E-3,-3.548531234E-1,3.549033969E-1
4.076145250E0,1.925912569E-3,-2.343242057E-3,-3.642351925E-1,3.642478214E-1
4.086101250E0,3.661918687E-3,-1.902264543E-3,-3.731797338E-1,3.732025481E-1
4.096058250E0,4.118384793E-3,-2.263654955E-3,-3.716374636E-1,3.716671758E-1
4.106014250E0,4.030359909E-3,-2.659764141E-3,-3.604619205E-1,3.604942639E-1
4.115970250E0,8.333762176E-3,-4.367383197E-3,-3.581241965E-1,3.582477715E-1
4.125926250E0,4.559929017E-3,-3.637503833E-3,-3.587167859E-1,3.587642079E-1
4.135882250E0,1.990244724E-3,-3.433771431E-3,-3.647541702E-1,3.647757620E-1
4.145838250E0,4.061637446E-4,6.520748138E-5,-3.720176816E-1,3.720179090E-1
4.155794250E0,6.225436926E-3,-3.066136502E-3,-3.686043024E-1,3.686696204E-1
4.165750250E0,4.155422561E-3,-3.034992144E-3,-3.612686098E-1,3.613052548E-1
4.175706250E0,4.902971908E-3,-3.628076985E-3,-3.548466563E-1,3.548990724E-1
4.185662250E0,5.603784230E-3,-3.206338733E-3,-3.478996456E-1,3.479595471E-1
4.195618250E0,3.781649750E-3,-2.378627658E-3,-3.487212360E-1,3.487498519E-1
4.205575250E0,2.811291721E-3,-2.633761615E-4,-3.587327302E-1,3.587438423E-1
4.215531250E0,2.506622113E-4,-1.454608515E-3,-3.682625890E-1,3.682655471E-1
4.225487250E0,2.988125663E-3,-2.193930559E-3,-3.752809167E-1,3.752992255E-1
4.235443250E0,1.074378029E-3,2.194261178E-4,-3.722398579E-1,3.722414730E-1
4.245399250E0,1.773615018E-3,-2.821118571E-3,-3.643901348E-1,3.644053715E-1
4.255355250E0,5.447445437E-3,-3.253883682E-3,-3.567902744E-1,3.568466930E-1
4.265311250E0,3.082140815E-3,-1.334760338E-3,-3.520378172E-1,3.520538396E-1
4.275267250E0,3.514105454E-3,-3.869823180E-3,-3.525398374E-1,3.525785890E-1
4.285223250E0,2.444527578E-3,-2.927162685E-3,-3.605452180E-1,3.605653869E-1
4.295179250E0,3.814457450E-3,-1.960435882E-3,-3.727371693E-1,3.727618419E-1
4.305135250E0,2.531907056E-3,-2.013399266E-3,-3.785572350E-1,3.785710561E-1
4.315092250E0,3.548968583E-3,-2.506350167E-3,-3.789700270E-1,3.789949318E-1
4.325048250E0,1.023383462E-3,-1.790022478E-3,-3.683541417E-1,3.683599126E-1
4.335004250E0,3.929425031E-3,-3.787393682E-3,-3.580445349E-1,3.580861261E-1
4.344960250E0,1.382577699E-3,-3.159900196E-3,-3.481537700E-1,3.481708547E-1
4.354916250E0,3.697130829E-3,-2.718615346E-3,-3.472104967E-1,3.472408223E-1
4.364872250E0,5.182281602E-3,-2.194317058E-4,-3.549034894E-1,3.549413909E-1
4.374828250E0,4.549514968E-3,-4.470102489E-3,-3.678400815E-1,3.678953729E-1
4.384784250E0,2.268118318E-3,-3.881695680E-3,-3.724370003E-1,3.724641340E-1
4.394740250E0,4.394119605E-3,-1.897906885E-3,-3.724937439E-1,3.725244953E-1
4.404696625E0,1.069363789E-3,-2.851475962E-3,-3.626385331E-1,3.626513204E-1
4.414652625E0,4.007363226E-3,-1.508976333E-3,-3.557446897E-1,3.557704600E-1
4.424608625E0,3.782132408E-3,-2.801458351E-3,-3.529000878E-1,3.529314731E-1
4.434565625E0,3.517147852E-3,-3.160986118E-3,-3.580021858E-1,3.580334163E-1
4.444521625E0,1.204233849E-3,-1.868182793E-3,-3.681707978E-1,3.681775070E-1
4.454477625E0,1.128067495E-3,-1.664226875E-4,-3.672144711E-1,3.672162415E-1
4.464433625E0,5.732033402E-3,-2.328104340E-3,-3.642462194E-1,3.642987574E-1
4.474389625E0,3.167409450E-3,-2.304135822E-3,-3.589262962E-1,3.589476670E-1
4.484345625E0,2.436207840E-3,-1.047314145E-3,-3.500891328E-1,3.500991758E-1
4.494301625E0,5.397642963E-3,-2.369839698E-3,-3.546122313E-1,3.546612260E-1
4.504257625E0,5.229726434E-3,-5.451894365E-3,-3.646949232E-1,3.647731626E-1
4.514213625E0,4.643830936E-3,-1.567142084E-3,-3.755425215E-1,3.755745020E-1
4.524169625E0,6.024720613E-3,-1.649652608E-3,-3.735317290E-1,3.735839546E-1
4.534125625E0,5.671585444E-3,-2.940486185E-3,-3.652828336E-1,3.653386947E-1
4.544081625E0,3.636498237E-3,-3.355210647E-3,-3.560323715E-1,3.560667509E-1
4.554038625E0,2.308379859E-3,-3.021784127E-3,-3.441858292E-1,3.442068343E-1
4.563994625E0,5.315034650E-3,-1.514882781E-3,-3.550134003E-1,3.550564165E-1
4.573950625E0,4.776277114E-3,-1.906633377E-3,-3.658159673E-1,3.658521150E-1
4.583906625E0,1.800682163E-3,-2.895807847E-3,-3.731831014E-1,3.731986808E-1
4.593862625E0,2.466206206E-3,1.772139221E-4,-3.733881712E-1,3.733963577E-1
4.603818625E0,3.176775295E-3,-1.412869431E-3,-3.618601561E-1,3.618768584E-1
4.613774625E0,2.785024233E-3,-3.323419951E-3,-3.525646627E-1,3.525913256E-1
4.623730625E0,4.393298179E-3,-2.288989723E-3,-3.458914161E-1,3.459268886E-1
4.633686625E0,5.764293484E-3,-2.525212243E-3,-3.524449170E-1,3.525010968E-1
4.643642625E0,6.764034275E-3,-9.843586013E-4,-3.599570096E-1,3.600219019E-1
4.653598625E0,2.306435257E-3,-4.514379427E-3,-3.671709597E-1,3.672059544E-1
4.663555625E0,2.681384794E-3,-2.830261365E-3,-3.674106598E-1,3.674313448E-1
4.673511625E0,1.065911376E-3,-4.105120897E-4,-3.621399999E-1,3.621418012E-1
4.683467625E0,5.003814586E-3,-5.263223313E-3,-3.593343794E-1,3.594077572E-1
4.693423625E0,4.270113539E-3,4.852088168E-4,-3.614446521E-1,3.614702005E-1
4.703379625E0,3.010779619E-3,-4.368871450E-4,-3.698846102E-1,3.698971215E-1
4.713335625E0,1.078123460E-3,-2.130923793E-3,-3.732021153E-1,3.732097561E-1
4.723291625E0,2.877572086E-3,-2.404503524E-3,-3.758721054E-1,3.758908108E-1
4.733247625E0,2.605397254E-3,-2.867894247E-3,-3.646367490E-1,3.646573346E-1
4.743203625E0,2.605488757E-3,-1.751519740E-3,-3.530065119E-1,3.530204723E-1
4.753159625E0,3.419084474E-3,-3.996032290E-3,-3.472090662E-1,3.472488935E-1
4.763115625E0,4.318364896E-3,-2.282205038E-3,-3.531062603E-1,3.531400399E-1
4.773071625E0,3.422743874E-3,-2.092055045E-3,-3.639807403E-1,3.640028450E-1
4.783028625E0,2.918484155E-3,-4.038978368E-4,-3.749751747E-1,3.749867495E-1
4.792984625E0,3.526750021E-3,-3.547226079E-3,-3.735029995E-1,3.735364928E-1
4.802940625E0,2.903712448E-5,-2.045242116E-3,-3.662376106E-1,3.662433225E-1
4.812896625E0,2.265826100E-3,-2.981610596E-3,-3.589501381E-1,3.589696723E-1
4.822852625E0,5.361980759E-3,-1.343651675E-3,-3.477505445E-1,3.477944759E-1
4.832808625E0,4.683141131E-3,-2.770042047E-3,-3.477337360E-1,3.477763018E-1
4.842764625E0,4.010258708E-3,-3.629451618E-3,-3.541318178E-1,3.541731208E-1
4.852720625E0,3.365241457E-3,-3.085367382E-3,-3.575046957E-1,3.575338470E-1
4.862676625E0,2.360112499E-3,-7.615881041E-4,-3.664365709E-1,3.664449626E-1
4.872632625E0,2.306050388E-3,-2.049226314E-3,-3.687431216E-1,3.687560263E-1
4.882588625E0,2.133439761E-3,-3.842944279E-4,-3.610477746E-1,3.610542823E-1
4.892545625E0,3.291914938E-3,-3.331620246E-4,-3.525696099E-1,3.525851351E-1
4.902501625E0,2.961844206E-3,-1.148295589E-3,-3.511470854E-1,3.511614539E-1
4.912457625E0,4.602084868E-3,-1.770676114E-3,-3.486714065E-1,3.487062721E-1
4.922413625E0,5.899229553E-3,1.867529936E-3,-3.559010625E-1,3.559548495E-1
4.932369625E0,4.422507249E-3,-2.376986668E-4,-3.635438085E-1,3.635707850E-1
4.942325625E0,4.418417346E-3,-1.124148257E-3,-3.617240489E-1,3.617527797E-1
4.952281625E0,4.090315662E-3,1.067649573E-4,-3.589815497E-1,3.590048678E-1
4.962237625E0,4.552796483E-3,-2.935921773E-3,-3.595005870E-1,3.595414018E-1
4.972193625E0,3.230536822E-3,-2.519935369E-3,-3.578044176E-1,3.578278744E-1
4.982149625E0,5.398356356E-3,-2.898066305E-3,-3.611100912E-1,3.611620675E-1
4.992105625E0,3.720564768E-3,-2.598461695E-3,-3.665751517E-1,3.666032412E-1
5.002061625E0,1.216755714E-3,-1.260184683E-3,-3.688910306E-1,3.688951897E-1
5.012018625E0,6.911126897E-3,-3.310285509E-3,-3.608222008E-1,3.609035636E-1
5.021974625E0,4.670029506E-3,-3.429211676E-3,-3.580384254E-1,3.580853010E-1
5.031930625E0,2.210600534E-3,-3.185000271E-3,-3.529738784E-1,3.529951697E-1
5.041886625E0,4.428895190E-3,-2.964118496E-3,-3.533513248E-1,3.533915107E-1
5.051842625E0,2.714618575E-3,-1.561696641E-3,-3.628971577E-1,3.629106710E-1
5.061798625E0,1.632724423E-3,-3.527396359E-3,-3.703979850E-1,3.704183791E-1
5.071754625E0,3.904134501E-3,-2.014455386E-3,-3.687798381E-1,3.688060049E-1
5.081710625E0,3.972948994E-3,-3.340126015E-3,-3.642743528E-1,3.643113296E-1
5.091666625E0,4.718634300E-3,-1.981913112E-3,-3.609403670E-1,3.609766502E-1
5.101622625E0,5.391319282E-3,-2.968200482E-3,-3.600411117E-1,3.600937082E-1
5.111578625E0,2.777693328E-3,-1.453395002E-3,-3.647972643E-1,3.648107345E-1
5.121534625E0,3.577730618E-3,-4.057098180E-3,-3.697292805E-1,3.697688481E-1
5.131491625E0,1.839219010E-3,-1.273296773E-3,-3.635084033E-1,3.635152862E-1
5.141447625E0,3.633306827E-3,-2.238757908E-3,-3.570442200E-1,3.570697242E-1
5.151403625E0,3.097478766E-3,-1.159378327E-3,-3.561882675E-1,3.562036221E-1
5.161359625E0,4.724624567E-3,-1.419654116E-3,-3.605456352E-1,3.605793846E-1
5.171315625E0,2.722993027E-3,-2.196497284E-3,-3.620894849E-1,3.621063855E-1
5.181271625E0,4.563218914E-3,-3.198341466E-3,-3.675633073E-1,3.676055457E-1
5.191227625E0,4.878005013E-3,-1.847852021E-3,-3.691457510E-1,3.691826038E-1
5.201183625E0,1.889056177E-3,-2.814879641E-3,-3.680353761E-1,3.680509885E-1
5.211139625E0,2.470956882E-3,6.810519844E-4,-3.665048480E-1,3.665138102E-1
5.221095625E0,4.047269467E-3,-3.149649128E-3,-3.566549718E-1,3.566918413E-1
5.231051625E0,5.961283576E-3,-3.588804975E-3,-3.512287736E-1,3.512976912E-1
5.241007625E0,3.284538630E-3,-4.672778770E-3,-3.481657505E-1,3.482125972E-1
5.250964625E0,5.624392070E-3,-2.389650792E-3,-3.575978875E-1,3.576500991E-1
5.260920625E0,3.386475844E-3,-3.547782078E-3,-3.684090674E-1,3.684417130E-1
5.270876625E0,5.998237990E-3,-1.471849158E-3,-3.722749054E-1,3.723261345E-1
5.280832625E0,2.132934518E-3,-4.284091294E-3,-3.750914335E-1,3.751219620E-1
5.290788625E0,4.139093682E-3,-5.548661575E-4,-3.675712049E-1,3.675949274E-1
5.300744625E0,9.384400910E-4,-1.857240684E-3,-3.576456010E-1,3.576516545E-1
5.310700625E0,1.700636814E-3,-2.348795533E-6,-3.469953537E-1,3.469995211E-1
5.320656625E0,3.943871241E-3,-4.143664613E-3,-3.515473008E-1,3.515938407E-1
5.330612625E0,4.430963192E-3,-2.780659124E-3,-3.561607003E-1,3.561991156E-1
5.340568625E0,3.863360267E-3,-1.510148868E-4,-3.710671365E-1,3.710872784E-1
5.350524625E0,2.544829156E-3,-5.576796830E-4,-3.760059774E-1,3.760150026E-1
5.360480625E0,4.397879820E-3,-2.105821855E-3,-3.664549291E-1,3.664873680E-1
5.370437625E0,4.234894179E-3,-2.327396534E-3,-3.604013026E-1,3.604336971E-1
5.380393625E0,3.565647174E-3,-1.796166413E-3,-3.573231995E-1,3.573455036E-1
5.390349625E0,1.022060751E-4,-3.500701860E-4,-3.599056602E-1,3.599058449E-1
5.400305625E0,1.273744274E-3,-2.966277301E-3,-3.609994054E-1,3.610138389E-1
5.410261625E0,1.945659751E-3,-1.944689080E-3,-3.639281094E-1,3.639385061E-1
5.420217625E0,3.265135456E-3,-3.056118265E-3,-3.631549180E-1,3.631824547E-1
5.430173625E0,2.483497607E-3,-1.233184710E-3,-3.601849675E-1,3.601956404E-1
5.440129625E0,3.044312820E-3,-1.247000881E-3,-3.565400243E-1,3.565552016E-1
5.450085625E0,2.877865219E-3,-1.382822171E-3,-3.534739017E-1,3.534883216E-1
5.460041625E0,2.456160495E-3,-1.099737361E-3,-3.558709323E-1,3.558811074E-1
5.469997625E0,4.658594728E-3,-2.298425883E-3,-3.574390113E-1,3.574767574E-1
5.479954625E0,3.281861544E-3,-3.683561459E-3,-3.657998741E-1,3.658331411E-1
5.489910625E0,2.848565346E-3,-1.799640246E-3,-3.690763712E-1,3.690917512E-1
5.499866625E0,2.824323019E-3,-7.642619312E-4,-3.685233295E-1,3.685349444E-1
5.509822625E0,4.490130581E-3,-1.347227953E-3,-3.641565442E-1,3.641867172E-1
5.519778625E0,1.382893883E-3,-1.407938078E-3,-3.498111665E-1,3.498167333E-1
5.529734625E0,4.605851602E-3,-4.722774029E-3,-3.424123824E-1,3.424759233E-1
5.539690625E0,5.908574443E-3,-3.311919980E-3,-3.412781358E-1,3.413453472E-1
5.549646625E0,9.854546515E-4,-1.261020079E-3,-3.425990939E-1,3.426028319E-1
5.559602625E0,3.149278346E-4,-2.062845044E-3,-3.446617723E-1,3.446680893E-1
5.569558625E0,2.243056428E-3,-4.136381671E-3,-3.502379060E-1,3.502695130E-1
5.579514625E0,1.262151171E-3,-9.876638651E-4,-3.503460884E-1,3.503497541E-1
5.589470625E0,2.758581424E-3,1.673493534E-4,-3.419589996E-1,3.419701671E-1
5.599427625E0,1.987395575E-3,-6.928294897E-5,-3.372349739E-1,3.372408370E-1
5.609383625E0,4.116592929E-3,-3.148261458E-4,-3.290010095E-1,3.290269133E-1
5.619339625E0,3.779104445E-3,-5.837921053E-4,-3.211551011E-1,3.211778656E-1
5.629295625E0,3.338351380E-3,-2.298578620E-4,-3.223218322E-1,3.223392017E-1
5.639251625E0,4.318173043E-3,-1.136446372E-3,-3.273028433E-1,3.273333001E-1
5.649207625E0,1.490428811E-3,-2.845663577E-3,-3.265188336E-1,3.265346351E-1
5.659163625E0,3.262303304E-3,-5.479427055E-4,-3.230618536E-1,3.230787894E-1
5.669119625E0,4.035685211E-3,-1.435840502E-3,-3.175496459E-1,3.175785352E-1
5.679075625E0,2.409412060E-3,-1.463529654E-3,-3.104655147E-1,3.104783132E-1
5.689031625E0,4.465372302E-3,-1.861140132E-3,-3.059791625E-1,3.060174035E-1
5.698987625E0,2.741463948E-3,-7.818359882E-5,-3.076758087E-1,3.076880319E-1
5.708943625E0,4.139090888E-3,-1.142116264E-3,-3.078403771E-1,3.078703205E-1
5.718900625E0,2.201470546E-3,-3.274869174E-3,-3.050965667E-1,3.051220842E-1
5.728856625E0,5.697668530E-3,-3.753136843E-5,-2.991377115E-1,2.991919706E-1
5.738812625E0,3.230748698E-3,-1.964988187E-3,-2.937325239E-1,2.937568629E-1
5.748768625E0,2.982541919E-3,-3.191906027E-3,-2.913213074E-1,2.913540595E-1
5.758724625E0,3.731210018E-3,-8.703302592E-5,-2.876610160E-1,2.876852266E-1
5.768680625E0,4.565578420E-3,9.965524077E-5,-2.905569375E-1,2.905928222E-1
5.778636625E0,3.209141782E-3,-2.573282458E-3,-2.925903201E-1,2.926192335E-1
5.788592625E0,4.101566970E-3,-2.129066736E-3,-2.894382477E-1,2.894751371E-1
5.798548625E0,4.085669760E-3,-3.010028973E-3,-2.837348878E-1,2.837802663E-1
5.808504625E0,4.472626839E-3,7.367730141E-4,-2.814376652E-1,2.814741669E-1
5.818460625E0,8.319780463E-4,1.813498326E-3,-2.722596228E-1,2.722669337E-1
5.828416625E0,1.768878195E-3,-9.266277775E-4,-2.711746693E-1,2.711820216E-1
5.838373625E0,4.518858157E-3,1.121502370E-3,-2.665506303E-1,2.665912909E-1