"Time (s)","Gyroscope x (rad/s)","Gyroscope y (rad/s)","Gyroscope z (rad/s)","Absolute (rad/s)"
2.298333329E-4,-2.064721193E-4,-2.996902913E-4,-2.631284762E-3,2.656332906E-3
1.018683333E-2,-3.447539406E-3,3.317454830E-4,-8.412474766E-3,9.097544433E-3
2.014383333E-2,-6.545165088E-4,-2.918383107E-4,-7.288743742E-3,7.323888775E-3
3.010083333E-2,-2.948297188E-3,-1.919828355E-3,-6.710304879E-3,7.576700389E-3
4.005683333E-2,-1.012386288E-3,-5.493601784E-4,-3.169020638E-4,1.194633635E-3
5.001383333E-2,-1.636368688E-4,2.379052341E-3,3.710596357E-3,4.410804052E-3
5.997083333E-2,-1.821731916E-3,9.317500517E-4,8.045067079E-4,2.198657858E-3
6.992783333E-2,2.869589953E-4,3.309408203E-4,8.766786195E-4,9.800166802E-4
7.988483333E-2,-3.216277109E-4,-1.048401929E-3,-6.186557468E-3,6.282999626E-3
8.984183333E-2,6.094134878E-4,-1.378674060E-4,-4.451507702E-3,4.495143273E-3
9.979783333E-2,-7.015187293E-4,-3.475975245E-5,-7.095198147E-3,7.129878927E-3
1.097548333E-1,-8.839452639E-4,-1.034690067E-4,-2.425611485E-3,2.583729115E-3
1.197118333E-1,1.585965510E-3,4.933467135E-4,1.435345970E-3,2.195198313E-3
1.296688333E-1,-2.841061214E-4,1.150348224E-3,1.452390105E-3,1.874421068E-3
1.396258333E-1,2.321392531E-4,7.215058431E-4,9.101550095E-4,1.184416082E-3
1.495828333E-1,-1.671222039E-3,-1.778936014E-3,-1.991625177E-3,3.150264638E-3
1.595388333E-1,-5.346534308E-4,2.573383972E-4,-5.739630200E-3,5.770219422E-3
1.694958333E-1,-2.065704670E-3,1.062145457E-3,-6.951102521E-3,7.328923183E-3
1.794528333E-1,-3.533309791E-4,-1.795871183E-3,-7.690148428E-3,7.904959135E-3
1.894098333E-1,2.051503398E-3,1.005774364E-3,-2.238657558E-3,3.198724109E-3
1.993668333E-1,-1.204449683E-3,-1.469142735E-4,1.224908978E-3,1.724147571E-3
2.093238333E-1,3.580269404E-4,-3.461185843E-4,2.363943029E-3,2.415824499E-3
2.192798333E-1,4.894742742E-4,-5.038073286E-4,7.118606009E-4,1.000076199E-3
2.292368333E-1,1.006926526E-3,5.313633010E-4,-4.980380181E-3,5.108858457E-3
2.391938333E-1,-1.519995974E-3,6.262417883E-4,-8.172614500E-3,8.336317790E-3
2.491508333E-1,-2.488691825E-4,4.856260493E-4,-6.956082769E-3,6.977453405E-3
2.591078333E-1,-7.689881604E-4,-1.158232801E-3,-6.137697492E-3,6.293184926E-3
2.690648333E-1,-1.958757639E-4,8.439319208E-4,-1.773043070E-3,1.973390516E-3
2.790218333E-1,-9.297961369E-4,2.110162750E-3,2.991542686E-3,3.777119978E-3
2.889778333E-1,1.320574898E-3,-1.448885538E-3,2.038397826E-3,2.828118290E-3
2.989348333E-1,-2.046458190E-3,-9.692925960E-4,7.086014375E-4,2.372685242E-3
3.088918333E-1,-1.437925734E-3,-3.311987966E-4,-1.232576789E-3,1.922646249E-3
3.188488333E-1,-9.721412789E-5,-1.481389627E-3,-5.286739208E-3,5.491227300E-3
3.288058333E-1,1.312397071E-3,-7.482208312E-4,-7.369064726E-3,7.522322475E-3
3.387614583E-1,-3.185011446E-4,-1.085889526E-3,-5.015143659E-3,5.141231853E-3
3.487184583E-1,-3.034658963E-3,1.279795542E-4,-1.626537414E-3,3.445454650E-3
3.586754583E-1,1.538486802E-3,-2.778353170E-3,-3.736699000E-5,3.176095758E-3
3.686324583E-1,-1.008027699E-3,-8.744597435E-4,4.031943623E-3,4.247042390E-3
3.785894583E-1,-1.469230978E-3,-2.269884571E-4,-9.049125947E-4,1.740410937E-3
3.885464583E-1,7.366653299E-4,-3.086425364E-3,-7.868013345E-3,8.483768698E-3
3.985034583E-1,2.439332195E-3,-1.551637426E-3,-7.145497948E-3,7.708181445E-3
4.084594583E-1,-8.728413377E-4,3.671701998E-4,-6.053601857E-3,6.127214816E-3
4.184164583E-1,-2.085878514E-3,-2.158489078E-3,-4.249453079E-3,5.202673903E-3
4.283734583E-1,-2.784159034E-3,-2.292953432E-4,1.741860528E-3,3.292141549E-3
4.383304583E-1,1.716968836E-4,-1.421552151E-4,9.122858755E-4,9.391237638E-4
4.482874583E-1,5.943404976E-4,4.618493840E-4,9.242696688E-4,1.191981502E-3
4.582444583E-1,-1.559148775E-3,-3.874743357E-3,-3.880211385E-3,5.700931624E-3
4.682004583E-1,1.743028406E-4,1.740604639E-4,-4.959857091E-3,4.965970287E-3
4.781574583E-1,7.539980579E-4,-1.010829583E-3,-7.344499696E-3,7.451977275E-3
4.881144583E-1,-5.959583214E-4,-7.852595299E-4,-7.358347997E-3,7.424088099E-3
4.980714583E-1,-5.472600460E-4,4.356503487E-4,-3.789211391E-3,3.853233414E-3
5.080284583E-1,-7.669709157E-4,-2.935230732E-4,9.501501918E-4,1.255860489E-3
5.179854583E-1,1.005908241E-3,-4.116818309E-4,2.125967294E-3,2.387691407E-3
5.279414583E-1,-3.975776490E-4,-1.677367836E-4,7.283403538E-4,8.465714893E-4
5.378984583E-1,-2.975176321E-4,-1.160025597E-3,-3.977560438E-3,4.153933457E-3
5.478554583E-1,7.576268399E-4,-3.820789978E-3,-7.084404118E-3,8.084628389E-3
5.578124583E-1,1.801289618E-3,-8.552446961E-4,-7.754690014E-3,8.006953540E-3
5.677694583E-1,4.926123656E-4,3.461074084E-4,-5.317898002E-3,5.351868499E-3
5.777264583E-1,4.834372085E-4,-1.364226453E-3,-3.846585751E-4,1.497593927E-3
5.876824583E-1,1.093567349E-3,1.170303673E-3,2.703809645E-3,3.142624195E-3
5.976394583E-1,-1.924065873E-4,-1.373783685E-3,1.785429195E-3,2.260986359E-3
6.075964583E-1,3.117636312E-3,1.352760009E-3,-7.128822617E-4,3.472436743E-3
6.175534583E-1,7.579132798E-4,-1.618529670E-3,-3.929746337E-3,4.317056533E-3
6.275104583E-1,2.381908940E-3,-1.816668548E-3,-8.616643026E-3,9.122516750E-3
6.374674583E-1,2.870352473E-4,-2.378828824E-3,-8.844860829E-3,9.163666237E-3
6.474234583E-1,-2.035773825E-3,-3.067255951E-3,-4.085259512E-3,5.499252624E-3
6.573804583E-1,-3.171196673E-3,4.640221596E-4,2.290977165E-3,3.939591511E-3
6.673374583E-1,1.735943952E-3,-1.827628352E-3,2.139709424E-3,3.306370097E-3
6.772944583E-1,-2.359065693E-4,9.221322834E-4,9.459522553E-4,1.341940955E-3
6.872514583E-1,7.436041487E-4,-2.399895340E-3,-4.852302372E-4,2.558885139E-3
6.972084583E-1,7.275969256E-4,-2.254762687E-3,-5.125883967E-3,5.646949486E-3
7.071644583E-1,-1.485223649E-3,-9.706895798E-5,-6.618585903E-3,6.783877286E-3
7.171214583E-1,-3.179986728E-3,-1.743038185E-3,-3.962881863E-3,5.371678543E-3
7.270784583E-1,-8.268174715E-4,2.042379230E-3,-1.583879814E-3,2.713598223E-3
7.370354583E-1,-7.005715743E-4,-4.767188802E-4,6.269225851E-4,1.054084128E-3
7.469924583E-1,-1.933615189E-3,1.897755079E-3,3.314318601E-3,4.280776779E-3
7.569494583E-1,-1.953398576E-3,-5.344478413E-4,3.886596765E-3,4.382583132E-3
7.669054583E-1,9.182879585E-4,-4.865108058E-4,-4.468271974E-3,4.587526564E-3
7.768624583E-1,-1.917342190E-3,-1.043553464E-3,-6.063156761E-3,6.444150434E-3
7.868194583E-1,2.057159320E-3,1.471452415E-4,-5.748371594E-3,6.107154179E-3
7.967764583E-1,1.666883007E-3,-1.465052366E-3,-3.209047252E-3,3.901648583E-3
8.067334583E-1,4.037457984E-4,6.798570976E-4,4.330915399E-4,9.015456864E-4
8.166904583E-1,2.151496010E-4,-2.414364368E-3,8.292268030E-4,2.561847330E-3
8.266464583E-1,-2.562297741E-4,-3.610663116E-4,2.862816211E-3,2.896849881E-3
8.366034583E-1,-9.345931467E-4,1.247758046E-3,-1.368696336E-3,2.074534683E-3
8.465604583E-1,1.215643249E-3,1.571932808E-4,-5.160239059E-3,5.303825543E-3
8.565174583E-1,1.301788259E-3,3.659017384E-4,-5.566775799E-3,5.728658617E-3
8.664744583E-1,1.595584909E-4,7.438035682E-4,-7.490643300E-3,7.529172578E-3
8.764314583E-1,7.941134972E-4,4.488239065E-4,-3.145551309E-3,3.275141552E-3
8.863874583E-1,-8.839442162E-4,-1.020974480E-3,3.064381890E-4,1.384792630E-3
8.963444583E-1,-7.070027059E-4,3.538931720E-3,2.133531962E-3,4.192356041E-3
9.063014583E-1,-3.695150372E-5,8.294731379E-5,-6.792987697E-4,6.853411479E-4
9.162584583E-1,1.859284239E-3,-1.639714465E-3,-4.153814167E-3,4.837331241E-3
9.262154583E-1,-2.070476301E-3,3.225030378E-4,-3.612127155E-3,4.175924198E-3
9.361724583E-1,6.394935772E-4,-1.007975079E-3,-6.694511976E-3,6.800107087E-3
9.461284583E-1,8.293769206E-4,-9.991871193E-4,-7.682811003E-3,7.791779379E-3
9.560854583E-1,-1.769666560E-4,3.142850474E-4,-3.200433915E-3,3.220693953E-3
9.660424583E-1,3.024023026E-4,-2.633547410E-4,-8.685700595E-4,9.566696507E-4
9.759994583E-1,-4.238130059E-4,2.398497425E-3,2.029092051E-3,3.170113864E-3
9.859564583E-1,3.024309408E-4,-3.386996686E-4,-2.644489286E-3,2.683189432E-3
9.959134583E-1,1.604289282E-4,1.073925756E-3,-3.041896736E-3,3.229890048E-3
1.005870458E0,1.237144927E-3,-8.632568642E-4,-5.064301193E-3,5.284211063E-3
1.015826458E0,-5.717140157E-4,-5.837837234E-4,-6.480414886E-3,6.531725457E-3
1.025783458E0,8.661267348E-4,-5.243951455E-4,-5.713158287E-3,5.802184365E-3
1.035740458E0,-3.839097219E-3,-1.405122690E-3,-2.447147854E-4,4.095475864E-3
1.045697458E0,-1.869423315E-3,1.633277163E-3,3.205676563E-3,4.054466679E-3
1.055654458E0,-2.637146274E-3,1.665856689E-4,1.632265747E-3,3.105894834E-3
1.065611458E0,8.081850247E-4,-6.701797247E-4,-1.380568370E-3,1.734437350E-3
1.075567458E0,-3.723090049E-5,7.711322978E-4,-3.056874266E-3,3.152857662E-3
1.085524458E0,1.097755739E-4,-3.314157948E-4,-4.813495092E-3,4.826139462E-3
1.095481458E0,-9.069811786E-4,-8.916361257E-4,-6.047412287E-3,6.179710771E-3
1.105438458E0,5.316584138E-4,1.562733203E-3,-1.460650004E-3,2.204153844E-3
1.115395458E0,-2.900848631E-5,7.685190067E-4,-8.093845099E-4,1.116497309E-3
1.125352458E0,-2.746497979E-3,6.654541939E-4,9.163436480E-4,2.970819099E-3
1.135308458E0,-2.119631041E-3,-4.627575167E-3,3.068646882E-3,5.943389719E-3
1.145265458E0,-1.365423901E-3,-2.605235204E-4,-5.236905999E-4,1.485431513E-3
1.155222458E0,-2.483733464E-3,1.005167142E-3,-3.052894957E-3,4.061952797E-3
1.165179458E0,1.402792986E-4,1.659772359E-3,-8.219161071E-3,8.386246555E-3
1.175136458E0,-8.508453611E-4,9.357612580E-4,-5.311506335E-3,5.460007922E-3
1.185093458E0,-1.219381811E-4,-6.448244676E-4,-8.800062351E-4,1.097760670E-3
1.195049458E0,-2.118056407E-3,-3.829151392E-4,1.863237005E-3,2.846829655E-3
1.205006458E0,-1.812325558E-3,1.914860681E-3,2.843280789E-3,3.877558639E-3
1.214963458E0,-1.125282142E-4,9.108893573E-5,7.099006325E-4,7.245127337E-4
1.224920458E0,-3.121633781E-3,-1.997361891E-3,-3.580451710E-3,5.153026920E-3
1.234877458E0,-4.421537742E-4,-5.745887756E-5,-7.241296116E-3,7.255010057E-3
1.244834458E0,-7.550753653E-4,-1.877197064E-3,-5.362436175E-3,5.731468342E-3
1.254790458E0,-1.060515060E-3,-6.323531270E-4,-3.564158455E-3,3.771974040E-3
1.264747458E0,-6.679651560E-4,7.737986743E-5,2.009305172E-3,2.118837504E-3
1.274704458E0,2.108956221E-3,2.337722108E-4,2.972320188E-3,3.651990292E-3
1.284661458E0,-1.496697543E-3,2.955523320E-3,2.731570043E-3,4.293797448E-3
1.294618458E0,-3.026987659E-3,2.524217591E-3,-2.758412622E-3,4.810734759E-3
1.304575458E0,-7.483870722E-4,1.333517954E-3,-5.024762824E-3,5.252294240E-3
1.314531458E0,-1.150295604E-3,-3.909040242E-5,-7.719189860E-3,7.804524337E-3
1.324488458E0,-4.890325945E-4,5.766330287E-4,-3.492487129E-3,3.573391229E-3
1.334445458E0,8.056445513E-4,-1.786946319E-3,-4.275707528E-3,4.703606611E-3
1.344402208E0,-1.011617715E-4,-1.288624480E-4,1.418929547E-3,1.428355801E-3
1.354359208E0,5.363550736E-4,-2.042954788E-3,3.213006072E-3,3.845094153E-3
1.364316208E0,9.190513520E-4,-1.438950188E-3,1.943210606E-3,2.586754818E-3
1.374272208E0,-1.084018266E-3,-5.534747615E-4,-5.707736593E-3,5.836067762E-3
1.384229208E0,2.177555114E-3,-2.526611090E-3,-7.626278326E-3,8.323799071E-3
1.394186208E0,4.389206879E-4,-1.896033064E-3,-5.792515352E-3,6.110714104E-3
1.404143208E0,9.563729400E-4,-6.054649130E-4,-4.085695837E-3,4.239592838E-3
1.414100208E0,2.210499952E-4,1.153727062E-3,2.052917611E-3,2.365252619E-3
1.424057208E0,1.293504960E-3,1.392612234E-3,1.595919020E-3,2.481830259E-3
1.434013208E0,7.631670451E-4,-4.131868482E-4,2.573714592E-4,9.052001868E-4
1.443970208E0,-1.432875404E-3,7.546087727E-4,-1.002908684E-4,1.622536466E-3
1.453927208E0,-6.805604789E-4,-1.453504898E-3,-4.668885842E-3,4.937036972E-3
1.463884208E0,-2.640380990E-3,-1.564558595E-3,-6.911267061E-3,7.562080914E-3
1.473841208E0,1.782857813E-3,-1.588203944E-3,-6.953952368E-3,7.352443627E-3
1.483798208E0,4.978826037E-4,2.340491861E-3,-3.059079172E-3,3.883780970E-3
1.493755208E0,-2.321065404E-5,1.485412940E-3,-1.540278550E-3,2.139964568E-3
1.503711208E0,-2.036294201E-3,-1.732036471E-4,3.081637435E-3,3.697699671E-3
1.513668208E0,1.344402088E-3,-1.110145822E-4,-1.761715161E-3,2.218869424E-3
1.523625208E0,2.813135274E-3,2.192620188E-3,-5.541806109E-3,6.590366326E-3
1.533582208E0,2.202972071E-3,4.414217547E-4,-5.931580439E-3,6.342837348E-3
1.543539208E0,-2.035981510E-3,-1.422524452E-3,-5.741164554E-3,6.255379042E-3
1.553496208E0,6.960903993E-4,-1.899916679E-4,-3.858469427E-3,3.925356671E-3
1.563452208E0,1.833792776E-3,8.960450068E-4,-7.582837716E-4,2.177311847E-3
1.573409208E0,4.876225721E-4,1.827095635E-3,7.232646458E-4,2.024639716E-3
1.583366208E0,-6.578030298E-4,1.476356760E-3,1.947253477E-3,2.530638301E-3
1.593323208E0,8.571018698E-4,2.545394003E-3,-2.108256333E-3,3.414439780E-3
1.603280208E0,-9.184277151E-4,-3.214990720E-4,-5.074751563E-3,5.167201811E-3
1.613237208E0,-6.753709167E-4,1.321101561E-3,-8.119011298E-3,8.253470765E-3
1.623193208E0,2.029069234E-3,1.256120391E-3,-7.097422145E-3,7.487880975E-3
1.633150208E0,-1.576599665E-3,-2.020264976E-3,-4.332198296E-3,5.033396383E-3
1.643107208E0,9.696486522E-4,-3.004835919E-3,-1.371828374E-3,3.442552903E-3
1.653064208E0,1.646645716E-3,-3.144489601E-4,1.518297940E-4,1.683262472E-3
1.663021208E0,3.883021418E-4,-1.278779469E-3,-2.099340316E-3,2.488631199E-3
1.672978208E0,-9.718328947E-4,-1.721672714E-3,-3.060649615E-3,3.643650940E-3
1.682934208E0,2.268559765E-4,7.582632825E-4,-3.617783077E-3,3.703347301E-3
1.692891208E0,-5.868144799E-4,2.626571804E-4,-4.474128596E-3,4.520084814E-3
1.702848208E0,8.402043022E-6,5.510775372E-4,-5.329269450E-3,5.357692593E-3
1.712805208E0,2.653799020E-4,-2.004886977E-3,-3.428031225E-3,3.980125169E-3
1.722762208E0,6.909531076E-4,-9.460141882E-4,-9.475629777E-4,1.506729783E-3
1.732719208E0,-5.760168424E-4,-4.633218050E-4,5.767727271E-5,7.414776905E-4
1.742675208E0,5.291950656E-4,4.762411118E-4,5.980324931E-4,9.297827041E-4
1.752632208E0,-7.666717283E-5,8.326442912E-4,-3.374464577E-3,3.476519172E-3
1.762589208E0,-6.761238910E-5,1.791914925E-3,-5.775836762E-3,6.047794708E-3
1.772546208E0,8.603872266E-5,-3.619147465E-4,-4.832622129E-3,4.846918773E-3
1.782503208E0,-9.539256571E-4,-1.283634454E-3,-4.362574313E-3,4.646476752E-3
1.792460208E0,2.385544358E-3,-3.180466592E-6,-9.161513299E-5,2.387305035E-3
1.802416208E0,-1.062716474E-3,-3.436261788E-3,9.070700034E-4,3.709452435E-3
1.812373208E0,-1.466402318E-3,2.140654251E-3,3.805591259E-3,4.606002737E-3
1.822330208E0,-6.946183275E-4,1.083957031E-4,-4.799673334E-4,8.512419694E-4
1.832287208E0,2.200477757E-4,6.084702909E-5,-3.992315382E-3,3.998838018E-3
1.842244208E0,1.591842039E-3,-1.343438402E-3,-5.990751088E-3,6.342545736E-3
1.852201208E0,-4.265733296E-4,-2.510182559E-3,-7.224359550E-3,7.659918550E-3
1.862157208E0,1.645366079E-3,-9.034974501E-4,-1.989117591E-3,2.734981895E-3
1.872114208E0,5.288855173E-4,-1.876223832E-4,-6.161970086E-4,8.334391415E-4
1.882071208E0,-1.743589761E-3,1.085635275E-3,3.260034136E-3,3.853119746E-3
1.892028208E0,-2.486102516E-3,-1.210478134E-3,-4.309494980E-4,2.798513981E-3
1.901985208E0,4.199387040E-4,-8.253846318E-4,-1.207527239E-3,1.521752391E-3
1.911942208E0,-8.057235973E-4,1.550240442E-3,-2.804763149E-3,3.304411032E-3
1.921898208E0,-1.921312651E-4,1.272207126E-3,-6.755029783E-3,6.876470952E-3
1.931855208E0,-2.166819526E-3,1.189949922E-3,-4.297868349E-3,4.958100444E-3
1.941812208E0,1.559475437E-3,1.385692507E-3,-3.805716522E-3,4.339998342E-3
1.951769208E0,-1.248335582E-3,6.768666208E-4,1.537063159E-3,2.092618767E-3
1.961726208E0,-1.775907702E-3,2.081417479E-3,2.600996289E-3,3.775093189E-3
1.971683208E0,1.088908873E-3,-1.945536584E-3,6.054467522E-4,2.310281564E-3
1.981639208E0,2.066555433E-3,-1.237668097E-3,-2.531224396E-3,3.494219601E-3
1.991596208E0,5.233333213E-4,2.302797511E-4,-8.373374119E-3,8.392872016E-3
2.001553208E0,-1.385354204E-3,-1.015546732E-3,-6.740324199E-3,6.955753859E-3
2.011510208E0,-1.773507451E-3,5.934266374E-4,-4.790544044E-3,5.142644854E-3
2.021467208E0,-4.235511879E-4,-2.337517217E-4,6.750612520E-4,8.305077784E-4
2.031424208E0,-2.087268280E-3,7.808767259E-4,5.603257101E-3,6.030169772E-3
2.041381208E0,5.977307446E-4,-2.196004614E-3,1.663642470E-3,2.819117695E-3
2.051337208E0,-1.297639683E-4,6.249761209E-4,-5.054706708E-4,8.142078593E-4
2.061294208E0,5.141884321E-4,2.172006294E-3,-6.512762979E-3,6.884626548E-3
2.071251208E0,1.813025214E-3,8.536074311E-4,-4.307354335E-3,4.750684944E-3
2.081208208E0,9.759936947E-4,4.857778549E-6,-5.316426046E-3,5.405272722E-3
2.091165208E0,6.017074920E-4,-1.354916021E-4,-2.064862056E-3,2.155009325E-3
2.101122208E0,1.472028554E-3,-4.089986905E-4,3.086223733E-3,3.443678981E-3
2.111078208E0,9.900478180E-4,-3.690999001E-4,2.465988975E-3,2.682821471E-3
2.121035208E0,-9.252713062E-5,6.325142458E-4,3.932509571E-4,7.505210566E-4
2.130992208E0,-3.572383430E-4,1.302896068E-3,-5.101585295E-3,5.277435923E-3
2.140949208E0,5.383827956E-4,-1.169581898E-3,-9.468371049E-3,9.555512972E-3
2.150906208E0,-4.303217866E-4,4.493910819E-5,-6.894206628E-3,6.907769640E-3
2.160863208E0,-8.566938341E-4,-6.099315360E-4,-3.706136718E-3,3.852452489E-3
2.170819208E0,-1.072033425E-3,2.746842802E-4,2.036311664E-3,2.317600550E-3
2.180776208E0,-1.764188870E-3,8.400250226E-5,2.528729849E-3,3.084459991E-3
2.190733208E0,8.497317322E-5,-1.156021841E-3,1.890575513E-3,2.217629975E-3
2.200690208E0,2.150787273E-3,3.811549395E-4,-6.000124849E-4,2.265210799E-3
2.210647208E0,-1.745062997E-3,-2.394429408E-3,-3.618971910E-3,4.677124623E-3
2.220604208E0,-1.255946700E-4,2.664979547E-5,-6.678411737E-3,6.679645766E-3
2.230560208E0,-5.786777474E-4,2.836827189E-4,-4.709973000E-3,4.753860482E-3
2.240517208E0,1.044785371E-3,-1.962161623E-3,-2.192486543E-3,3.122283131E-3
2.250474208E0,-1.591123873E-3,-5.823327228E-4,2.551886719E-3,3.063153996E-3
2.260431208E0,-9.093547706E-4,1.260042191E-3,5.939309485E-4,1.663546330E-3
2.270388208E0,3.085834440E-3,1.825453714E-3,-2.856468782E-4,3.596699819E-3
2.280345208E0,1.440799795E-3,1.518124714E-3,-2.693144605E-3,3.410811422E-3
2.290301208E0,1.623732038E-3,-1.029390842E-5,-3.184471279E-3,3.574558578E-3
2.300258208E0,2.523347735E-3,4.395134747E-4,-6.293179467E-3,6.794450949E-3
2.310215208E0,-6.055154372E-4,-2.727312967E-4,-6.712766364E-3,6.745536566E-3
2.320172208E0,-1.462520566E-3,-1.226409338E-3,-3.240004182E-3,3.760408671E-3
2.330129208E0,1.510611502E-3,-5.708113313E-4,4.314072430E-5,1.615436105E-3
2.340087375E0,2.546048723E-3,-4.664156586E-4,3.576356452E-3,4.414774415E-3
2.350043375E0,5.361934891E-4,2.241654322E-3,1.277436502E-3,2.635215660E-3
2.360000375E0,1.699195942E-3,-2.441406250E-4,-4.244627897E-3,4.578617420E-3
2.369957375E0,8.761013160E-4,1.511753537E-3,-8.425164968E-3,8.604438216E-3
2.379914375E0,-1.582704717E-4,-3.497963771E-4,-5.467991345E-3,5.481453858E-3
2.389871375E0,-8.116988465E-4,-1.992201433E-4,-3.356086090E-3,3.458591842E-3
2.399828375E0,6.351965712E-4,3.939867020E-5,1.591268461E-3,1.713815117E-3
2.409784375E0,4.829366226E-4,1.303710975E-3,3.752029501E-3,4.001326713E-3
2.419741375E0,1.477893558E-3,3.558343276E-3,2.012186684E-3,4.346823149E-3
2.429698375E0,-2.014415804E-5,1.377934590E-3,-1.843943028E-3,2.302006823E-3
2.439655375E0,1.841938007E-3,1.357427798E-3,-4.805111792E-3,5.322071512E-3
2.449612375E0,-9.896246484E-4,-2.387732267E-3,-9.262129664E-3,9.616011036E-3
2.459569375E0,2.103104256E-3,-2.142455429E-3,-4.408785142E-3,5.333905624E-3
2.469525375E0,-2.596054692E-4,-3.488296643E-4,-1.693553990E-3,1.748485702E-3
2.479482375E0,-7.275228854E-4,-2.074157819E-4,7.248623297E-4,1.047729093E-3
2.489439375E0,1.080161892E-4,-1.866817474E-4,2.783045638E-3,2.791390442E-3
2.499396375E0,1.988299191E-4,5.467524752E-4,1.412848942E-3,1.527944285E-3
2.509353375E0,1.531817601E-3,-1.098597422E-3,-4.187809769E-3,4.592508260E-3
2.519310375E0,4.843963543E-4,6.255330518E-4,-7.364428602E-3,7.406803633E-3
2.529266375E0,1.555436756E-3,4.200842232E-4,-6.832139101E-3,7.019542645E-3
2.539223375E0,2.193287946E-4,2.813329920E-4,-2.604370937E-3,2.628688142E-3
2.549180375E0,-1.748267794E-3,2.276109532E-3,1.644222066E-4,2.874743387E-3
2.559137375E0,-1.248658868E-3,1.880896278E-3,4.335997626E-3,4.888537122E-3
2.569094375E0,-3.296295181E-4,-3.312248737E-5,1.507144421E-3,1.543125732E-3
2.579051375E0,1.843605423E-4,1.849904656E-4,-2.737401519E-3,2.749832242E-3
2.589008375E0,-1.893197652E-3,-2.527670935E-3,-5.827627145E-3,6.628314706E-3
2.598964375E0,1.490082243E-3,1.148290001E-3,-6.252667401E-3,6.529530201E-3
2.608921375E0,-5.820550723E-4,4.725055769E-4,-6.753101479E-3,6.794588230E-3
2.618878375E0,1.285619801E-3,-3.656192683E-3,-3.432938596E-3,5.177415437E-3
2.628835375E0,1.775844954E-3,-2.535274252E-3,3.105541691E-4,3.110897736E-3
2.638792375E0,-1.783736050E-3,1.382235438E-3,2.434425987E-4,2.269703373E-3
2.648749375E0,2.544124844E-3,-1.340216026E-3,8.188718930E-4,2.989866451E-3
2.658705375E0,6.362361601E-4,5.005607381E-4,-2.035503974E-3,2.190578447E-3
2.668662375E0,-1.873557456E-3,1.259400509E-3,-5.260233767E-3,5.724191338E-3
2.678619375E0,-2.848540433E-3,-2.487478778E-4,-8.134316653E-3,8.622248287E-3
2.688576375E0,-1.989474287E-3,-1.291846856E-4,-3.443485126E-3,3.978980577E-3
2.698533375E0,-8.709465619E-4,-2.271896228E-4,-7.105492987E-4,1.146753393E-3
2.708490375E0,2.496950328E-4,1.589003950E-4,4.643420689E-4,5.506455320E-4
2.718446375E0,1.038523391E-3,1.309374347E-4,2.131214365E-3,2.374394684E-3
2.728403375E0,-1.722557470E-3,2.316135913E-3,-1.089469530E-3,3.085228300E-3
2.738360375E0,-1.428278163E-3,2.552091144E-3,-3.515342949E-3,4.572831045E-3
2.748317375E0,3.616497852E-4,-8.181454614E-4,-5.090463907E-3,5.168459669E-3
2.758274375E0,4.553931067E-4,7.975948974E-4,-5.930691492E-3,6.001386679E-3
2.768231375E0,-3.002743470E-3,1.516106538E-3,-4.485298414E-3,5.606509542E-3
2.778187375E0,1.066566445E-3,-2.386504784E-4,-3.154783044E-3,3.338738398E-3
2.788144375E0,-1.073658699E-3,-1.176335849E-3,-2.771732397E-4,1.616580971E-3
2.798101375E0,8.797699120E-4,-2.865735441E-4,3.027010243E-3,3.165266262E-3
2.808058375E0,-5.069759209E-4,-6.541004404E-4,-9.252955206E-4,1.241387841E-3
2.818015375E0,4.389788955E-4,3.898590803E-4,-2.223320073E-3,2.299531413E-3
2.827972375E0,-6.570653059E-4,-2.055320889E-3,-6.520000752E-3,6.867786294E-3
2.837928375E0,2.094512805E-3,-6.667487323E-4,-6.343433168E-3,6.713470199E-3
2.847885375E0,-9.344510036E-4,-2.273609862E-4,-3.731719218E-3,3.853650220E-3
2.857842375E0,1.699619461E-4,2.264825627E-3,-1.596662914E-3,2.776266314E-3
2.867799375E0,1.136811450E-3,4.583848640E-4,1.233121846E-3,1.738691014E-3
2.877756375E0,-4.248660989E-4,1.662133262E-3,1.858165488E-3,2.529026920E-3
2.887713375E0,-4.818870220E-4,-1.140016131E-3,-5.570873618E-4,1.357276026E-3
2.897669375E0,-4.310205113E-4,-3.040498123E-4,-4.075389355E-3,4.109382358E-3
2.907626375E0,-3.605789505E-3,-1.587979496E-4,-4.481617361E-3,5.754287872E-3
2.917583375E0,1.680319081E-3,-3.508124501E-4,-6.673665252E-3,6.890888874E-3
2.927540375E0,-8.237061556E-4,-3.832476214E-4,-5.788601004E-3,5.859460056E-3
2.937497375E0,-5.051919725E-4,-3.073476255E-4,-8.415128104E-4,1.028506345E-3
2.947454375E0,2.223377582E-3,-1.487750560E-4,1.577090006E-3,2.729973402E-3
2.957410375E0,-1.825958956E-3,4.235384986E-4,1.156576909E-3,2.202539697E-3
2.967367375E0,7.029611152E-5,-2.213157713E-4,-4.442175850E-4,5.012499145E-4
2.977324375E0,4.657754907E-4,-2.226475626E-4,-3.372629639E-3,3.411912869E-3
2.987281375E0,-1.504082698E-3,6.403401494E-4,-7.455239072E-3,7.632358082E-3
2.997238375E0,-1.910481136E-3,2.158075571E-3,-5.531371105E-3,6.237250568E-3
3.007195375E0,-2.623224864E-3,8.042911068E-4,-1.674065599E-3,3.214138843E-3
3.017152375E0,7.600551471E-4,6.841821596E-4,1.369927544E-3,1.709529330E-3
3.027108375E0,1.142732799E-6,-6.291316822E-4,1.557208598E-3,1.679495935E-3
3.037065375E0,-4.830199759E-4,5.466537550E-4,-7.387022488E-4,1.038180927E-3
3.047022375E0,5.529288901E-4,-8.059954271E-4,-1.813583076E-3,2.060204495E-3
3.056979375E0,-5.296461750E-4,6.006862968E-4,-3.934524488E-3,4.015200125E-3
3.066936375E0,-2.059375867E-3,1.259472221E-3,-5.358904600E-3,5.877512888E-3
3.076892375E0,2.729254309E-3,9.233821183E-4,-4.519742448E-3,5.359993975E-3
3.086849375E0,1.989197452E-3,8.148048073E-5,-4.233927466E-3,4.678641615E-3
3.096806375E0,5.641400348E-4,-1.496812329E-4,-1.069293357E-3,1.218214568E-3
3.106763375E0,-5.838715006E-4,-1.371696591E-3,3.425089177E-3,3.735464273E-3
3.116720375E0,2.132819267E-3,1.746598631E-3,-2.757173032E-3,3.898913686E-3
3.126677375E0,1.167549752E-3,-7.050884888E-4,-6.242701784E-3,6.389964613E-3
3.136634375E0,9.560948238E-4,-1.013215631E-3,-7.295981981E-3,7.427790808E-3
3.146590375E0,4.595401697E-5,1.381243579E-3,-6.586185656E-3,6.729620130E-3
3.156547375E0,1.689656987E-3,1.490965486E-3,-5.745692179E-3,6.171782354E-3
3.166504375E0,-6.712405011E-4,-1.237405464E-3,-7.389532402E-4,1.589901879E-3
3.176461375E0,-4.739004653E-4,4.064571112E-5,2.138858661E-3,2.191107048E-3
3.186418375E0,-1.083721058E-3,-1.230908558E-3,1.591689885E-3,2.285402349E-3
3.196375375E0,-4.485571990E-4,-2.061240375E-4,8.180416189E-4,9.554489886E-4
3.206331375E0,1.869780244E-4,-3.166953102E-4,-5.984343123E-3,5.995633354E-3
3.216288375E0,-2.748624422E-3,-3.819428384E-4,-4.482586868E-3,5.272039603E-3
3.226245375E0,-4.832574632E-4,-1.012267545E-3,-7.253104821E-3,7.339329186E-3
3.236202375E0,1.101323403E-3,-2.178199589E-3,-3.633070039E-3,4.376832713E-3
3.246159375E0,1.252538641E-3,5.657644942E-4,9.292871691E-4,1.659071172E-3
3.256116375E0,-4.518844653E-4,2.497088164E-3,2.453680616E-3,3.529900485E-3
3.266072375E0,5.063528661E-4,2.751909196E-4,1.532993745E-3,1.637740239E-3
3.276029375E0,-1.931771170E-3,8.056927472E-4,-4.478559829E-3,4.943518868E-3
3.285986375E0,2.459067153E-3,-1.417340711E-3,-6.563282572E-3,7.150702348E-3
3.295943375E0,-5.103573203E-4,8.516721427E-4,-7.628280669E-3,7.692624780E-3
3.305900375E0,1.799338614E-3,-9.252633899E-4,-3.514245618E-3,4.055077564E-3
3.315857375E0,-4.574240884E-4,-5.893688649E-5,-8.249608800E-5,4.685253011E-4
3.325813375E0,2.531582722E-3,1.934105530E-4,2.772348467E-3,3.759286468E-3
3.335770375E0,4.026518436E-4,1.049883664E-3,1.110801939E-3,1.580590131E-3
3.345726833E0,-2.026609145E-3,-1.479303464E-4,1.730816439E-5,2.032074700E-3
3.355683833E0,1.499948790E-3,-1.889429986E-4,-7.155650295E-3,7.313609026E-3
3.365640833E0,7.539425278E-4,-1.315060072E-3,-7.518873084E-3,7.670154157E-3
3.375597833E0,1.857023803E-3,-2.160613425E-3,-5.327624269E-3,6.041553453E-3
3.385553833E0,2.159968019E-3,2.523120493E-4,-1.339039765E-3,2.553850173E-3
3.395510833E0,7.207958261E-4,5.713589489E-4,1.720665954E-3,1.951073806E-3
3.405467833E0,4.109091824E-4,-2.132315189E-3,1.230840571E-4,2.175031978E-3
3.415424833E0,-1.730805030E-3,2.228876576E-3,1.581430901E-3,3.234888025E-3
3.425381833E0,1.138753025E-3,1.003269106E-3,-3.824865911E-3,4.114961311E-3
3.435338833E0,-4.988247529E-4,4.213685170E-4,-6.197209936E-3,6.231515750E-3
3.445294833E0,2.960241400E-3,1.008156687E-3,-9.035777301E-3,9.561625410E-3
3.455251833E0,6.771133048E-4,3.397036344E-4,-5.574733485E-3,5.625969642E-3
3.465208833E0,1.350546954E-3,-6.575416774E-4,-5.371775478E-4,1.595273597E-3
3.475165833E0,8.482747362E-4,-1.356089488E-3,2.372325864E-3,2.861202322E-3
3.485122833E0,-6.106833462E-4,-6.659757346E-4,2.174921799E-3,2.355152365E-3
3.495079833E0,2.095621079E-3,-1.103799790E-3,-2.554585692E-3,3.483663264E-3
3.505035833E0,3.557245946E-4,-2.332456410E-3,-5.397887435E-3,5.891017030E-3
3.514992833E0,8.087282768E-4,-1.735109836E-3,-6.688455120E-3,6.957016563E-3
3.524949833E0,2.461125609E-3,-4.539918154E-5,-5.322941579E-3,5.864546649E-3
3.534906833E0,2.904275665E-3,-1.248083077E-3,-5.448909011E-3,6.299455366E-3
3.544863833E0,-8.413123433E-4,-1.748742536E-3,5.453811027E-4,2.015774656E-3
3.554820833E0,-1.959307352E-3,2.891816199E-3,1.064165030E-3,3.651565889E-3
3.564777833E0,-1.509571099E-3,1.219809055E-3,2.667638473E-3,3.298944385E-3
3.574733833E0,1.165307942E-3,1.083721407E-3,7.767942734E-4,1.770820157E-3
3.584690833E0,-5.175012629E-4,-2.920348197E-5,-5.504255649E-3,5.528606574E-3
3.594647833E0,2.569460776E-4,1.462432556E-3,-6.607603282E-3,6.772381516E-3
3.604604833E0,1.766885398E-4,1.624673605E-4,-6.653771270E-3,6.658099323E-3
3.614561833E0,2.880862448E-3,-7.355511189E-4,-1.917871879E-3,3.538168515E-3
3.624518833E0,6.761641707E-4,-4.802457988E-4,2.125669271E-3,2.281732645E-3
3.634474833E0,6.932084216E-4,-1.126062125E-3,2.262289636E-3,2.620402301E-3
3.644431833E0,2.419649158E-3,-6.489921361E-5,5.134232342E-4,2.474372117E-3
3.654388833E0,-1.741273794E-3,4.967609420E-4,-5.529555492E-3,5.818486900E-3
3.664345833E0,1.020653872E-4,-1.559344120E-3,-7.728606462E-3,7.885006613E-3
3.674302833E0,1.164666610E-3,1.758689061E-3,-8.158174343E-3,8.426460950E-3
3.684259833E0,3.016329138E-4,-1.283740625E-3,-3.707750700E-3,3.935274789E-3
3.694215833E0,-5.537744146E-4,2.220978960E-3,7.471852005E-4,2.407841226E-3
3.704172833E0,5.103367148E-4,-1.318173483E-3,2.884516027E-3,3.212235608E-3
3.714129833E0,-2.795178676E-3,2.062199637E-4,1.297538169E-3,3.088552380E-3
3.724086833E0,2.046467736E-3,-4.255389795E-4,-2.396644559E-3,3.180097288E-3
3.734043833E0,1.348453225E-3,-1.923300326E-3,-4.336224869E-3,4.931557194E-3
3.744000833E0,3.893458052E-4,-6.520496681E-4,-6.668291520E-3,6.711398567E-3
3.753956833E0,5.286291707E-4,-6.464570761E-4,-4.287958145E-3,4.368516980E-3
3.763913833E0,8.165782783E-4,-5.519576371E-5,-5.488316528E-4,9.854252078E-4
3.773870833E0,2.091167029E-3,3.277668729E-4,1.969719771E-3,2.891402193E-3
3.783827833E0,-1.785289380E-3,2.319198102E-4,8.489564061E-5,1.802290830E-3
3.793784833E0,-7.919302443E-4,-1.364645548E-3,1.623936463E-3,2.264195358E-3
3.803741833E0,-1.034838613E-3,8.178818971E-4,-2.624765504E-3,2.937552673E-3
3.813697833E0,-3.605261445E-4,2.639442682E-4,-4.758490250E-3,4.779422050E-3
3.823654833E0,-6.262410898E-5,-2.929409966E-4,-4.993785173E-3,5.002761893E-3
3.833611833E0,2.891793847E-4,3.190534189E-4,-3.145817667E-3,3.175151744E-3
3.843568833E0,-1.768207876E-3,1.250064000E-3,-1.762780361E-3,2.792241698E-3
3.853525833E0,7.354299305E-4,1.405060291E-3,2.536626998E-3,2.991576196E-3
3.863482833E0,-6.814310327E-4,4.961183295E-4,1.486792695E-3,1.709103322E-3
3.873438833E0,-1.743233297E-3,-3.664791584E-4,-1.744154142E-3,2.493038903E-3
3.883395833E0,1.148601994E-3,1.404426061E-3,-4.506102763E-3,4.857639469E-3
3.893352833E0,1.685495372E-3,-7.335599512E-4,-5.163636990E-3,5.481072141E-3
3.903309833E0,6.235184846E-4,-2.326256596E-3,-6.123892963E-3,6.580449078E-3
3.913266833E0,3.649401944E-3,-4.830826074E-4,-2.966182772E-3,4.727551543E-3
3.923223833E0,-8.633844554E-4,-1.268845052E-3,-1.430433709E-3,2.097985004E-3
3.933180833E0,-8.509843610E-6,4.616770893E-4,1.847118605E-3,1.903960423E-3
3.943136833E0,-6.167159881E-4,-2.534082159E-4,6.283014081E-4,9.161424526E-4
3.953093833E0,-1.902223798E-3,-2.168221399E-3,-3.682024777E-3,4.677279751E-3
3.963050833E0,6.633501034E-4,1.157576218E-3,-6.073244847E-3,6.218063930E-3
3.973007833E0,6.279300433E-4,1.490376890E-4,-7.508422248E-3,7.536107286E-3
3.982964833E0,6.384673761E-4,-1.686230302E-3,-7.079200819E-3,7.305210295E-3
3.992921833E0,-1.385534997E-3,-6.494615227E-4,-4.900074564E-4,1.606740429E-3
4.002877833E0,5.118534900E-4,-2.048712224E-3,2.086100169E-3,2.968337866E-3
4.012834833E0,6.932148244E-4,-2.408771776E-3,2.553484868E-3,3.578129851E-3
4.022791833E0,-1.204204746E-4,-5.939528346E-4,9.139790200E-4,1.096648854E-3
4.032748833E0,-1.214857912E-4,6.010076031E-4,-4.083708860E-3,4.129485076E-3
4.042705833E0,4.848394310E-4,1.280429773E-3,-6.054731086E-3,6.207603257E-3
4.052662833E0,-1.804413856E-3,8.141109720E-4,-4.462693352E-3,4.882040352E-3
4.062618833E0,-2.053730423E-4,-4.066824913E-4,-1.218036050E-3,1.300453980E-3
4.072575833E0,2.658057725E-3,-1.715254039E-4,9.998446330E-4,2.845062587E-3
4.082532833E0,8.373917080E-4,-4.751263186E-4,2.737788018E-3,2.902146296E-3
4.092489833E0,-6.638321793E-4,-2.535880543E-3,3.553242423E-4,2.645301232E-3
4.102446833E0,-1.366016804E-3,-2.383043058E-3,-2.588716568E-3,3.774433679E-3
4.112403833E0,-9.515648708E-5,7.323231548E-4,-4.851870704E-3,4.907749107E-3
4.122359833E0,-3.837306285E-4,1.572794281E-3,-7.888551801E-3,8.052960981E-3
4.132316833E0,-8.705456275E-5,-9.220549837E-4,-3.458383493E-3,3.580248633E-3
4.142273833E0,-6.548827514E-5,2.968590707E-5,-2.546095289E-3,2.547110361E-3
4.152230833E0,8.098559920E-5,-1.153822988E-3,-1.013712492E-3,1.538011434E-3
4.162187833E0,3.221047577E-3,-1.260219142E-4,9.778947569E-4,3.368576431E-3
4.172144833E0,5.735992454E-4,1.149365678E-3,-1.667689299E-3,2.105052293E-3
4.182100833E0,-8.685014909E-4,6.681466475E-4,-4.739420488E-3,4.864444608E-3
4.192057833E0,-5.097737303E-4,1.537402160E-3,-5.607611034E-3,5.836846423E-3
4.202014833E0,-1.104761264E-3,-1.515280455E-3,-6.209130399E-3,6.486129248E-3
4.211971833E0,7.876810851E-4,-7.363064215E-4,-2.279103501E-3,2.521289631E-3
4.221928833E0,2.917106031E-3,-5.951989442E-5,-4.530791193E-4,2.952681984E-3
4.231885833E0,9.833849035E-4,1.143164001E-3,3.650053404E-3,3.949273307E-3
4.241841833E0,1.949041616E-4,1.612267457E-3,1.180076506E-3,2.007479650E-3
4.251798833E0,-1.389143988E-3,7.166471332E-4,-2.014385303E-3,2.549716119E-3
4.261755833E0,-1.637362409E-3,-1.461790875E-3,-6.510987878E-3,6.871008031E-3
4.271712833E0,-3.644054290E-3,1.638019457E-4,-6.730166264E-3,7.655135576E-3
4.281669833E0,3.719080705E-4,1.288698986E-3,-4.781595431E-3,4.966157021E-3
4.291626833E0,-5.314362934E-4,-1.423996873E-3,4.709572531E-4,1.591223543E-3
4.301583833E0,-8.925327566E-4,1.535283402E-3,2.047051676E-4,1.787628051E-3
4.311539833E0,1.498453319E-3,1.513712108E-3,1.085146330E-3,2.390445409E-3
4.321496833E0,-1.127109863E-3,-8.381316438E-4,9.078537114E-4,1.672435247E-3
4.331453833E0,6.841059076E-4,-1.350257546E-3,-3.625911660E-3,3.929176975E-3
4.341410958E0,2.814526670E-4,-1.026855782E-3,-5.583239254E-3,5.683855115E-3
4.351367958E0,7.600226672E-4,5.199015141E-5,-4.436215386E-3,4.501149229E-3
4.361324958E0,-9.110430256E-5,2.596452832E-4,-3.479027655E-3,3.489892418E-3
4.371280958E0,-2.025624271E-3,-1.335321926E-3,-4.399948753E-3,5.024518620E-3
4.381237958E0,-1.512638992E-4,-5.583567545E-4,-3.153637284E-3,3.206255005E-3
4.391194958E0,-6.980109029E-4,2.938546240E-4,8.051516488E-4,1.105368236E-3
4.401151958E0,-2.563771326E-3,-1.616570167E-3,1.841649879E-3,3.546533067E-3
4.411108958E0,-5.842434475E-4,1.430618577E-3,-2.503563883E-3,2.942081242E-3
4.421065958E0,3.450753866E-4,-5.147876218E-4,-8.010976948E-3,8.034913502E-3
4.431021958E0,-5.534751108E-4,1.261540689E-3,-7.068484090E-3,7.201478108E-3
4.440978958E0,-2.376047196E-4,1.572749577E-3,-3.091335529E-3,3.476543196E-3
4.450935958E0,2.131010871E-3,9.479718283E-4,1.909282058E-3,3.014169189E-3
4.460892958E0,9.882540908E-4,-6.663631648E-4,3.095374443E-3,3.316930653E-3
4.470849958E0,2.039670013E-3,-2.809142694E-3,-6.162733771E-4,3.525809029E-3
4.480806958E0,-4.270495847E-4,-1.325760037E-3,-7.466082461E-4,1.580327465E-3
4.490762958E0,4.105145345E-4,5.565620959E-4,-6.382389460E-3,6.419749120E-3
4.500719958E0,4.122733371E-4,1.608915627E-4,-5.073542241E-3,5.092807307E-3
4.510676958E0,1.040779287E-3,-1.208707690E-4,-3.412262304E-3,3.569504909E-3
4.520633958E0,-8.800360374E-4,5.125384778E-4,-1.715021208E-4,1.032749774E-3
4.530590958E0,-1.069204882E-4,1.250486821E-4,-8.082641289E-4,8.248394181E-4
4.540547958E0,-5.433536135E-4,5.428800359E-4,1.558165532E-3,1.737190751E-3
4.550503958E0,9.740283713E-5,3.732368350E-4,1.158425119E-3,1.220959378E-3
4.560460958E0,-2.742509823E-4,2.383403480E-4,-3.005629405E-3,3.027511824E-3
4.570417958E0,1.131898025E-3,5.640452728E-4,-6.821939256E-3,6.938169458E-3
4.580374958E0,-7.879334735E-4,-1.529259607E-4,-7.091072854E-3,7.136353391E-3
4.590331958E0,-6.454543909E-4,-1.550745219E-5,-4.589565564E-3,4.634756080E-3
4.600288958E0,5.182201276E-4,4.416108131E-4,4.069604911E-4,7.932143797E-4
4.610245958E0,1.581354067E-3,1.751087606E-3,5.200384185E-3,5.710602784E-3
4.620201958E0,-7.589918096E-4,-1.282464713E-3,1.588233747E-3,2.177905127E-3
4.630158958E0,-7.091907319E-4,-5.745328963E-6,-4.288563970E-3,4.346810950E-3
4.640115958E0,-1.162483008E-3,1.081071794E-3,-5.663618445E-3,5.881892286E-3
4.650072958E0,-7.624762366E-4,-3.905910999E-4,-8.323850110E-3,8.367820031E-3
4.660029958E0,-1.795599703E-3,3.711571917E-4,-5.030447617E-3,5.354188938E-3
4.669986958E0,1.093663741E-3,8.651735261E-4,-1.130247954E-3,1.795017005E-3
4.679942958E0,1.741945744E-4,1.146921888E-3,1.097172499E-3,1.596734499E-3
4.689899958E0,-1.634890679E-3,1.063032076E-3,3.084157128E-3,3.648962855E-3
4.699856958E0,6.178965559E-4,3.692135215E-5,-4.698894918E-4,7.771457229E-4
4.709813958E0,-9.609689005E-5,-1.602521166E-3,-3.370870603E-3,3.733641296E-3
4.719770958E0,3.015797120E-4,2.563651651E-4,-7.226409391E-3,7.237241609E-3
4.729727958E0,3.162879962E-3,1.655509695E-4,-6.567010656E-3,7.290874141E-3
4.739683958E0,-5.966017488E-4,-1.162454486E-3,-3.355424386E-3,3.600848079E-3
4.749640958E0,-7.009482943E-5,3.156128339E-3,2.075027209E-3,3.777803237E-3
4.759597958E0,2.765151439E-4,-6.611188874E-4,1.933113206E-3,2.061665704E-3
4.769554958E0,-1.336028799E-3,-2.328789793E-3,-1.461085631E-3,3.056633127E-3
4.779511958E0,-2.886182629E-4,-6.744591519E-4,-1.441400731E-3,1.617353306E-3
4.789468958E0,-2.700643148E-3,1.556612551E-5,-6.934703328E-3,7.442031037E-3
4.799424958E0,-3.594756126E-4,2.392775379E-3,-6.791547406E-3,7.209695757E-3
4.809381958E0,1.949218800E-3,4.036603495E-4,-2.706524683E-3,3.359713004E-3
4.819338958E0,6.100328173E-4,-1.490546390E-3,-1.428393647E-3,2.152713867E-3
4.829295958E0,-9.625637904E-4,-6.780158728E-4,1.306207851E-4,1.184608106E-3
4.839252958E0,7.025921950E-4,1.130405813E-3,-5.171564408E-4,1.427901915E-3
4.849209958E0,1.421912108E-3,-1.402259804E-3,-4.572351463E-4,2.048714372E-3
4.859165958E0,-1.645698445E-3,6.217118353E-4,-3.819304984E-3,4.204989838E-3
4.869122958E0,3.703144612E-4,7.849633694E-4,-2.432597103E-3,2.582794795E-3
4.879079958E0,1.030131592E-3,-1.348275691E-4,-5.814934149E-3,5.907013521E-3
4.889036958E0,2.974959789E-4,4.073921591E-4,-3.312095301E-3,3.350290661E-3
4.898993958E0,3.990599653E-4,1.244571060E-3,-2.132783411E-3,2.501393823E-3
4.908950958E0,-5.274538416E-4,-1.002072357E-3,-8.158502169E-4,1.395696292E-3
4.918907958E0,-6.796800299E-4,-1.286575571E-3,1.578880474E-3,2.147115552E-3
4.928863958E0,-9.140382754E-4,1.178446226E-3,2.017598599E-4,1.504961301E-3
4.938820958E0,9.817321552E-4,-1.436564140E-3,-2.816735767E-3,3.310817865E-3
4.948777958E0,-2.280906541E-3,2.439932898E-3,-4.729950801E-3,5.790357655E-3
4.958734958E0,8.505150327E-4,1.142030582E-3,-9.483502246E-3,9.589808368E-3
4.968691958E0,-1.701059518E-3,-2.397309989E-3,-5.911936983E-3,6.602400894E-3
4.978648958E0,-5.457373336E-4,-9.303716943E-4,-1.137736719E-3,1.567758135E-3
4.988604958E0,7.448304677E-4,1.149196178E-4,8.902605623E-4,1.166423085E-3
4.998561958E0,5.079968832E-5,-3.517347388E-3,-6.974199787E-4,3.586182913E-3
5.008518958E0,-2.083723899E-3,3.170724958E-4,-9.565455839E-4,2.314610055E-3
5.018475958E0,-2.236719243E-3,-1.153679565E-3,-4.672841635E-3,5.307479482E-3
5.028432958E0,-1.529117581E-3,-7.885601372E-4,-5.999095738E-3,6.240927602E-3
5.038389958E0,-2.301849891E-3,-7.211463526E-4,-8.312834427E-3,8.655736895E-3
5.048345958E0,8.103201981E-4,1.124423929E-3,-2.195286565E-3,2.596195504E-3
5.058302958E0,1.141004032E-4,-9.545702487E-4,-1.954372507E-3,2.178025518E-3
5.068259958E0,1.805207692E-3,1.186344773E-3,3.922158387E-3,4.477668494E-3
5.078216958E0,-1.192771364E-3,-2.421096899E-3,-8.071260527E-4,2.817066947E-3
5.088173958E0,3.641126677E-4,9.723026305E-4,-5.340358708E-3,5.440347560E-3
5.098130958E0,-5.151072983E-4,-9.729051962E-4,-5.388924386E-3,5.500216913E-3
5.108086958E0,2.617302584E-3,1.666620374E-4,-7.079498842E-3,7.549659125E-3
5.118043958E0,-6.438128185E-4,2.079745755E-4,-4.340059590E-3,4.392478299E-3
5.128000958E0,1.982863061E-3,-8.097849786E-5,-7.181148976E-5,1.985814776E-3
5.137957958E0,-1.413001912E-3,-6.143748760E-5,2.988661174E-3,3.306424743E-3
5.147914958E0,-7.421516348E-4,-1.207130030E-3,-1.034043729E-3,1.754194514E-3
5.157871958E0,-1.101625152E-3,-3.898460418E-4,-1.006782521E-3,1.542455495E-3
5.167827958E0,1.358070527E-3,-4.159444943E-4,-6.942702457E-3,7.086500038E-3
5.177784958E0,3.154601436E-4,-1.937029883E-4,-5.607303232E-3,5.619509363E-3
5.187741958E0,2.898938255E-4,-4.696287215E-5,-6.084541790E-3,6.091624803E-3
5.197698958E0,-3.028422361E-4,5.155112594E-4,-2.834170125E-3,2.896547182E-3
5.207655958E0,-1.348665566E-3,1.052138396E-3,2.008788288E-3,2.638394284E-3
5.217612958E0,9.317661170E-5,-4.901429638E-4,3.606967628E-3,3.641309857E-3
5.227569958E0,7.400583709E-4,-7.389113307E-5,2.561784349E-4,7.866216895E-4
5.237525958E0,-1.850083238E-3,-4.866570234E-4,-1.076952554E-3,2.195329098E-3
5.247482958E0,-1.177368686E-3,-4.443135113E-4,-7.409683429E-3,7.515784725E-3
5.257439958E0,2.645211061E-4,-1.625789329E-3,-6.564598065E-3,6.768095014E-3
5.267396958E0,-9.972845437E-4,-1.427650452E-3,-4.257767927E-3,4.600146736E-3
5.277353958E0,-1.990558114E-3,-2.212524414E-4,-1.960354857E-4,2.012387676E-3
5.287310958E0,-2.073382493E-3,-3.160610795E-4,1.782427076E-3,2.752427265E-3
5.297266958E0,-2.967397217E-3,4.476979375E-4,1.814150717E-3,3.506711067E-3
5.307223958E0,-6.810734048E-4,-1.582429744E-3,-3.504714463E-3,3.905248820E-3
5.317180958E0,-2.342440654E-3,-5.844309926E-4,-6.812836975E-3,7.227955136E-3
5.327137958E0,1.166007482E-3,9.234501049E-4,-1.017667539E-2,1.028479731E-2
5.337094958E0,-1.727946452E-3,-4.421118647E-4,-4.418702796E-3,4.765101913E-3
5.347051458E0,1.295274007E-3,-6.825951859E-4,-2.868742915E-3,3.220769606E-3
5.357007458E0,9.721051902E-5,-1.155337319E-3,-2.741632052E-4,1.191394002E-3
5.366964458E0,-6.817642134E-4,-1.894086599E-4,2.296053339E-3,2.402610875E-3
5.376921458E0,-2.280572429E-3,7.903221995E-4,2.737759147E-3,3.649786971E-3
5.386878458E0,-1.309051178E-3,4.449095577E-4,-2.682572464E-3,3.017905652E-3
5.396835458E0,1.030474901E-3,7.239403203E-4,-7.297217380E-3,7.405089439E-3
5.406792458E0,2.878442407E-3,3.434505314E-3,-6.412781775E-3,7.823364208E-3
5.416749458E0,-5.771175493E-4,1.149847172E-3,-4.107741173E-3,4.304503541E-3
5.426705458E0,1.666595694E-3,9.130919352E-4,-2.722897567E-3,3.320459192E-3
5.436662458E0,-2.380204387E-5,8.717216551E-4,2.541756257E-4,9.083338759E-4
5.446619458E0,-6.384596927E-4,5.223155022E-4,1.674706116E-3,1.866838193E-3
5.456576458E0,2.854203107E-3,3.044458106E-3,-1.155451639E-3,4.330158083E-3
5.466533458E0,-2.830006415E-4,6.374930963E-4,-2.533637453E-3,2.627889943E-3
5.476490458E0,-1.221350743E-3,9.450791404E-4,-3.621474141E-3,3.936997228E-3
5.486446458E0,-3.667423734E-4,7.514674217E-4,-5.852137692E-3,5.911574987E-3
5.496403458E0,4.783859476E-4,-3.355257213E-4,-4.864702467E-3,4.899669450E-3
5.506360458E0,1.763835317E-4,-2.015680075E-4,-1.374363434E-3,1.400219861E-3
5.516317458E0,-2.188959392E-3,1.539271325E-3,-6.465055048E-4,2.752974536E-3
5.526274458E0,1.599484822E-4,-6.170896813E-4,1.008382998E-3,1.192987621E-3
5.536231458E0,-9.631733410E-4,6.134556606E-4,1.166558359E-3,1.632448816E-3
5.546187458E0,-8.246889338E-4,5.692476407E-4,-1.175159123E-3,1.544394275E-3
5.556144458E0,-1.159471925E-3,-2.642348409E-5,-4.123310558E-3,4.283312189E-3
5.566101458E0,1.147624454E-3,-1.015787944E-3,-6.118550897E-3,6.307577357E-3
5.576058458E0,4.897225881E-4,7.433090359E-4,-4.490301013E-3,4.577678421E-3
5.586015458E0,1.625294448E-3,7.680766284E-4,-2.149915090E-3,2.802437982E-3
5.595972458E0,-1.734558260E-3,-3.000971861E-3,1.767351758E-3,3.890765568E-3
5.605928458E0,1.253774855E-3,1.356758177E-3,1.267476473E-3,2.240366209E-3
5.615885458E0,-1.273795497E-4,7.853563875E-5,-1.365364064E-3,1.373540106E-3
5.625842458E0,-8.797226474E-4,9.744428098E-5,-5.764639936E-3,5.832193491E-3
5.635799458E0,-8.942255517E-4,5.728881806E-4,-5.160118919E-3,5.268269874E-3
5.645756458E0,1.851536799E-4,-1.859376207E-3,-6.917272694E-3,7.165209229E-3
5.655713458E0,-1.281286124E-3,-4.888940603E-4,-4.232718144E-3,4.449338649E-3
5.665669458E0,-8.168308996E-4,-1.587182283E-3,2.394824754E-3,2.986895700E-3
5.675626458E0,1.820067875E-3,4.510777071E-4,3.155892249E-3,3.670936400E-3
5.685583458E0,9.601330967E-4,-1.052277163E-3,2.050680108E-3,2.496884398E-3
5.695540458E0,2.507307800E-4,-1.192633063E-3,-1.854070928E-3,2.218742561E-3
5.705497458E0,-3.687206190E-4,1.554950140E-3,-7.556964178E-3,7.724087805E-3
5.715454458E0,-7.638675161E-4,-1.348426566E-3,-7.788876537E-3,7.941558128E-3
5.725411458E0,1.744563924E-3,-5.121938884E-4,-4.420244135E-3,4.779581998E-3
5.735367458E0,6.817863323E-5,-7.070349529E-4,-6.650830619E-4,9.730787378E-4
5.745324458E0,-1.180311199E-3,8.858013898E-4,3.306755330E-3,3.621106108E-3
5.755281458E0,-5.255083088E-4,8.713658899E-4,2.432625275E-3,2.636873760E-3
5.765238458E0,6.066014757E-4,-6.719361991E-4,-4.915255122E-4,1.030078121E-3
5.775195458E0,-9.004327003E-4,-8.718948811E-5,-6.814935245E-3,6.874716245E-3
5.785152458E0,-1.162754139E-3,-9.907996282E-4,-6.888971198E-3,7.056316692E-3
5.795108458E0,4.867917160E-4,2.287793905E-5,-5.752987228E-3,5.773590878E-3
5.805065458E0,-1.173156663E-3,-8.397204801E-4,7.371362299E-4,1.620122484E-3
5.815022458E0,2.039813902E-3,-2.682479098E-4,1.127887052E-3,2.346258063E-3
5.824979458E0,-1.043593977E-3,-7.649268955E-4,4.351377022E-3,4.539678791E-3
5.834936458E0,8.124824381E-4,1.246999949E-3,-6.515653804E-4,1.624707368E-3
5.844893458E0,1.886801561E-3,2.459004521E-3,-3.292355686E-3,4.521761751E-3
5.854849458E0,-1.052589854E-3,8.848179132E-4,-7.964855991E-3,8.082683905E-3
5.864806458E0,-4.933259916E-4,5.074487999E-4,-6.107035093E-3,6.147906347E-3
5.874763458E0,-9.028003551E-4,-1.217310317E-3,-5.196169019E-3,5.412676358E-3
5.884720458E0,-3.475311678E-4,-4.205759615E-5,-3.172578290E-4,4.724397147E-4
5.894677458E0,3.260515165E-3,-1.227036119E-4,1.251990441E-3,3.494781163E-3
5.904634458E0,2.185663208E-3,-7.349643856E-4,1.944494434E-4,2.314110389E-3
5.914591458E0,1.044561854E-3,2.246166579E-3,-2.456292743E-3,3.488516563E-3
5.924547458E0,-8.582668379E-4,-1.434322447E-3,-6.039043423E-3,6.266095140E-3
5.934504458E0,-1.543211052E-3,-9.553786367E-5,-7.261070423E-3,7.423864999E-3
5.944461458E0,-8.875406347E-4,5.013681948E-5,-4.314548802E-3,4.405175756E-3
5.954418458E0,7.366038626E-4,4.283515736E-4,-2.356989309E-3,2.506285882E-3
5.964375458E0,2.854349557E-3,-1.325073652E-3,-5.015917122E-5,3.147323867E-3
5.974332458E0,9.394539520E-4,-2.471281216E-3,1.872441731E-3,3.239728787E-3
5.984288458E0,-1.702401787E-3,-3.002723679E-4,-1.012027729E-3,2.003131415E-3
5.994245458E0,2.562783193E-4,-6.243959069E-4,-3.787283786E-3,3.846955588E-3
6.004202458E0,2.628089627E-3,-2.210574225E-3,-6.008360069E-3,6.920540746E-3
6.014159458E0,-6.013534730E-4,9.951414540E-4,-7.170546800E-3,7.264204975E-3
6.024116458E0,-3.111915197E-3,3.077797592E-4,-2.656222554E-3,4.102957815E-3
6.034073458E0,-7.742200978E-6,-5.009798333E-4,-1.537566772E-3,1.617143257E-3
6.044029458E0,7.222302957E-4,-3.359466791E-5,3.341077827E-3,3.418412826E-3
6.053986458E0,1.719555818E-3,1.915684901E-3,3.233703785E-3,4.133226466E-3
6.063943458E0,-9.100494208E-4,1.233382151E-3,-6.856699474E-4,1.679155965E-3
6.073900458E0,-3.274876392E-3,1.456767321E-3,-5.256557837E-3,6.362262703E-3
6.083857458E0,3.363585332E-3,-1.176833175E-3,-7.023298647E-3,7.875618484E-3
6.093814458E0,-2.950010588E-3,-4.955017939E-4,-7.791846991E-3,8.346314398E-3
6.103771458E0,3.195765894E-3,2.267472446E-4,-1.415174222E-3,3.502435158E-3
6.113727458E0,-1.207078109E-3,-4.810160026E-4,1.928222366E-3,2.325178584E-3
6.123684458E0,3.581818193E-3,5.514910445E-4,3.740237094E-3,5.207968650E-3
6.133641458E0,-6.984698121E-5,-8.866507560E-4,7.018209435E-4,1.132952250E-3
6.143598458E0,-3.859641729E-4,-1.180171967E-5,-5.831978284E-3,5.844747927E-3
6.153555458E0,4.059672356E-4,7.290784270E-4,-7.576268166E-3,7.622086596E-3
6.163512458E0,-3.052946413E-3,-1.510639675E-3,-8.156837896E-3,8.839486325E-3
6.173468458E0,-3.250443842E-4,1.419696026E-3,-3.582124133E-3,3.866885563E-3
6.183425458E0,5.516682286E-4,-8.386643603E-4,2.253972925E-4,1.028834138E-3
6.193382458E0,2.420076635E-3,-1.210642979E-3,1.986756921E-3,3.357027018E-3
6.203339458E0,3.092550905E-4,4.157517105E-5,1.593940426E-3,1.624196197E-3
6.213296458E0,-8.465291467E-4,3.284262493E-4,-5.410439335E-4,1.056978683E-3
6.223253458E0,-1.307788538E-3,9.987438098E-4,-1.615895890E-3,2.306278297E-3
6.233209458E0,-8.850465529E-4,-1.242472790E-3,-8.125347085E-3,8.267303750E-3
6.243166458E0,7.022928912E-5,-9.889397770E-4,-5.949278362E-3,6.031322166E-3
6.253123458E0,-1.710326411E-3,-1.375389285E-3,-3.591283225E-3,4.208827309E-3
6.263080458E0,2.735821065E-3,-4.981439561E-4,-1.677535474E-3,3.247612903E-3
6.273037458E0,-1.621781616E-3,9.558266029E-4,2.372922376E-3,3.028950430E-3
6.282994458E0,-4.747582134E-4,-4.817480221E-4,9.105806239E-4,1.134298722E-3
6.292951458E0,-7.015338633E-5,-3.783591092E-5,-6.283959374E-4,6.334307444E-4
6.302907458E0,-6.885393523E-4,-1.409630291E-3,-3.319786396E-3,3.671801426E-3
6.312864458E0,-3.024670295E-3,-4.203394055E-4,-4.418961238E-3,5.371455486E-3
6.322821458E0,1.354365377E-4,-1.182535663E-3,-3.790988121E-3,3.973452477E-3
6.332778458E0,7.848346140E-4,-4.379488528E-4,-2.308922121E-3,2.477677528E-3
6.342736333E0,8.378314669E-4,-4.049250856E-4,-5.291313864E-4,1.070469951E-3
6.352693333E0,-1.699495479E-3,-1.518678851E-3,3.844149411E-3,4.469021708E-3
6.362649333E0,9.048096254E-4,-9.445007890E-4,-1.721642911E-4,1.319243246E-3
6.372606333E0,-5.010097520E-4,-1.601666212E-3,-1.540278550E-3,2.277894519E-3
6.382563333E0,-1.495167729E-3,-8.562477306E-4,-5.107848905E-3,5.390622149E-3
6.392520333E0,-8.041665424E-4,1.210523769E-3,-5.460281856E-3,5.650374286E-3
6.402477333E0,-4.623085260E-5,6.187688559E-4,-6.417421624E-3,6.447349261E-3
6.412434333E0,-5.388584686E-4,9.292401373E-4,1.278934069E-4,1.081763563E-3
6.422390333E0,-2.163496101E-4,-9.698597714E-4,5.004699342E-4,1.112611920E-3
6.432347333E0,-6.377601530E-4,-6.591305137E-4,1.774308272E-3,1.997338452E-3
6.442304333E0,7.894280134E-4,-1.282576472E-3,-6.531630643E-4,1.641590991E-3
6.452261333E0,-2.651695395E-3,1.298232935E-3,-2.453781664E-3,3.839002693E-3
6.462218333E0,5.827138666E-4,-5.172379315E-5,-3.304928076E-3,3.356304573E-3
6.472175333E0,-5.395493936E-4,-1.159198582E-4,-5.260197446E-3,5.289066849E-3
6.482131333E0,3.827031469E-4,-1.660021022E-3,-4.730494693E-3,5.027893349E-3
6.492088333E0,1.439114800E-3,9.514670819E-5,-6.488380022E-4,1.581485079E-3
6.502045333E0,1.649770769E-3,1.226990484E-3,1.534687821E-3,2.565641430E-3
6.512002333E0,-5.996483378E-5,-2.548525110E-3,1.294923015E-3,2.859265925E-3
6.521959333E0,-2.563868649E-3,-1.490185037E-3,-1.356786583E-3,3.261126144E-3
6.531916333E0,1.878488692E-3,-2.555098385E-3,-6.362213753E-3,7.108798166E-3
6.541873333E0,-5.431473255E-6,-8.496101946E-4,-6.265807431E-3,6.323148721E-3
6.551829333E0,1.447450370E-3,-1.127801836E-3,-5.612832494E-3,5.905161993E-3
6.561786333E0,9.342592093E-4,5.819471553E-4,-4.092818126E-4,1.174314423E-3
6.571743333E0,-5.276182201E-4,1.806197688E-4,4.487472121E-3,4.521991875E-3
6.581700333E0,-6.298834924E-4,-1.959512010E-4,3.346041311E-3,3.410446091E-3
6.591657333E0,1.721899025E-4,-2.134337090E-3,-2.022581175E-4,2.150802762E-3
6.601614333E0,1.129329903E-3,2.489257604E-4,-4.312580451E-3,4.464941233E-3
6.611570333E0,-9.182624053E-4,2.554059029E-5,-6.084534340E-3,6.153488141E-3
6.621527333E0,1.593630994E-3,1.051656902E-3,-5.402232520E-3,5.729725839E-3
6.631484333E0,-2.951374045E-3,-1.826064661E-3,-3.965473734E-3,5.269734607E-3
6.641441333E0,1.037242357E-3,-8.830390871E-4,-1.409371383E-3,1.960091180E-3
6.651398333E0,-1.977073494E-3,-1.620376483E-3,2.195282374E-3,3.369525819E-3
6.661355333E0,2.162011340E-3,9.349267930E-4,2.968397457E-3,3.789428005E-3
6.671311333E0,-1.266347244E-3,3.208797425E-4,-2.407225780E-3,2.738856533E-3
6.681268333E0,-1.462888438E-3,3.049010411E-4,-5.764939357E-3,5.955462452E-3
6.691225333E0,1.428301912E-4,-1.475899480E-3,-6.464116275E-3,6.632004144E-3
6.701182333E0,-7.698350819E-4,-2.462866716E-3,-5.148248281E-3,5.758716774E-3
6.711139333E0,-8.353961166E-4,-5.158921704E-4,-5.828449503E-5,9.835794251E-4
6.721096333E0,1.721771201E-3,1.187997870E-3,8.133677766E-4,2.244415770E-3
6.731053333E0,-7.379055023E-4,-2.204254270E-5,1.388746779E-3,1.572770810E-3
6.741009333E0,-1.467611641E-3,2.440849319E-3,-2.267267555E-4,2.857102439E-3
6.750966333E0,-1.199789345E-3,-6.329305470E-4,-3.067173064E-3,3.353751057E-3
6.760923333E0,6.859949790E-4,-2.328032628E-3,-6.990808062E-3,7.400116377E-3
6.770880333E0,-1.472033095E-3,-1.565117389E-3,-6.516118534E-3,6.861215244E-3
6.780837333E0,2.582225716E-4,1.411763951E-3,-3.152812365E-3,3.464099040E-3
6.790794333E0,-3.591682995E-3,-1.847790554E-4,-7.663154975E-4,3.677168677E-3
6.800750333E0,-1.935463166E-3,-6.060916930E-4,8.132052608E-4,2.185101280E-3
6.810707333E0,-1.920680981E-3,-4.376843572E-5,1.810819376E-3,2.640075363E-3
6.820664333E0,2.149078064E-4,-2.214777283E-3,-1.006804872E-3,2.442351291E-3
6.830621333E0,5.021692486E-4,9.578838944E-4,-4.171965644E-3,4.309873878E-3
6.840578333E0,1.669166493E-3,-1.681009308E-4,-5.948028062E-3,6.180081919E-3
6.850535333E0,-1.710403827E-3,-1.029177569E-3,-4.658379592E-3,5.068055657E-3
6.860492333E0,2.258505207E-3,-9.554075077E-4,-4.191527609E-3,4.856187081E-3
6.870448333E0,-9.288631845E-4,-1.300128177E-3,4.160293844E-3,4.456586694E-3
6.880405333E0,-6.662756205E-4,1.028539613E-3,1.111240592E-3,1.654289150E-3
6.890362333E0,5.714199506E-4,-2.160067670E-3,-3.117854474E-3,3.835808861E-3
6.900319333E0,-4.432443529E-4,-1.663654111E-3,-2.280556597E-3,2.857472476E-3
6.910276333E0,4.851699341E-4,1.202378422E-3,-4.882916342E-3,5.052125864E-3
6.920233333E0,7.424422074E-5,3.499006853E-4,-5.240045954E-3,5.252239931E-3
6.930189333E0,7.211365737E-4,1.127594151E-3,-3.430243349E-3,3.682129270E-3
6.940146333E0,7.490997668E-4,-1.175506972E-3,-3.132501850E-3,3.428634559E-3
6.950103333E0,3.047096543E-3,-3.011683933E-3,-1.810612623E-3,4.651167114E-3
6.960060333E0,-7.404510397E-4,1.938866451E-3,1.678927336E-3,2.669507044E-3
6.970017333E0,4.880842753E-4,1.220550388E-3,-6.065843627E-5,1.315921333E-3
6.979974333E0,2.673082054E-4,3.821877763E-4,-2.048974391E-3,2.101384598E-3
6.989930333E0,4.062647931E-4,-1.748739742E-3,-3.412714927E-3,3.856133418E-3
6.999887333E0,-9.434253443E-4,-2.304716036E-4,-4.982115701E-3,5.075888631E-3
7.009844333E0,3.309184685E-4,-8.623097092E-4,-5.582593847E-3,5.658483819E-3
7.019801333E0,2.403709805E-4,-4.812115803E-4,-3.148997203E-3,3.194608924E-3
7.029758333E0,2.320118947E-3,-5.419682711E-4,2.766666468E-3,3.651181299E-3
7.039715333E0,-1.507619163E-4,-3.155991435E-4,2.842033748E-3,2.863474777E-3
7.049672333E0,-3.388221376E-4,1.230975613E-4,-1.504511572E-3,1.547096804E-3
7.059628333E0,3.634534078E-4,-7.477561012E-4,-3.664335236E-3,3.757471262E-3
7.069585333E0,1.359186834E-3,2.448307350E-4,-5.468796007E-3,5.640484085E-3
7.079542333E0,1.636688248E-3,6.347177550E-4,-6.437653676E-3,6.672705591E-3
7.089499333E0,5.093570799E-4,-2.383080311E-3,-4.180575255E-3,4.838979838E-3
7.099456333E0,-1.825702609E-3,-1.286390238E-3,1.228265464E-4,2.236755736E-3
7.109413333E0,3.242113162E-4,-1.992926002E-3,2.468343824E-3,3.188979188E-3
7.119369333E0,5.162252346E-4,1.480635256E-3,4.035951570E-4,1.619153576E-3
7.129326333E0,1.137906103E-3,-2.184500918E-4,-9.495411068E-4,1.498058429E-3
7.139283333E0,5.245801294E-4,-5.588019267E-4,-3.728815820E-3,3.806771772E-3
7.149240333E0,-3.433360253E-4,-2.811159939E-4,-4.501170479E-3,4.522990328E-3
7.159197333E0,-1.789166359E-3,2.603046596E-4,-7.233574055E-3,7.456102761E-3
7.169154333E0,1.371983206E-3,-8.637821302E-4,-3.443477675E-3,3.806047292E-3
7.179110333E0,1.661039423E-4,-1.089085825E-3,-1.265103929E-4,1.108919895E-3
7.189067333E0,1.109607285E-3,-1.388640143E-3,5.899518728E-4,1.872856905E-3
7.199024333E0,-1.541569596E-3,-1.151619479E-3,2.251497936E-3,2.961740569E-3
7.208981333E0,9.206004906E-4,2.736281604E-4,-3.817765508E-3,3.936713236E-3
7.218938333E0,1.598641276E-3,-4.701921716E-4,-1.354075037E-3,2.147150161E-3
7.228895333E0,4.088121932E-4,4.709130153E-4,-8.124113083E-3,8.148012019E-3
7.238852333E0,-1.714526094E-3,1.999034546E-3,-4.287030548E-3,5.031338764E-3
7.248808333E0,-4.381994950E-4,1.860830002E-3,7.451255806E-4,2.051808769E-3
7.258765333E0,8.912505000E-4,1.361221075E-3,2.264725510E-3,2.788589591E-3
7.268722333E0,1.026747865E-3,-8.962154388E-4,-4.812437110E-4,1.445340375E-3
7.278679333E0,-4.489095882E-4,5.240486935E-4,-1.145702321E-3,1.337453050E-3
7.288636333E0,5.467523588E-4,1.183051616E-3,-3.466566093E-3,3.703461860E-3
7.298593333E0,-3.776309313E-4,7.050149143E-4,-5.609878339E-3,5.666602697E-3
7.308549333E0,7.973262109E-4,-1.887939870E-4,-4.590283614E-3,4.662839898E-3
7.318506333E0,6.492544198E-4,3.944383934E-4,-5.109866615E-3,5.166028433E-3
7.328463333E0,-2.027262934E-3,1.418892294E-3,-2.046351088E-3,3.211012787E-3
7.338420333E0,-1.547944266E-4,1.757114194E-3,2.898606006E-3,3.393129586E-3
7.348377208E0,-1.118408516E-3,-2.032281831E-3,2.942364663E-4,2.338286156E-3
7.358334208E0,1.876848633E-3,-3.081513569E-4,-2.186764497E-3,2.898181674E-3
7.368291208E0,-2.017370425E-4,-2.774335444E-4,-5.814125761E-3,5.824236051E-3
7.378247208E0,3.636521287E-4,-6.464682519E-5,-7.997651584E-3,8.006175925E-3
7.388204208E0,-1.274845330E-3,-4.270859063E-5,-4.173420370E-3,4.363999567E-3
7.398161208E0,6.490221713E-4,1.341070049E-3,-4.021886270E-3,4.288970486E-3
7.408118208E0,1.029316452E-3,-1.715539955E-3,3.174162004E-3,3.752049323E-3
7.418075208E0,3.962831106E-4,2.235792577E-3,2.555243671E-3,3.418344478E-3
7.428032208E0,-7.522326196E-4,-2.426887862E-3,-3.279484808E-4,2.561872131E-3
7.437988208E0,-1.688599936E-3,-8.244644850E-4,-3.803639906E-3,4.242497845E-3
7.447945208E0,1.284521772E-3,2.258783206E-4,-4.577000625E-3,4.759196563E-3
7.457902208E0,2.613352844E-4,1.963857561E-3,-5.350915249E-3,5.705902791E-3
7.467859208E0,-1.541463425E-4,1.384861767E-3,-3.810510039E-3,4.057288500E-3
7.477816208E0,1.129687298E-4,-1.552338712E-3,8.148681372E-4,1.756851585E-3
7.487773208E0,-2.799904905E-3,4.167025909E-4,-2.875337377E-4,2.845309153E-3
7.497730208E0,-6.475381088E-4,1.658322290E-4,2.591875847E-3,2.676681964E-3
7.507686208E0,-6.654693279E-4,1.504598185E-3,-2.803568961E-3,3.250640559E-3
7.517643208E0,1.803813619E-3,-3.260862082E-3,-4.290411714E-3,5.682833604E-3
7.527600208E0,7.525307592E-4,4.114210606E-4,-5.927956663E-3,5.989677790E-3
7.537557208E0,2.193034627E-3,-1.362510957E-3,-5.843268242E-3,6.388240816E-3
7.547514208E0,-8.337299805E-4,1.074981876E-3,-2.562819049E-3,2.901505332E-3
7.557471208E0,-1.372221159E-3,-1.549829729E-3,2.767498139E-3,3.456010568E-3
7.567427208E0,6.352687487E-4,1.006990671E-3,1.244218554E-3,1.722113935E-3
7.577384208E0,-1.990874298E-3,1.171307638E-3,-2.748486586E-4,2.326173648E-3
7.587341208E0,2.444865182E-3,1.281058416E-3,-4.005921539E-3,4.864759377E-3
7.597298208E0,-3.799994010E-5,-1.472118311E-3,-6.829404738E-3,6.986368541E-3
7.607255208E0,-1.445124624E-3,-1.134256832E-3,-9.509174153E-3,9.685004740E-3
7.617212208E0,-7.300658617E-4,1.237021759E-3,-5.543994252E-3,5.727049088E-3
7.627168208E0,3.868378699E-4,1.425039954E-3,-4.185934551E-3,4.438741992E-3
7.637125208E0,9.109479142E-4,2.540905029E-3,4.572403152E-3,5.309698207E-3
7.647082208E0,1.395704108E-3,-2.826480195E-4,3.180385102E-3,3.484641912E-3
7.657039208E0,-6.498697912E-4,1.395143569E-3,1.423764508E-3,2.096631035E-3
7.666996208E0,-4.265340976E-4,-5.079014227E-4,-5.619780626E-3,5.658783392E-3
7.676953208E0,8.421957027E-4,-5.638273433E-4,-7.291979622E-3,7.362075909E-3
7.686910208E0,-1.583131962E-4,-1.857494004E-3,-9.208470583E-3,9.395279534E-3
7.696866208E0,1.097100903E-3,7.795682177E-4,-5.927457009E-3,6.078330658E-3
7.706823208E0,-7.596530486E-4,-3.550248221E-4,1.296731643E-3,1.544224185E-3
7.716780208E0,2.712043701E-3,-9.052334353E-4,1.378756948E-3,3.174208457E-3
7.726737208E0,-3.091611434E-3,6.205383688E-4,1.847028267E-3,3.654400435E-3
7.736694208E0,5.433373153E-4,-2.982523292E-4,-3.386882134E-3,3.443129460E-3
7.746651208E0,-6.672453601E-4,1.382937655E-3,-6.068289280E-3,6.259542133E-3
7.756608208E0,-5.199727602E-4,5.381824449E-4,-4.904753994E-3,4.961514261E-3
7.766564208E0,2.690633992E-4,-4.906514660E-4,-6.712709088E-3,6.735992672E-3
7.776521208E0,2.206513193E-3,9.482549503E-4,-3.217310179E-3,4.014844045E-3
7.786478208E0,1.062418101E-3,8.391002193E-4,1.724783797E-3,2.192646927E-3
7.796435208E0,2.720502205E-3,-7.500080392E-4,1.965267118E-3,3.438883417E-3
7.806392208E0,2.347075846E-3,-6.206408143E-4,-1.206656452E-3,2.711084625E-3
7.816349208E0,-5.381929222E-4,-2.212679014E-3,-1.555796945E-3,2.757916637E-3
7.826305208E0,5.609599175E-4,5.458611995E-4,-3.212662879E-3,3.306636245E-3
7.836262208E0,4.155513598E-4,-6.107334048E-5,-4.425732885E-3,4.445618568E-3
7.846219208E0,1.963172806E-3,-4.282733425E-4,-4.570195917E-3,4.992409863E-3
7.856176208E0,-1.868849620E-3,6.713466719E-4,-2.598391380E-3,3.270312374E-3
7.866133208E0,-9.351000190E-4,-9.961547330E-4,1.890284941E-3,2.332362205E-3
7.876090208E0,-3.670477308E-4,-1.582316123E-3,1.423699316E-3,2.159946317E-3
7.886046208E0,1.784203108E-3,-1.418113708E-3,-7.106615230E-4,2.387355655E-3
7.896003208E0,-4.853426944E-4,-1.239149831E-3,-4.583962727E-3,4.773234136E-3
7.905960208E0,-1.273578964E-3,1.270147040E-3,-5.017525516E-3,5.330181910E-3
7.915917208E0,2.297453582E-3,-2.820734866E-3,-7.270293310E-3,8.129698824E-3
7.925874208E0,1.911657397E-3,1.201675273E-3,-3.678602632E-3,4.316314955E-3
7.935831208E0,-9.464470204E-4,2.621123567E-4,-5.430681631E-5,9.835721022E-4
7.945788208E0,9.870503563E-4,-1.623600721E-3,1.057611778E-3,2.174601201E-3
7.955744208E0,-5.357451737E-4,-2.448819578E-4,7.846378721E-4,9.811455829E-4
7.965701208E0,1.642338932E-3,-2.929866314E-4,2.569844946E-4,1.687945308E-3
7.975658208E0,6.077009020E-4,-2.630975097E-3,-3.849876113E-3,4.702433034E-3
7.985615208E0,1.819602912E-4,-1.366496086E-3,-6.104790606E-3,6.258505368E-3
7.995572208E0,2.975414973E-4,1.881761476E-3,-4.679467063E-3,5.052422112E-3
8.005529208E0,1.354924170E-3,2.072927542E-3,-2.188564045E-3,3.304944883E-3
8.015485208E0,3.980504116E-4,8.806297556E-4,1.386729535E-3,1.690257879E-3
8.025442208E0,-1.858815551E-3,7.020588964E-5,2.887970302E-3,3.435185088E-3
8.035399208E0,-1.205275767E-3,3.871219233E-4,-3.648758400E-3,3.862122593E-3
8.045356208E0,1.935072243E-3,-5.308417603E-4,-2.132137073E-3,2.927850075E-3
8.055313208E0,4.388642497E-3,-1.207284629E-3,-4.801689647E-3,6.616187922E-3
8.065270208E0,-6.927896757E-4,1.322617754E-3,-7.377733476E-3,7.527298752E-3
8.075227208E0,3.197441110E-4,-6.377352402E-4,-4.301515874E-3,4.360273081E-3
8.085183208E0,-2.007847419E-3,-1.444771886E-3,-2.900344552E-3,3.811930690E-3
8.095140208E0,1.986095216E-3,7.456773892E-4,-9.125610813E-4,2.309410467E-3
8.105097208E0,5.674542626E-4,-1.510977745E-5,3.600463737E-3,3.644937827E-3
8.115054208E0,-8.525431622E-4,1.704493538E-3,5.313334987E-5,1.906554803E-3
8.125011208E0,-1.749293879E-3,9.464826435E-4,-3.952145111E-3,4.424399332E-3
8.134968208E0,6.526110228E-4,-5.334364250E-4,-4.889311269E-3,4.961433286E-3
8.144924208E0,-1.837354968E-3,-1.543169841E-3,-7.302717771E-3,7.686802540E-3
8.154881208E0,-3.093283158E-5,2.410076559E-5,-3.141262336E-3,3.141507082E-3
8.164838208E0,-1.928806305E-4,1.712388359E-3,-1.631696941E-3,2.373164920E-3
8.174795208E0,9.127869271E-5,2.332692966E-4,2.708653919E-4,3.689368849E-4
8.184752208E0,-1.064222306E-5,1.608915627E-3,-3.981897607E-4,1.657491429E-3
8.194709208E0,-1.638632501E-3,1.428619958E-3,-1.056523062E-3,2.417087594E-3
8.204666208E0,-1.131767174E-3,4.105111584E-4,-3.974778112E-3,4.153104548E-3
8.214622208E0,2.011448378E-4,-1.640655100E-3,-6.261900999E-3,6.476388849E-3
8.224579208E0,-1.237171702E-3,-5.315085873E-4,-4.767552484E-3,4.954054086E-3
8.234536208E0,-7.847007364E-4,4.844879732E-4,-2.886029193E-3,3.029793449E-3
8.244493208E0,-2.504874021E-3,-3.383252770E-4,-6.682509556E-4,2.614463079E-3
8.254450208E0,-2.051603980E-3,-1.304253004E-3,2.582669724E-3,3.546877175E-3
8.264407208E0,-8.045635186E-4,2.354269847E-3,1.475327183E-3,2.892490149E-3
8.274363208E0,6.868066266E-4,-4.527019337E-4,-3.169798292E-4,8.815433031E-4
8.284320208E0,-6.198785268E-4,1.031480730E-3,-4.506361671E-3,4.664278872E-3
8.294277208E0,-5.391847808E-4,-1.589525491E-4,-6.709062029E-3,6.732570048E-3
8.304234208E0,-4.720296711E-4,1.354358159E-3,-7.431615144E-3,7.568751659E-3
8.314191208E0,9.730015299E-4,3.141276538E-4,-4.103728570E-3,4.229183885E-3
8.324148208E0,5.414705956E-4,1.453692093E-3,-1.357890898E-3,2.061620431E-3
8.334105208E0,-1.622081501E-3,3.030550666E-3,5.113057792E-3,6.161066931E-3
8.344061708E0,2.959335921E-3,-2.676825970E-4,1.257082913E-3,3.226388154E-3
8.354018708E0,2.857885556E-4,-1.604855992E-3,-1.706216717E-3,2.359748575E-3
8.363975708E0,8.661672473E-5,9.968895465E-4,-5.042791832E-3,5.141112787E-3
8.373932708E0,2.655235585E-3,7.718531415E-4,-9.601058438E-3,9.991314049E-3
8.383889708E0,4.182930570E-5,-6.395243108E-4,-3.556449199E-3,3.613733795E-3
8.393846708E0,2.414705697E-3,5.647568032E-4,-9.987493977E-4,2.673434909E-3
8.403802708E0,-6.763524143E-4,1.221197657E-3,2.258833963E-3,2.655392095E-3
8.413759708E0,2.064306522E-3,-2.651304938E-3,1.758425962E-3,3.792471642E-3
8.423716708E0,8.562870207E-4,-5.942117423E-5,-2.009036252E-3,2.184716229E-3
8.433673708E0,-5.575851537E-4,-2.025899477E-3,-5.449573975E-3,5.840635788E-3
8.443630708E0,-1.845827792E-3,-6.966264918E-4,-9.184970520E-3,9.394469233E-3
8.453587708E0,1.145700924E-3,-1.326464117E-3,-5.143357441E-3,5.433807452E-3
8.463544708E0,2.873550402E-3,-6.667058915E-4,-6.638388149E-4,3.023651870E-3
8.473500708E0,2.553968225E-4,-1.194811426E-3,3.173244186E-3,3.400335357E-3
8.483457708E0,1.459112973E-3,-4.851743579E-4,3.226888832E-3,3.574523235E-3
8.493414708E0,1.357882284E-4,4.905648530E-5,3.133144695E-3,3.136469458E-3
8.503371708E0,6.099345628E-4,-1.227639616E-3,-3.423106857E-3,3.687381150E-3
8.513328708E0,8.387000998E-4,-1.366656274E-3,-6.324620917E-3,6.524721985E-3
8.523285708E0,-9.559886530E-4,-3.117611632E-4,-5.012049805E-3,5.111922591E-3
8.533242708E0,5.534911761E-4,7.489761338E-4,-4.787012469E-3,4.876761847E-3
8.543198708E0,7.997930516E-4,2.209623344E-3,-3.823591396E-4,2.380819766E-3
8.553155708E0,1.254661009E-3,-1.170194708E-3,3.427824937E-3,3.833211930E-3
8.563112708E0,-6.887394702E-4,1.292732544E-3,1.993045676E-3,2.473408692E-3
8.573069708E0,-1.093007508E-3,-1.520318910E-4,-2.489853185E-3,2.723444141E-3
8.583026708E0,-8.251660038E-4,2.088679932E-3,-3.644595155E-3,4.280952772E-3
8.592983708E0,1.362354495E-3,4.257354885E-5,-4.426233005E-3,4.631345473E-3
8.602939708E0,-1.895325142E-3,1.147696748E-4,-4.717751406E-3,5.085529255E-3
8.612896708E0,-3.861117875E-4,-2.484852448E-4,-3.179509426E-3,3.212492399E-3
8.622853708E0,-7.095589535E-4,1.486185007E-3,6.629647687E-4,1.775314639E-3
8.632810708E0,-9.668202838E-4,9.281840175E-5,1.452462748E-4,9.820657805E-4
8.642767708E0,-7.801849861E-4,1.372799277E-3,1.789714675E-3,2.386701717E-3
8.652724708E0,-1.689654542E-3,4.041939974E-5,-2.991724527E-3,3.436128904E-3
8.662680708E0,-2.300632652E-3,-1.569218002E-3,-6.648445502E-3,7.208133138E-3
8.672637708E0,2.062424086E-3,-1.356697641E-3,-5.069190636E-3,5.638343312E-3
8.682594708E0,-1.228730311E-3,-1.088197343E-3,-4.963311367E-3,5.227658305E-3
8.692551708E0,2.771337517E-3,-2.017107792E-3,-2.020518528E-3,3.978885598E-3
8.702508708E0,3.190222196E-3,-6.115762517E-4,1.027801074E-3,3.407039510E-3
8.712465708E0,1.190188108E-3,6.544906646E-4,3.703745082E-3,3.944950367E-3
8.722422708E0,3.182888962E-3,-1.171479002E-3,2.625148743E-3,4.288886933E-3
8.732378708E0,1.353297150E-3,1.068239100E-3,-3.108371049E-3,3.554506791E-3
8.742335708E0,-5.523526343E-4,8.350964636E-4,-5.167493597E-3,5.263598542E-3
8.752292708E0,9.440775611E-4,-2.999790013E-6,-5.815707147E-3,5.891836816E-3
8.762249708E0,-1.776651712E-3,5.115587264E-4,-4.692253657E-3,5.043354837E-3
8.772206708E0,-1.736970618E-3,-5.010236055E-5,-1.439202577E-3,2.256298126E-3
8.782163708E0,2.581790090E-3,9.097708389E-4,3.256269265E-3,4.254011351E-3
8.792120708E0,-1.993520651E-3,5.688862875E-4,1.467157155E-3,2.539745324E-3
8.802076708E0,1.577799791E-3,9.168935940E-4,3.249929287E-4,1.853582058E-3
8.812033708E0,-4.925415851E-4,-1.094059087E-3,-5.577636883E-3,5.705225297E-3
8.821990708E0,-1.480672508E-4,-3.556990996E-4,-6.362638436E-3,6.374293187E-3
8.831947708E0,2.012288896E-3,1.558940858E-4,-7.994623855E-3,8.245460578E-3
8.841904708E0,1.162597095E-3,2.727070823E-4,-2.737477189E-3,2.986600495E-3
8.851861708E0,-9.652685840E-4,-9.395638481E-4,7.193055935E-4,1.527063915E-3
8.861817708E0,-1.460241736E-3,6.778500974E-4,1.956228167E-3,2.533498633E-3
8.871774708E0,-3.126856172E-4,-1.138691790E-3,1.175921876E-3,1.666488388E-3
8.881731708E0,-1.332754502E-3,-2.037282102E-3,-3.324635327E-3,4.120673850E-3
8.891688708E0,-1.003587851E-3,1.959856600E-3,-2.205575118E-3,3.116534625E-3
8.901645708E0,4.034625599E-4,-5.646124482E-4,-4.704353400E-3,4.755261314E-3
8.911602708E0,3.251446877E-3,1.482293010E-3,-5.861763377E-3,6.865083338E-3
8.921559708E0,2.970696660E-4,1.776264980E-4,-3.013094887E-3,3.032909883E-3
8.931515708E0,-1.304821693E-3,2.086579800E-3,5.462197587E-4,2.520859166E-3
8.941472708E0,-6.276830100E-4,-2.392046154E-4,2.327206545E-3,2.422208726E-3
8.951429708E0,3.535903059E-3,7.986295968E-4,5.791075528E-4,3.670937923E-3
8.961386708E0,2.850453602E-4,-8.260468021E-4,-1.095433719E-3,1.401277706E-3
8.971343708E0,-3.360037226E-4,9.116651490E-4,-3.697874723E-3,3.823389767E-3
8.981300708E0,1.737430808E-3,-1.899496652E-3,-7.383309305E-3,7.819207737E-3
8.991256708E0,4.660377745E-4,2.113620751E-3,-3.920400981E-3,4.478183531E-3
9.001213708E0,-3.757898230E-4,2.179834992E-4,-1.359940041E-3,1.427645513E-3
9.011170708E0,-8.815240581E-4,1.495396718E-4,-9.783091955E-4,1.325343601E-3
9.021127708E0,1.081298105E-3,1.381864771E-3,4.690866917E-4,1.816259388E-3
9.031084708E0,-5.624049809E-4,4.079472274E-4,-1.455579652E-3,1.612895665E-3
9.041041708E0,-1.900186762E-3,8.802907541E-4,-3.479832085E-3,4.061385586E-3
9.050998708E0,2.582445741E-3,-5.522230640E-4,-7.293478586E-3,7.756855432E-3
9.060954708E0,-1.049077371E-3,-2.964632586E-4,-4.937826190E-3,5.056736228E-3
9.070911708E0,-6.101883482E-4,3.253845498E-4,-1.709542237E-3,1.844109429E-3
9.080868708E0,-2.841865644E-4,-1.136614010E-3,-1.356243622E-3,1.792219342E-3
9.090825708E0,1.744875917E-3,3.369454294E-3,1.255390234E-4,3.796521336E-3
9.100782708E0,1.291216468E-3,-1.267734915E-3,-5.551651120E-4,1.892775761E-3
9.110739708E0,-1.791126095E-3,-5.412241444E-4,-1.589270309E-3,2.454961583E-3
9.120696708E0,5.095435772E-4,-5.375565961E-4,-3.844701452E-3,3.915396660E-3
9.130652708E0,2.336400794E-4,-7.442180067E-4,-4.857501481E-3,4.919732591E-3
9.140609708E0,1.783483895E-4,-4.887329414E-4,-5.720431451E-3,5.744040740E-3
9.150566708E0,2.756554633E-3,7.847901434E-4,-3.733979538E-3,4.707132058E-3
9.160523708E0,-6.551017286E-4,6.467578933E-4,-1.268093474E-4,9.292656552E-4
9.170480708E0,-2.743552439E-3,1.297900453E-3,2.620507497E-3,4.009823577E-3
9.180437708E0,-2.902400447E-4,-7.843002677E-4,1.422862988E-3,1.650425786E-3
9.190393708E0,-4.154086346E-4,-1.851428300E-3,-1.915409230E-3,2.696134938E-3
9.200350708E0,-8.091945201E-4,-1.348266378E-4,-6.215132307E-3,6.269038490E-3
9.210307708E0,6.970892427E-4,1.004473306E-3,-9.831438772E-3,9.907173581E-3
9.220264708E0,-1.909549581E-3,1.653537154E-3,-4.272089805E-3,4.962994663E-3
9.230221708E0,-1.456279540E-3,2.237568609E-3,-7.508583367E-4,2.773310589E-3
9.240178708E0,-1.651402330E-3,1.707794145E-3,3.019280732E-3,3.841841568E-3
9.250135708E0,-5.059768446E-4,3.626318648E-4,3.201281652E-5,6.233291723E-4
9.260091708E0,3.073237604E-3,-9.582908824E-4,-3.663508222E-3,4.876925596E-3
9.270048708E0,9.083540062E-4,-6.476417184E-6,-8.051864803E-3,8.102942413E-3
9.280005708E0,-6.533474661E-4,5.330462009E-4,-7.778874598E-3,7.824441909E-3
9.289962708E0,-8.051476907E-4,-4.182355478E-4,-5.921053234E-3,5.990163202E-3
9.299919708E0,2.552049235E-3,-9.717512876E-5,-1.106472686E-3,2.783285847E-3
9.309876708E0,-1.686105039E-3,-6.383294240E-4,1.713121310E-4,1.811011458E-3
9.319833708E0,-4.182641860E-4,1.349605620E-3,3.355851863E-3,3.641170414E-3
9.329789708E0,6.629793206E-4,-4.482548684E-5,6.191870198E-4,9.082639866E-4
9.339746708E0,-1.558591379E-3,-3.888178617E-4,-2.440748503E-3,2.921923968E-3
9.349702208E0,1.235863660E-3,1.873005182E-3,-8.612091653E-3,8.899642130E-3
9.359659208E0,1.494517899E-3,2.566073090E-5,-8.461259305E-3,8.592272764E-3
9.369616208E0,-1.454134122E-3,-1.111775637E-3,-4.297672771E-3,4.671246339E-3
9.379573208E0,2.880633343E-3,4.739752039E-4,-4.626950249E-5,2.919733176E-3
9.389529208E0,2.360251499E-3,-1.039309427E-4,2.019011881E-3,3.107731931E-3
9.399486208E0,-5.079060793E-4,5.343910307E-4,2.998742275E-4,7.959063458E-4
9.409443208E0,-1.145573333E-4,5.130860955E-4,-2.418414224E-3,2.474895570E-3
9.419400208E0,2.096428070E-3,-1.249399967E-3,-3.470326774E-3,4.242543912E-3
9.429357208E0,1.708671800E-3,-2.056337893E-3,-5.511905998E-3,6.126107457E-3
9.439314208E0,-4.126825370E-4,-7.774569094E-4,-6.642401218E-3,6.700465661E-3
9.449271208E0,2.501782728E-4,-5.841115490E-4,-4.053276032E-3,4.102782234E-3
9.459227208E0,5.332638975E-4,-1.658521593E-3,3.602616489E-4,1.779003292E-3
9.469184208E0,3.255813383E-3,9.561693296E-4,2.364823129E-3,4.136057181E-3
9.479141208E0,1.299822121E-3,5.939314142E-4,6.348057650E-4,1.563736049E-3
9.489098208E0,2.607700415E-3,2.397956327E-3,-3.074711189E-3,4.690857586E-3
9.499055208E0,-1.395008294E-4,1.300478354E-3,-6.448273547E-3,6.579584802E-3
9.509012208E0,1.021637348E-3,6.370618939E-5,-5.662108306E-3,5.753891884E-3
9.518968208E0,5.339584313E-4,4.398813471E-4,-3.956189379E-3,4.016222306E-3
9.528925208E0,-1.995778177E-3,-2.589318901E-4,-4.498716444E-4,2.062173793E-3
9.538882208E0,-1.128830248E-3,3.818739206E-4,2.874153666E-3,3.111405586E-3
9.548839208E0,-7.780918386E-4,4.026470706E-4,3.569340333E-4,9.460198079E-4
9.558796208E0,-3.360729432E-3,-2.172832377E-3,-3.376784036E-3,5.236255654E-3
9.568753208E0,3.154960461E-3,4.788767546E-4,-3.288100939E-3,4.581998062E-3
9.578710208E0,2.585561015E-4,4.017818719E-5,-7.391401101E-3,7.396031083E-3
9.588666208E0,8.571695071E-5,-6.935223937E-4,-4.428900778E-3,4.483690758E-3
9.598623208E0,3.900576849E-5,1.145245507E-3,-1.865874510E-3,2.189656688E-3
9.608580208E0,3.115489380E-3,1.225139946E-3,-1.077046152E-3,3.516713008E-3
9.618537208E0,8.032194455E-4,2.118436620E-3,8.252868429E-4,2.411230715E-3
9.628494208E0,-1.260730438E-3,1.951018348E-4,1.637284644E-3,2.075622068E-3
9.638451208E0,-2.347187838E-4,2.671508119E-4,-3.142693546E-3,3.162749624E-3
9.648408208E0,-9.780070977E-4,-1.621829346E-3,-4.250036087E-3,4.652916832E-3
9.658364208E0,-1.079456881E-3,-1.858477481E-3,-7.996036671E-3,8.279841070E-3
9.668321208E0,8.465412538E-4,1.858229749E-3,-4.394111689E-3,4.845396519E-3
9.678278208E0,1.708030351E-3,-1.406850293E-3,-2.789274324E-3,3.560427879E-3
9.688235208E0,-1.586832572E-3,2.158856019E-3,6.424747407E-4,2.755262368E-3
9.698192208E0,1.661831746E-3,-9.573167190E-4,5.736835301E-4,2.001812390E-3
9.708149208E0,8.005654090E-4,-1.946946606E-3,-1.952857478E-3,2.871438383E-3
9.718106208E0,5.102688447E-4,-2.712070011E-3,-3.156090388E-3,4.192446133E-3
9.728062208E0,1.987257972E-3,-6.473213434E-4,-5.292478018E-3,5.690214648E-3
9.738019208E0,2.443864476E-3,-2.970744856E-3,-5.790824536E-3,6.952082234E-3
9.747976208E0,-1.089351252E-3,5.358401686E-4,-6.628388539E-3,6.738645670E-3
9.757933208E0,-9.305470157E-4,-4.332792014E-4,-1.346238190E-3,1.692928197E-3
9.767890208E0,2.689406974E-4,1.335592940E-3,6.705736741E-4,1.518488279E-3
9.777847208E0,-1.518062549E-3,1.323125325E-3,3.052651417E-3,3.657028192E-3
9.787803208E0,-2.080537379E-4,-6.936863065E-4,-3.004175611E-3,3.090235938E-3
9.797760208E0,-2.275184263E-3,-2.657731995E-3,-1.487339148E-3,3.801602363E-3
9.807717208E0,-4.945948021E-4,8.802767843E-4,-7.991311140E-3,8.054847297E-3
9.817674208E0,2.073617419E-3,4.054000601E-4,-7.405281998E-3,7.700807742E-3
9.827631208E0,-1.589560532E-3,-6.726477295E-4,-4.799112678E-3,5.100062759E-3
9.837588208E0,-6.475889822E-4,9.045191109E-4,-2.046619775E-3,2.329415981E-3
9.847545208E0,-8.502557175E-4,1.362849027E-3,1.478251070E-4,1.613116399E-3
9.857501208E0,-3.036505077E-3,2.613682300E-4,-1.904922770E-3,3.594079464E-3
9.867458208E0,2.136165276E-4,-1.638264395E-3,-2.618916333E-3,3.096492372E-3
9.877415208E0,9.172153077E-4,4.599653184E-4,-3.650475061E-3,3.791941479E-3
9.887372208E0,4.911095602E-4,1.093797386E-3,-2.520762151E-3,2.791383733E-3
9.897329208E0,4.077418707E-4,-6.228685379E-4,-6.773297675E-3,6.814086882E-3
9.907286208E0,1.337026479E-4,1.537754200E-3,-3.014245769E-3,3.386479283E-3
9.917242208E0,1.751521137E-3,-1.942186616E-3,-8.378773928E-4,2.746261763E-3
9.927199208E0,7.909188862E-4,3.244851716E-3,3.112764098E-4,3.354326810E-3
9.937156208E0,3.009285312E-3,1.085279509E-3,6.821230054E-4,3.270920589E-3
9.947113208E0,1.401002286E-3,-2.530760132E-3,-1.744815614E-3,3.378155677E-3
9.957070208E0,-2.417250071E-3,9.168339893E-4,-5.285439547E-3,5.883838345E-3
9.967027208E0,1.932224492E-3,-8.722776547E-4,-5.467067007E-3,5.863717375E-3
9.976984208E0,1.887411810E-3,1.188253984E-3,-6.627172232E-3,6.992401781E-3
9.986940208E0,-1.863384154E-3,9.006327018E-4,-4.075863864E-3,4.571214938E-3
9.996897208E0,2.675874857E-4,-5.968799815E-4,-1.490218798E-3,1.627458399E-3
1.000685421E1,1.073460095E-3,-5.334969610E-4,3.056330141E-3,3.283000078E-3
1.001681121E1,3.119736211E-4,1.461018808E-3,7.687909529E-4,1.680161608E-3
1.002676821E1,6.280908128E-4,-3.629801795E-4,-2.373473020E-3,2.481859556E-3
1.003672521E1,-3.968384117E-4,-5.106702447E-4,-3.726924071E-3,3.782621823E-3
1.004668221E1,-2.487667371E-4,1.150343567E-3,-7.238834631E-3,7.333887238E-3
1.005663821E1,-3.051439067E-3,2.652779222E-4,-6.037016865E-3,6.769580887E-3
1.006659521E1,9.947017534E-4,-1.431421377E-3,-5.519706756E-4,1.828406509E-3
1.007655221E1,-6.994674914E-4,4.160869867E-4,1.333131455E-3,1.561929137E-3
1.008650921E1,-6.022620946E-4,5.676206201E-4,1.260426827E-3,1.507842361E-3
1.009646621E1,3.906338243E-4,-1.128644682E-3,-2.772822045E-4,1.226099109E-3
1.010642321E1,5.504235160E-4,-2.109194174E-4,-3.455765080E-3,3.505676159E-3
1.011638021E1,-6.200862117E-5,8.501345292E-4,-5.741822533E-3,5.804748039E-3
1.012633621E1,-9.621570352E-4,-1.536323689E-3,-5.599343218E-3,5.885463542E-3
1.013629321E1,2.202868927E-4,-1.086714678E-3,-2.369378228E-3,2.615994704E-3
1.014625021E1,3.574397415E-4,-2.875002101E-4,-2.257996239E-4,5.112778205E-4
1.015620721E1,-5.726839881E-4,-9.027663618E-4,-1.162450295E-3,1.579317809E-3
1.016616421E1,1.215362456E-3,2.309805714E-3,-4.902686924E-4,2.655686677E-3
1.017612121E1,2.684879582E-4,-9.133527055E-4,-2.549041761E-3,2.721013203E-3
1.018607721E1,2.090090187E-3,-2.130151726E-3,-5.571729504E-3,6.320616507E-3
1.019603421E1,-1.247441629E-3,-4.801210016E-4,-5.772431847E-3,5.925166345E-3
1.020599121E1,-7.212010678E-4,-7.783947513E-4,-5.119957495E-3,5.228766023E-3
1.021594821E1,3.604157828E-4,1.876467839E-3,-4.279680550E-3,4.686864271E-3
1.022590521E1,3.891779343E-4,-5.808304995E-4,8.727372624E-4,1.118254829E-3
1.023586221E1,1.685396885E-3,-1.907909289E-3,1.559233759E-3,2.985278953E-3
1.024581921E1,-2.736244351E-4,-2.591460943E-4,-1.061316580E-3,1.126241498E-3
1.025577521E1,-1.876148512E-3,-1.274233684E-3,-1.918817870E-3,2.970768712E-3
1.026573221E1,1.418714412E-3,8.589578792E-4,-6.920767017E-3,7.116710990E-3
1.027568921E1,3.214947414E-3,-5.740113556E-4,-6.040595938E-3,6.866889776E-3
1.028564621E1,-2.206716221E-3,-6.073005497E-4,-6.985219195E-3,7.350625664E-3
1.029560321E1,-2.211262938E-3,2.242248505E-3,-1.736326143E-3,3.596135511E-3
1.030556021E1,1.503314124E-3,4.994757473E-4,2.954299562E-3,3.352210506E-3
1.031551721E1,-1.893311972E-3,-4.737330601E-4,1.962854061E-3,2.768004570E-3
1.032547321E1,7.136565400E-4,1.599804498E-3,-2.486755606E-3,3.041814184E-3
1.033543021E1,-2.068177331E-3,6.394935772E-4,-3.854473121E-3,4.420777370E-3
1.034538788E1,-1.237271237E-3,1.070393249E-3,-5.783933215E-3,6.010862272E-3
1.035534488E1,-2.829373349E-3,3.126973286E-3,-4.792605061E-3,6.383758983E-3
1.036530188E1,-1.658914145E-3,9.285332635E-4,-4.694334697E-3,5.064676536E-3
1.037525887E1,-1.653575106E-3,3.385758027E-4,4.671206698E-4,1.751326904E-3
1.038521487E1,9.584533400E-4,-1.679034904E-3,2.014150843E-3,2.791880125E-3
1.039517187E1,1.459547784E-4,-2.250820398E-3,2.566608600E-3,3.416866250E-3