"Time (s)","Gyroscope x (rad/s)","Gyroscope y (rad/s)","Gyroscope z (rad/s)","Absolute (rad/s)"
3.657333335E-3,1.920633717E-3,-1.767558977E-3,-1.400412619E-1,1.400655851E-1
1.361333333E-2,1.049129060E-3,-3.645405173E-3,-1.459178030E-1,1.459671021E-1
2.356933333E-2,3.636922687E-3,-4.596686922E-3,-1.498925686E-1,1.500071293E-1
3.352533334E-2,4.440413788E-3,-4.839394242E-4,-1.512624323E-1,1.513283678E-1
4.348133333E-2,1.051148865E-5,1.320885494E-3,-1.495777220E-1,1.495835544E-1
5.343733334E-2,-5.683139898E-5,-4.766508937E-5,-1.483071595E-1,1.483071781E-1
6.339333333E-2,4.981713137E-4,-4.846900702E-4,-1.432098746E-1,1.432115613E-1
7.334833334E-2,-2.910769545E-4,-1.191229559E-3,-1.401683390E-1,1.401737030E-1
8.330433333E-2,-1.975999912E-4,-3.387538716E-3,-1.418882012E-1,1.419287713E-1
9.326033333E-2,2.407979220E-3,-1.396520995E-3,-1.464312524E-1,1.464577082E-1
1.032163333E-1,2.101982012E-3,-5.259336904E-4,-1.508739293E-1,1.508894876E-1
1.131723333E-1,3.268206026E-3,-3.029941581E-3,-1.528145671E-1,1.528795396E-1
1.231283333E-1,2.757677808E-3,2.212449908E-4,-1.471308470E-1,1.471568546E-1
1.330843333E-1,1.904818346E-3,-2.220232040E-3,-1.451932937E-1,1.452227609E-1
1.430403333E-1,2.728973050E-5,-1.289989799E-3,-1.392997205E-1,1.393056961E-1
1.529963333E-1,1.146260067E-3,-1.878606156E-3,-1.382858008E-1,1.383033108E-1
1.629523333E-1,1.544402679E-3,-2.752122469E-3,-1.441282481E-1,1.441627943E-1
1.729083333E-1,1.683628769E-3,1.336548477E-3,-1.478962451E-1,1.479118666E-1
1.828643333E-1,2.547558397E-3,-3.118387423E-3,-1.505623460E-1,1.506161825E-1
1.928193333E-1,1.308291568E-3,-4.200815223E-3,-1.490678042E-1,1.491327219E-1
2.027753333E-1,1.211618772E-3,-2.260169946E-3,-1.461662948E-1,1.461887893E-1
2.127313333E-1,1.245964319E-3,-2.310811542E-3,-1.408582628E-1,1.408827259E-1
2.226873333E-1,2.094980096E-3,-1.589095220E-3,-1.420620084E-1,1.420863413E-1
2.326433333E-1,8.603531169E-4,-2.788724378E-3,-1.431488991E-1,1.431786454E-1
2.425993333E-1,-3.793113865E-5,-2.930404618E-3,-1.453039348E-1,1.453334861E-1
2.525553333E-1,2.208653837E-3,-4.662107676E-3,-1.482748538E-1,1.483645702E-1
2.625113333E-1,3.036896931E-3,-9.345449507E-5,-1.516259015E-1,1.516563400E-1
2.724673333E-1,1.444446389E-3,-1.649298705E-3,-1.479199976E-1,1.479362440E-1
2.824233333E-1,-8.333552396E-4,1.778965816E-4,-1.470683217E-1,1.470707904E-1
2.923793333E-1,8.310991107E-4,-7.066009566E-4,-1.437268555E-1,1.437309953E-1
3.023353333E-1,-9.132714476E-4,-1.815540716E-3,-1.403776556E-1,1.403923661E-1
3.122903333E-1,-7.563317195E-5,-5.853204057E-4,-1.432476342E-1,1.432488500E-1
3.222463333E-1,2.736931201E-3,-1.399980858E-3,-1.482503861E-1,1.482822569E-1
3.322023333E-1,-3.649678547E-5,-1.681451686E-3,-1.478021294E-1,1.478116980E-1
3.421583333E-1,-8.338473272E-4,-2.233258449E-3,-1.471456587E-1,1.471649674E-1
3.521143333E-1,1.133281970E-3,-2.962150611E-3,-1.472205371E-1,1.472546950E-1
3.620703333E-1,1.200926257E-3,-2.656419761E-3,-1.436266005E-1,1.436561839E-1
3.720263333E-1,7.604886196E-4,-2.262867987E-3,-1.458862573E-1,1.459057880E-1
3.819823333E-1,-2.805410186E-4,-3.129460849E-3,-1.465453953E-1,1.465790746E-1
3.919383333E-1,2.429182641E-4,-1.745711081E-3,-1.499671787E-1,1.499775357E-1
4.018943333E-1,-5.935806548E-4,-2.352112904E-3,-1.480092108E-1,1.480290892E-1
4.118503333E-1,-1.708884723E-3,-3.413953818E-3,-1.453528106E-1,1.454029399E-1
4.218063333E-1,1.343364129E-3,-3.330330364E-3,-1.404256970E-1,1.404716060E-1
4.317613333E-1,3.611517139E-3,-3.924446180E-3,-1.422453970E-1,1.423453452E-1
4.417173333E-1,6.974863936E-4,-3.258655779E-3,-1.457820684E-1,1.458201522E-1
4.516733333E-1,-2.678073943E-4,-1.864708960E-3,-1.457162350E-1,1.457284118E-1
4.616293333E-1,3.041702788E-3,4.205498844E-4,-1.480044276E-1,1.480362773E-1
4.715853333E-1,1.258703880E-3,-6.326166913E-4,-1.506454349E-1,1.506520215E-1
4.815413333E-1,2.720512915E-3,-2.979394980E-3,-1.498113424E-1,1.498656608E-1
4.914977917E-1,2.047542948E-3,-2.641401254E-3,-1.459370553E-1,1.459753183E-1
5.014537917E-1,1.540353987E-4,-1.045634970E-3,-1.428150386E-1,1.428189494E-1
5.114097917E-1,2.303639194E-4,-7.866658270E-4,-1.399974227E-1,1.399998224E-1
5.213657917E-1,1.321194693E-3,-2.422112972E-3,-1.415311396E-1,1.415580293E-1
5.313217917E-1,7.407811936E-4,1.487555914E-3,-1.500906348E-1,1.500998342E-1
5.412777917E-1,3.092885017E-3,-1.520218328E-3,-1.554433256E-1,1.554815246E-1
5.512327917E-1,1.842500293E-3,-1.905105077E-3,-1.535349786E-1,1.535578519E-1
5.611887917E-1,7.231736672E-4,-8.196001872E-4,-1.481194347E-1,1.481234676E-1
5.711447917E-1,3.457457526E-3,-3.234373406E-3,-1.410012692E-1,1.410807326E-1
5.811007917E-1,1.736522885E-3,-1.506780274E-3,-1.352887899E-1,1.353083241E-1
5.910567917E-1,2.141519217E-3,-2.804785967E-3,-1.372931302E-1,1.373384743E-1
6.010127917E-1,1.670938684E-3,-2.412265167E-4,-1.390393674E-1,1.390496168E-1
6.109687917E-1,4.956061952E-3,-1.736212522E-3,-1.494049132E-1,1.494971741E-1
6.209247917E-1,2.302754670E-3,-1.346591860E-3,-1.541711837E-1,1.541942602E-1
6.308807917E-1,5.375741050E-3,-7.199971005E-4,-1.580134481E-1,1.581065045E-1
6.408367917E-1,1.996215433E-4,2.893405035E-4,-1.475323141E-1,1.475327328E-1
6.507927917E-1,1.785955159E-3,-2.407323569E-3,-1.428188384E-1,1.428502903E-1
6.607487917E-1,1.331975218E-4,-2.799874172E-3,-1.361121982E-1,1.361410575E-1
6.707037917E-1,-8.675477002E-4,-2.155453898E-3,-1.354676038E-1,1.354875282E-1
6.806597917E-1,-1.060626935E-3,-2.725103870E-3,-1.441721469E-1,1.442017998E-1
6.906157917E-1,2.587229013E-3,-6.347494200E-4,-1.509070694E-1,1.509305810E-1
7.005717917E-1,2.843691502E-3,-2.051550895E-3,-1.589953601E-1,1.590340215E-1
7.105277917E-1,1.088828780E-3,5.870331079E-4,-1.609108001E-1,1.609155547E-1
7.204837917E-1,3.906453028E-3,-2.113678493E-3,-1.540861726E-1,1.541501755E-1
7.304397917E-1,3.282479011E-3,-2.808019519E-3,-1.402725875E-1,1.403390839E-1
7.403957917E-1,7.000117912E-4,-2.875130624E-3,-1.343113631E-1,1.343439565E-1
7.503517917E-1,-1.910071587E-4,-5.010562018E-4,-1.354670078E-1,1.354680690E-1
7.603077917E-1,2.176542999E-3,-4.595108330E-4,-1.420277059E-1,1.420451257E-1
7.702637917E-1,3.425666830E-3,1.526094973E-3,-1.499547064E-1,1.500015938E-1
7.802197917E-1,4.783346318E-3,-5.218749866E-4,-1.577388644E-1,1.578122369E-1
7.901747917E-1,4.234370776E-3,-3.118662164E-3,-1.563069969E-1,1.563954387E-1
8.001307917E-1,1.216743258E-3,-3.160473891E-3,-1.495540291E-1,1.495923684E-1
8.100867917E-1,1.110450132E-3,-6.230473518E-4,-1.395724416E-1,1.395782495E-1
8.200427917E-1,-7.407130906E-4,-1.640907489E-3,-1.312133074E-1,1.312256578E-1
8.299987917E-1,1.021253411E-4,-3.173943609E-3,-1.318114549E-1,1.318497023E-1
8.399547917E-1,-2.485401928E-3,-1.989901997E-3,-1.418915242E-1,1.419272404E-1
8.499107917E-1,2.476155758E-3,-1.540846191E-3,-1.523232311E-1,1.523511480E-1
8.598667917E-1,3.570448607E-3,-9.618746117E-4,-1.570966691E-1,1.571401818E-1
8.698227917E-1,1.666496973E-3,1.996904612E-4,-1.574581712E-1,1.574671165E-1
8.797787917E-1,6.963074557E-4,-2.403549850E-3,-1.485142112E-1,1.485352915E-1
8.897347917E-1,-1.186336158E-4,-8.960328996E-4,-1.399203092E-1,1.399232285E-1
8.996907917E-1,-2.144234022E-3,-1.233188435E-3,-1.376648694E-1,1.376870901E-1
9.096457917E-1,-1.175604528E-3,4.456406459E-4,-1.411461383E-1,1.411517375E-1
9.196017917E-1,5.240248283E-4,2.059992403E-5,-1.446724385E-1,1.446733890E-1
9.295577917E-1,2.764078788E-3,1.655239612E-5,-1.541147828E-1,1.541395689E-1
9.395137917E-1,4.526558798E-3,-1.995998435E-3,-1.577590555E-1,1.578366033E-1
9.494697917E-1,2.023754641E-3,-1.646857709E-3,-1.536262035E-1,1.536483587E-1
9.594257917E-1,2.377156168E-3,-1.382672228E-3,-1.457778662E-1,1.458038029E-1
9.693817917E-1,9.022623999E-4,-2.126043662E-3,-1.382219046E-1,1.382411989E-1
9.793377917E-1,1.395330764E-4,-2.820705995E-4,-1.353435516E-1,1.353439175E-1
9.892937917E-1,4.196221125E-4,-2.537440509E-3,-1.415575147E-1,1.415808767E-1
9.992497917E-1,3.250562120E-3,-2.276184037E-3,-1.521520913E-1,1.522038306E-1
1.009205792E0,4.072151147E-3,-2.478822134E-3,-1.585332900E-1,1.586049527E-1
1.019160792E0,4.570694640E-3,-1.626078039E-3,-1.580360681E-1,1.581105126E-1
1.029116792E0,1.438856008E-3,-2.947110683E-3,-1.490730047E-1,1.491090759E-1
1.039072792E0,1.087851357E-3,-3.645124845E-3,-1.396661848E-1,1.397179785E-1
1.049028792E0,-2.535742242E-4,-3.160180524E-3,-1.311337799E-1,1.311720979E-1
1.058984792E0,-3.017773852E-4,-3.081350587E-3,-1.303811669E-1,1.304179224E-1
1.068940792E0,2.092131879E-3,-1.564682461E-3,-1.422818750E-1,1.423058579E-1
1.078896792E0,2.720904071E-3,-2.584939823E-3,-1.570286006E-1,1.570734434E-1
1.088852792E0,5.027808249E-3,-1.804255880E-3,-1.616473794E-1,1.617356159E-1
1.098808792E0,4.431793466E-3,-2.626906149E-3,-1.561463475E-1,1.562313134E-1
1.108764792E0,2.720212098E-3,-1.590771601E-3,-1.466667354E-1,1.467005841E-1
1.118720792E0,1.577715972E-3,-2.177998424E-3,-1.392003000E-1,1.392262776E-1
1.128676792E0,2.183696488E-3,-3.238845617E-3,-1.344731152E-1,1.345298382E-1
1.138631792E0,-2.548474353E-3,-3.884639591E-4,-1.375181824E-1,1.375423430E-1
1.148587792E0,3.632838489E-4,-4.223294556E-3,-1.469703317E-1,1.470314476E-1
1.158543792E0,2.841621637E-3,-2.151356079E-3,-1.546127945E-1,1.546538696E-1
1.168499792E0,-3.890010994E-4,-1.471119002E-3,-1.555386782E-1,1.555461215E-1
1.178455792E0,2.144464059E-3,-2.195765264E-3,-1.527735144E-1,1.528043416E-1
1.188411792E0,7.066694670E-4,-3.572981805E-4,-1.485780776E-1,1.485801877E-1
1.198367792E0,7.066694670E-4,-2.286676317E-4,-1.392229199E-1,1.392249012E-1
1.208323792E0,-7.364910562E-4,-1.427196898E-3,-1.365842223E-1,1.365936642E-1
1.218279792E0,1.673857914E-4,-2.237875015E-5,-1.408596635E-1,1.408597647E-1
1.228235792E0,2.810585429E-4,-1.883152872E-3,-1.433778256E-1,1.433904674E-1
1.238191792E0,1.686941250E-3,-2.940446138E-4,-1.518767774E-1,1.518864304E-1
1.248147792E0,1.954856329E-3,6.137425080E-4,-1.556678563E-1,1.556813400E-1
1.258102792E0,3.141294466E-3,-2.719203942E-3,-1.513524652E-1,1.514094796E-1
1.268058792E0,-8.007023716E-4,-1.207438298E-3,-1.424858868E-1,1.424932524E-1
1.278014792E0,2.560398425E-4,-1.882549375E-3,-1.335653663E-1,1.335788779E-1
1.287970792E0,-2.348273993E-3,1.865114085E-3,-1.319489181E-1,1.319829914E-1
1.297926792E0,-2.610329073E-3,-4.918755963E-3,-1.379024088E-1,1.380147903E-1
1.307882792E0,2.644632943E-3,-3.618572839E-3,-1.511460543E-1,1.512124925E-1
1.317838792E0,-1.239054720E-3,-1.759420149E-3,-1.588532478E-1,1.588678229E-1
1.327794792E0,3.855646821E-3,-1.731500030E-3,-1.563724130E-1,1.564295230E-1
1.337750792E0,2.099558478E-3,6.224680692E-4,-1.519262642E-1,1.519420460E-1
1.347706792E0,5.293847062E-4,-2.375693060E-3,-1.420447528E-1,1.420656045E-1
1.357662792E0,2.115297131E-3,-1.258763485E-3,-1.335503310E-1,1.335730133E-1
1.367617792E0,-1.841021236E-3,-1.978174783E-3,-1.338222027E-1,1.338494844E-1
1.377573792E0,-1.051660161E-3,-2.598425373E-3,-1.408007443E-1,1.408286455E-1
1.387529792E0,1.627516816E-3,-2.548072487E-3,-1.508027315E-1,1.508330379E-1
1.397485792E0,2.383854706E-3,-1.684941351E-3,-1.598939598E-1,1.599206058E-1
1.407441792E0,3.234782256E-3,-1.260960475E-3,-1.547006965E-1,1.547396501E-1
1.417397792E0,1.319436589E-3,-2.031412907E-3,-1.487466693E-1,1.487663913E-1
1.427353792E0,-1.281338045E-3,-2.132648602E-3,-1.379893571E-1,1.380117846E-1
1.437309792E0,-1.834742958E-3,-2.002686262E-3,-1.348787844E-1,1.349061285E-1
1.447265792E0,-1.196559751E-3,-7.026987150E-4,-1.398840398E-1,1.398909222E-1
1.457221792E0,3.336926457E-4,-6.347885355E-4,-1.515169889E-1,1.515186861E-1
1.467177792E0,-3.666642588E-4,1.640027389E-3,-1.566151232E-1,1.566241390E-1
1.477133792E0,7.515971083E-4,-7.522897795E-4,-1.543495804E-1,1.543532436E-1
1.487088792E0,1.552294940E-3,-2.801369876E-3,-1.403232366E-1,1.403597806E-1
1.497045042E0,2.531539183E-3,-1.435168087E-3,-1.336235255E-1,1.336552093E-1
1.507001042E0,-3.577141091E-3,-1.122131944E-4,-1.311274022E-1,1.311762331E-1
1.516957042E0,1.519882819E-3,-1.633676700E-3,-1.384644061E-1,1.384823841E-1
1.526913042E0,2.993220929E-3,-2.074495889E-3,-1.506526768E-1,1.506966885E-1
1.536869042E0,2.175364178E-3,-3.664136864E-3,-1.588078141E-1,1.588649739E-1
1.546825042E0,2.445471007E-3,-2.172281034E-3,-1.573877186E-1,1.574217046E-1
1.556781042E0,-4.560430534E-4,-1.486251131E-3,-1.454293281E-1,1.454376374E-1
1.566737042E0,-1.078512869E-3,-3.291551024E-3,-1.403620690E-1,1.404048002E-1
1.576693042E0,-1.152016106E-3,-1.051566564E-3,-1.354277581E-1,1.354367402E-1
1.586649042E0,1.803430263E-3,-3.122903407E-3,-1.412060708E-1,1.412521126E-1
1.596604042E0,1.799968304E-3,-2.212368883E-3,-1.494677365E-1,1.494949454E-1
1.606560042E0,3.461600980E-3,-7.138634101E-4,-1.538120061E-1,1.538526097E-1
1.616516042E0,6.775324000E-4,-1.760751940E-3,-1.538660675E-1,1.538776333E-1
1.626472042E0,1.532872207E-3,3.116587177E-4,-1.470833123E-1,1.470916299E-1
1.636428042E0,1.225277083E-3,-3.246590495E-3,-1.411511153E-1,1.411937640E-1
1.646384042E0,1.156188082E-3,-3.195983358E-3,-1.331459731E-1,1.331893435E-1
1.656340042E0,-1.715764869E-3,-2.162677236E-3,-1.358317733E-1,1.358598235E-1
1.666296042E0,1.056644367E-3,-8.462974802E-4,-1.454669237E-1,1.454732230E-1
1.676252042E0,2.235891996E-3,-1.633794047E-3,-1.555451304E-1,1.555697788E-1
1.686208042E0,2.317799721E-3,-2.105946653E-3,-1.568766981E-1,1.569079527E-1
1.696164042E0,9.191075223E-4,4.176646471E-4,-1.535919458E-1,1.535952636E-1
1.706119042E0,1.070120605E-3,7.175430655E-4,-1.450273842E-1,1.450331072E-1
1.716075042E0,-1.277455944E-3,-1.687823795E-3,-1.369100809E-1,1.369264434E-1
1.726031042E0,1.713446458E-3,-8.135577664E-4,-1.358171701E-1,1.358304144E-1
1.735987042E0,-5.483762361E-4,-5.398988724E-3,-1.410625279E-1,1.411668749E-1
1.745943042E0,1.788092195E-3,-1.567271538E-3,-1.491420716E-1,1.491610242E-1
1.755899042E0,3.878407413E-3,-2.057826146E-3,-1.555033028E-1,1.555652721E-1
1.765855042E0,4.786652513E-3,-1.443341374E-3,-1.539320946E-1,1.540132625E-1
1.775811042E0,3.443620401E-3,-5.839392543E-4,-1.463913620E-1,1.464330235E-1
1.785767042E0,-1.728440402E-4,-2.727936953E-5,-1.406602859E-1,1.406603948E-1
1.795723042E0,4.798966693E-4,-2.111735754E-3,-1.363358498E-1,1.363530479E-1
1.805679042E0,-1.576955663E-3,-1.417272724E-3,-1.361326575E-1,1.361491678E-1
1.815634042E0,2.359729260E-3,-1.308616251E-3,-1.456768960E-1,1.457018834E-1
1.825590042E0,2.596058650E-3,-1.530000009E-3,-1.526306123E-1,1.526603557E-1
1.835546042E0,-4.023944493E-4,7.304912433E-4,-1.552785933E-1,1.552808329E-1
1.845502042E0,3.781076521E-3,4.632743075E-4,-1.536361724E-1,1.536833909E-1
1.855458042E0,1.224974520E-3,-1.557798125E-3,-1.464022249E-1,1.464156370E-1
1.865414042E0,7.853769930E-4,2.608738840E-3,-1.356683522E-1,1.356957042E-1
1.875370042E0,-1.933710417E-3,-1.235534437E-3,-1.345714033E-1,1.345909669E-1
1.885326042E0,1.189625473E-3,-9.663142264E-4,-1.390327215E-1,1.390411688E-1
1.895282042E0,2.218327718E-4,-1.178301871E-3,-1.484901309E-1,1.484949716E-1
1.905238042E0,1.908680773E-3,-8.377339691E-4,-1.567020565E-1,1.567159194E-1
1.915194042E0,2.702569123E-3,-6.726179272E-4,-1.564796865E-1,1.565044682E-1
1.925149042E0,2.536940388E-3,-7.436592132E-4,-1.507682204E-1,1.507913969E-1
1.935105042E0,1.042374410E-3,-1.557255164E-3,-1.413928270E-1,1.414052443E-1
1.945061042E0,8.266198565E-4,-4.023371264E-3,-1.355942339E-1,1.356564303E-1
1.955017042E0,-1.338530099E-3,-1.756221987E-3,-1.355817169E-1,1.355996974E-1
1.964973042E0,-2.087861067E-4,-3.179081716E-3,-1.413857937E-1,1.414216844E-1
1.974929042E0,-1.462069806E-3,-3.766370937E-4,-1.513606608E-1,1.513681906E-1
1.984885042E0,2.336636651E-3,-4.788627848E-4,-1.565793306E-1,1.565974966E-1
1.994841042E0,2.413601847E-3,-2.426166087E-3,-1.574579030E-1,1.574950888E-1
2.004797042E0,1.101925969E-3,-9.179301560E-5,-1.472137570E-1,1.472179097E-1
2.014753042E0,3.367997706E-4,-1.336022280E-3,-1.379273087E-1,1.379341904E-1
2.024709042E0,1.489971066E-3,-2.661390230E-3,-1.328697950E-1,1.329047984E-1
2.034664042E0,9.639968048E-4,-2.230224200E-3,-1.362959594E-1,1.363176134E-1
2.044620042E0,7.526631816E-4,-4.071258008E-4,-1.474292576E-1,1.474317410E-1
2.054576042E0,1.634435845E-3,-1.965074800E-3,-1.546280533E-1,1.546491764E-1
2.064532042E0,1.978717977E-3,9.012054652E-4,-1.564984769E-1,1.565135801E-1
2.074488042E0,3.694592742E-3,5.531301722E-4,-1.511567086E-1,1.512028655E-1
2.084444042E0,2.295519691E-3,-1.511818729E-3,-1.442259997E-1,1.442521889E-1
2.094400042E0,1.672606333E-3,-9.312499315E-4,-1.386512071E-1,1.386644225E-1
2.104356042E0,-1.079732901E-3,-1.451821066E-3,-1.339656264E-1,1.339778439E-1
2.114312042E0,3.721946385E-3,-1.139964908E-3,-1.422006488E-1,1.422539171E-1
2.124268042E0,7.488126401E-3,-5.104960874E-4,-1.545339227E-1,1.547160816E-1
2.134224042E0,3.103232011E-3,6.016399711E-4,-1.615066081E-1,1.615375389E-1
2.144179042E0,4.024692811E-3,-1.406707801E-3,-1.610629857E-1,1.611194039E-1
2.154135042E0,7.492711302E-4,1.518242061E-3,-1.515174210E-1,1.515268799E-1
2.164091042E0,2.052908763E-3,5.617216229E-4,-1.394463778E-1,1.394626195E-1
2.174047042E0,2.944234875E-4,-1.190105453E-3,-1.321682185E-1,1.321739044E-1
2.184003042E0,8.764148224E-4,-4.268532619E-3,-1.359757483E-1,1.360455534E-1
2.193959042E0,8.846706478E-4,-1.212289557E-3,-1.452041268E-1,1.452118822E-1
2.203915042E0,2.776075853E-4,-7.567862049E-4,-1.600724459E-1,1.600744755E-1
2.213871042E0,4.982081242E-3,-4.912689328E-4,-1.621851325E-1,1.622623791E-1
2.223827042E0,4.174103495E-3,-8.574444801E-4,-1.553109735E-1,1.553694206E-1
2.233783042E0,-7.487497060E-4,-1.409251243E-3,-1.430806816E-1,1.430895805E-1
2.243739042E0,1.885887352E-3,5.146730691E-4,-1.342311054E-1,1.342453393E-1
2.253694042E0,-1.187666785E-3,-2.098420635E-3,-1.316598207E-1,1.316818982E-1
2.263650042E0,1.208654838E-3,-1.441030763E-3,-1.341196150E-1,1.341328019E-1
2.273606042E0,1.174832694E-3,-4.234421067E-3,-1.476577967E-1,1.477231718E-1
2.283562042E0,4.447801970E-3,-1.708501950E-4,-1.571478099E-1,1.572108338E-1
2.293518042E0,4.531159066E-3,-1.554042101E-4,-1.594906002E-1,1.595550285E-1
2.303474042E0,3.719859291E-3,-5.290545523E-4,-1.556263119E-1,1.556716615E-1
2.313430042E0,1.614896813E-3,-5.136085674E-4,-1.473294944E-1,1.473392398E-1
2.323386042E0,-4.890232813E-4,-2.868811600E-3,-1.356889158E-1,1.357201205E-1
2.333342042E0,-2.243050840E-4,2.281786874E-4,-1.324550509E-1,1.324554374E-1
2.343298042E0,4.940793733E-4,-1.531872898E-3,-1.364721507E-1,1.364816422E-1
2.353254042E0,1.336969784E-3,-9.642913938E-5,-1.483823508E-1,1.483884053E-1
2.363209042E0,3.604909172E-3,-1.838665456E-3,-1.566140801E-1,1.566663529E-1
2.373165042E0,1.055198722E-3,-3.122841008E-3,-1.565150023E-1,1.565497094E-1
2.383121042E0,3.529811744E-3,-1.178709790E-3,-1.506327093E-1,1.506786714E-1
2.393077042E0,2.144967904E-3,-2.053240314E-4,-1.415883452E-1,1.416047405E-1
2.403033042E0,2.526442520E-3,-1.236818731E-3,-1.355674714E-1,1.355966516E-1
2.412989042E0,3.695485066E-4,1.400355250E-4,-1.340244412E-1,1.340250239E-1
2.422945042E0,1.633525826E-4,-2.559967339E-3,-1.429651380E-1,1.429881491E-1
2.432901042E0,1.508248853E-3,-1.706425101E-3,-1.549680084E-1,1.549847422E-1
2.442857042E0,2.730551874E-3,-3.174997866E-3,-1.581086218E-1,1.581640693E-1
2.452813042E0,9.161402704E-4,-1.166708767E-3,-1.562044621E-1,1.562115056E-1
2.462769042E0,5.828718655E-3,-4.065571353E-3,-1.458339691E-1,1.460070183E-1
2.472724042E0,-2.944212174E-4,-2.250360325E-3,-1.348279268E-1,1.348470268E-1
2.482680042E0,-1.915555447E-3,-3.474287689E-3,-1.305096000E-1,1.305698883E-1
2.492635792E0,-1.356291585E-3,-2.667773515E-4,-1.372013241E-1,1.372082870E-1
2.502591792E0,9.301878745E-4,-4.392182454E-4,-1.456158608E-1,1.456194942E-1
2.512547792E0,3.440217115E-3,7.392307743E-4,-1.518050432E-1,1.518458189E-1
2.522503792E0,3.958744928E-3,-1.027673483E-3,-1.532835066E-1,1.533380617E-1
2.532459792E0,1.682807459E-3,2.085659653E-4,-1.485934108E-1,1.486030857E-1
2.542415792E0,9.069362422E-4,2.477270551E-3,-1.414650828E-1,1.414896782E-1
2.552371792E0,1.493630698E-3,-6.242468953E-4,-1.342852116E-1,1.342949689E-1
2.562327792E0,-1.234801253E-3,-2.534481697E-3,-1.364972442E-1,1.365263565E-1
2.572283792E0,3.314410569E-3,-2.954196185E-3,-1.434853822E-1,1.435540578E-1
2.582238792E0,2.197755501E-3,-1.962107606E-3,-1.475252956E-1,1.475547114E-1
2.592194792E0,-1.921652583E-4,9.633749723E-4,-1.521679759E-1,1.521711468E-1
2.602150792E0,2.087071072E-3,9.148269892E-4,-1.489468813E-1,1.489643119E-1
2.612106792E0,2.613577992E-3,-2.341420390E-3,-1.442708969E-1,1.443135639E-1
2.622062792E0,5.322717479E-4,1.970091835E-4,-1.376212984E-1,1.376224688E-1
2.632018792E0,2.505141310E-3,-2.068541944E-3,-1.386359632E-1,1.386740239E-1
2.641974792E0,2.207902726E-3,-4.244357347E-3,-1.450008154E-1,1.450797225E-1
2.651930792E0,2.225479577E-3,-1.679467037E-3,-1.506842673E-1,1.507100586E-1
2.661886792E0,3.460655920E-3,-1.111041754E-3,-1.551571637E-1,1.551997294E-1
2.671842792E0,9.636760224E-4,-1.795474440E-3,-1.521131694E-1,1.521268179E-1
2.681797792E0,1.893739565E-3,-1.743393019E-3,-1.502015442E-1,1.502235985E-1
2.691753792E0,6.817349349E-4,-3.041151911E-3,-1.446089149E-1,1.446424959E-1
2.701709792E0,1.008044928E-3,-2.001859248E-3,-1.409593225E-1,1.409771406E-1
2.711665792E0,1.173693570E-3,-5.267346278E-4,-1.391209364E-1,1.391268844E-1
2.721621792E0,1.079806942E-3,-1.761639491E-3,-1.413326263E-1,1.413477295E-1
2.731577792E0,1.324817771E-3,-1.562852412E-4,-1.473585665E-1,1.473646046E-1
2.741533792E0,1.974926563E-3,-1.704283059E-3,-1.470590234E-1,1.470821582E-1
2.751489792E0,9.847632609E-4,-1.306673512E-3,-1.438949257E-1,1.439042279E-1
2.761445792E0,2.413459588E-3,-1.349810511E-3,-1.428828090E-1,1.429095654E-1
2.771401792E0,2.504806034E-3,-9.255688637E-4,-1.415698677E-1,1.415950500E-1
2.781357792E0,2.226003911E-3,-3.295641392E-3,-1.454023719E-1,1.454567499E-1
2.791312792E0,8.994835662E-4,-5.651023239E-4,-1.465579122E-1,1.465617619E-1
2.801268792E0,2.903782995E-3,-1.784252934E-3,-1.495716125E-1,1.496104367E-1
2.811224792E0,2.653446048E-3,-8.939579129E-4,-1.527016163E-1,1.527272849E-1
2.821180792E0,3.911256324E-3,1.979246736E-4,-1.494155526E-1,1.494668674E-1
2.831136792E0,4.310464021E-3,6.263609976E-5,-1.425672323E-1,1.426323937E-1
2.841092792E0,1.419467968E-3,-2.092736773E-3,-1.370418519E-1,1.370651801E-1
2.851048792E0,-5.595269613E-4,-2.899940126E-3,-1.386189759E-1,1.386504353E-1
2.861004792E0,1.234869938E-3,-7.727975026E-4,-1.445810497E-1,1.445883884E-1
2.870960792E0,2.737691626E-3,-1.051364467E-3,-1.537798792E-1,1.538078398E-1
2.880916792E0,2.300551161E-3,-5.942843854E-4,-1.567676067E-1,1.567856123E-1
2.890871792E0,-2.672686242E-4,9.048096836E-4,-1.543137729E-1,1.543166570E-1
2.900827792E0,2.393824980E-5,-1.788138412E-3,-1.459255815E-1,1.459365387E-1
2.910783792E0,-1.174805220E-5,-2.839853987E-4,-1.403441280E-1,1.403444158E-1
2.920739792E0,-2.270924160E-4,-1.660643145E-3,-1.399247348E-1,1.399347731E-1
2.930695792E0,3.433566890E-4,-2.342546359E-4,-1.448470503E-1,1.448476467E-1
2.940651792E0,2.301851287E-3,-1.749631017E-3,-1.498953849E-1,1.499232675E-1
2.950607792E0,1.404298237E-4,-4.161866382E-4,-1.530315280E-1,1.530321584E-1
2.960563792E0,5.831648596E-4,-1.168337651E-3,-1.495059282E-1,1.495116305E-1
2.970519792E0,1.416734303E-3,-4.581548274E-5,-1.437385976E-1,1.437455867E-1
2.980475792E0,4.140188685E-4,-7.077222690E-4,-1.372109801E-1,1.372134298E-1
2.990431792E0,-3.005071776E-4,-2.691511065E-3,-1.386141926E-1,1.386406467E-1
3.000386792E0,3.858699929E-4,-1.814147457E-3,-1.402904987E-1,1.403027586E-1
3.010342792E0,1.058051828E-3,-2.273542807E-3,-1.492048949E-1,1.492259667E-1
3.020298792E0,-1.597519731E-4,-3.035282716E-3,-1.509269327E-1,1.509575353E-1
3.030254792E0,7.285647560E-3,-2.664837055E-3,-1.521189660E-1,1.523166499E-1
3.040210792E0,1.849100227E-3,-1.960591413E-3,-1.480864733E-1,1.481109945E-1
3.050166792E0,1.118328888E-3,-1.979233697E-3,-1.450595260E-1,1.450773383E-1
3.060122792E0,6.675635232E-4,-1.057809219E-3,-1.412638724E-1,1.412694101E-1
3.070078792E0,2.013524994E-3,-9.883008897E-4,-1.429925412E-1,1.430101320E-1
3.080034792E0,-2.544396557E-5,-1.308184117E-3,-1.439984143E-1,1.440043586E-1
3.089990792E0,-2.680579200E-4,-1.259714365E-3,-1.477502882E-1,1.477559014E-1
3.099945792E0,5.021870020E-4,-2.133616246E-3,-1.518813670E-1,1.518971828E-1
3.109901792E0,8.225652855E-4,-5.788626149E-4,-1.500123590E-1,1.500157310E-1
3.119857792E0,1.757218968E-3,-3.054474480E-3,-1.463878602E-1,1.464302675E-1
3.129813792E0,4.584963433E-3,-6.096921861E-4,-1.436107159E-1,1.436851813E-1
3.139769792E0,1.117352047E-3,-7.661720738E-4,-1.417692900E-1,1.417757634E-1
3.149725792E0,1.941067749E-3,-4.231742583E-3,-1.439834386E-1,1.440586894E-1
3.159681792E0,2.626419067E-3,-3.893114626E-5,-1.438473463E-1,1.438713266E-1
3.169637792E0,-1.537965960E-3,2.664443105E-3,-1.432116628E-1,1.432447030E-1
3.179593792E0,3.442051355E-3,-4.100268707E-4,-1.459893882E-1,1.460305356E-1
3.189549792E0,3.708899952E-3,-8.313385770E-4,-1.484733224E-1,1.485219665E-1
3.199505792E0,-4.058231134E-4,3.805402666E-4,-1.463093013E-1,1.463103590E-1
3.209460792E0,1.568378182E-3,-5.888501182E-4,-1.444922239E-1,1.445019353E-1
3.219416792E0,7.894638111E-4,-1.093959436E-4,-1.405390203E-1,1.405412802E-1
3.229372792E0,-9.923300240E-5,-7.051415741E-5,-1.400545985E-1,1.400546514E-1
3.239328792E0,6.537814625E-4,-1.235476695E-3,-1.386529654E-1,1.386600110E-1
3.249284792E0,3.696709406E-3,-1.374493353E-3,-1.423150748E-1,1.423697138E-1
3.259240792E0,2.115026582E-3,-1.159971580E-4,-1.480192542E-1,1.480344095E-1
3.269196792E0,1.844449434E-3,-3.137620166E-3,-1.531144083E-1,1.531576595E-1
3.279152792E0,4.956806661E-4,-2.041959204E-3,-1.527040154E-1,1.527184717E-1
3.289108792E0,3.630487481E-3,9.170789272E-4,-1.494387090E-1,1.494856155E-1
3.299064792E0,2.527094446E-3,-2.804428339E-3,-1.418717802E-1,1.419219963E-1
3.309019792E0,7.683428703E-4,-1.865397207E-3,-1.383809000E-1,1.383956052E-1
3.318975792E0,9.050969384E-4,1.320242882E-5,-1.384713948E-1,1.384743534E-1
3.328931792E0,4.659088794E-3,4.656733945E-4,-1.403329372E-1,1.404110296E-1
3.338887792E0,4.564948846E-3,-1.749675721E-5,-1.486704946E-1,1.487405628E-1
3.348843792E0,2.837356646E-3,-1.027183607E-4,-1.538133323E-1,1.538395344E-1
3.358799792E0,1.850483590E-3,1.421110705E-3,-1.534175873E-1,1.534353282E-1
3.368755792E0,2.974071307E-3,1.093542203E-3,-1.521035731E-1,1.521365764E-1
3.378711792E0,3.074107692E-3,-3.461913206E-3,-1.477833539E-1,1.478558578E-1
3.388667792E0,1.686334377E-3,-1.854961738E-3,-1.419712752E-1,1.419934069E-1
3.398623792E0,9.925470222E-4,-2.243130468E-3,-1.439035982E-1,1.439245023E-1
3.408579792E0,5.138595589E-5,-1.099036075E-3,-1.441640556E-1,1.441682539E-1
3.418534792E0,-1.644595526E-3,8.615888655E-4,-1.436428726E-1,1.436548707E-1
3.428490792E0,-1.314363442E-3,-1.684925519E-3,-1.464509070E-1,1.464664968E-1
3.438446792E0,9.848305490E-4,-5.154027604E-3,-1.483349353E-1,1.484277162E-1
3.448402792E0,6.322279805E-4,2.910718322E-4,-1.459266394E-1,1.459282993E-1
3.458358792E0,2.275949111E-3,-1.708834432E-3,-1.431252658E-1,1.431535601E-1
3.468314792E0,8.903064299E-4,-1.724014059E-3,-1.403177530E-1,1.403311678E-1
3.478270792E0,1.239960548E-3,-2.004858106E-4,-1.441272050E-1,1.441326782E-1
3.488226792E0,2.758962801E-4,-2.943009138E-3,-1.462952793E-1,1.463251385E-1
3.498182792E0,1.041404204E-3,-1.716160215E-3,-1.502816528E-1,1.502950595E-1
3.508138792E0,-5.061586853E-4,3.160983324E-4,-1.482600570E-1,1.482612579E-1
3.518093792E0,5.181883927E-3,-2.281097695E-3,-1.459687203E-1,1.460784811E-1
3.528049792E0,4.132864997E-3,-1.654456370E-3,-1.404844671E-1,1.405549832E-1
3.538005792E0,1.448749565E-3,-1.157105900E-3,-1.372223645E-1,1.372348902E-1
3.547961792E0,2.000024077E-3,-5.043651909E-4,-1.382263750E-1,1.382417637E-1
3.557917792E0,1.392713748E-3,-8.393097669E-4,-1.424304545E-1,1.424397362E-1
3.567873792E0,1.600174000E-3,-1.494181342E-3,-1.497160643E-1,1.497320709E-1
3.577829792E0,8.285923395E-4,1.064383425E-3,-1.518679410E-1,1.518739312E-1
3.587785792E0,1.599044772E-3,-5.060825497E-4,-1.483602971E-1,1.483697773E-1
3.597741792E0,7.102019154E-4,-1.606876031E-3,-1.423783600E-1,1.423891985E-1
3.607697792E0,-1.520195394E-3,-1.899557188E-3,-1.419384032E-1,1.419592534E-1
3.617652792E0,1.069583581E-3,-1.662292518E-3,-1.429935545E-1,1.430072161E-1
3.627608792E0,2.281055553E-3,2.057611011E-3,-1.443339288E-1,1.443666166E-1
3.637564792E0,-1.569741522E-3,-6.046732888E-4,-1.466231048E-1,1.466327541E-1
3.647520792E0,1.846028841E-3,-1.153284684E-3,-1.497238278E-1,1.497396491E-1
3.657476792E0,8.217016002E-4,-8.162949234E-5,-1.475609243E-1,1.475632347E-1
3.667432792E0,1.168178860E-3,-1.638779417E-3,-1.462666392E-1,1.462804840E-1
3.677388792E0,5.607731873E-4,-1.162381843E-3,-1.426206678E-1,1.426265070E-1
3.687344792E0,2.366662724E-3,-1.742417924E-3,-1.425415725E-1,1.425718661E-1
3.697300792E0,-1.171545591E-4,-9.476551786E-4,-1.390643716E-1,1.390676498E-1
3.707256792E0,2.522836905E-3,-1.457916573E-3,-1.430785507E-1,1.431082174E-1
3.717212792E0,2.483613789E-3,1.405874267E-3,-1.473668814E-1,1.473945133E-1
3.727167792E0,3.922519740E-3,-8.570132777E-4,-1.508561522E-1,1.509095732E-1
3.737123792E0,4.858278669E-3,1.941603608E-3,-1.515898108E-1,1.516800694E-1
3.747079792E0,8.398349164E-4,1.124545000E-3,-1.440583915E-1,1.440652285E-1
3.757035792E0,-7.856467273E-4,-1.284535043E-3,-1.417227387E-1,1.417307375E-1
3.766991792E0,1.858606003E-3,-1.468559727E-3,-1.413048804E-1,1.413247335E-1
3.776947792E0,8.671862888E-4,-1.755982637E-3,-1.437249035E-1,1.437382460E-1
3.786903792E0,-1.285696635E-4,-2.147467807E-3,-1.507948041E-1,1.508101492E-1
3.796859792E0,2.056443598E-3,-2.880116925E-3,-1.545093805E-1,1.545499035E-1
3.806815792E0,2.950200345E-3,-9.759562090E-4,-1.525354385E-1,1.525670875E-1
3.816771792E0,6.164046936E-4,-5.396604538E-4,-1.444656253E-1,1.444679483E-1
3.826726792E0,1.838795608E-3,-1.275225542E-3,-1.425886303E-1,1.426061880E-1
3.836682792E0,4.264448071E-4,-1.492536627E-3,-1.444290429E-1,1.444373842E-1
3.846638792E0,-6.366891321E-4,-3.072324209E-3,-1.471087188E-1,1.471421751E-1
3.856594792E0,1.608688617E-3,-2.029126510E-3,-1.551256776E-1,1.551472883E-1
3.866550792E0,1.836388838E-3,-2.845918760E-3,-1.557754874E-1,1.558123039E-1
3.876506792E0,1.539238147E-4,1.777615398E-3,-1.479132026E-1,1.479239640E-1
3.886462792E0,1.468726434E-3,-5.137687549E-4,-1.443363130E-1,1.443446998E-1
3.896418792E0,2.021491528E-3,2.296769060E-3,-1.368724853E-1,1.369066792E-1
3.906374792E0,2.406584565E-3,-2.166423015E-3,-1.360881776E-1,1.361266951E-1
3.916330792E0,7.615417708E-4,-1.273550093E-3,-1.380302161E-1,1.380381919E-1
3.926285792E0,2.772494685E-3,5.248831585E-4,-1.489853859E-1,1.490121050E-1
3.936241792E0,2.427011263E-3,-6.552776322E-4,-1.547485888E-1,1.547690069E-1
3.946197792E0,1.816348638E-3,-2.836901695E-5,-1.545674950E-1,1.545781693E-1
3.956153792E0,1.968780532E-3,-1.737549901E-3,-1.537739784E-1,1.537963966E-1
3.966109792E0,8.579761488E-4,-5.646944046E-4,-1.435754001E-1,1.435790741E-1
3.976065792E0,-9.675789624E-4,-2.028265037E-3,-1.355874538E-1,1.356060755E-1
3.986021792E0,-2.802230651E-3,-1.455951482E-3,-1.318007112E-1,1.318385367E-1
3.995977792E0,-1.018268522E-4,-5.777785555E-4,-1.392357796E-1,1.392370157E-1
4.005933792E0,-6.304644048E-4,-1.114938408E-3,-1.459794343E-1,1.459850533E-1
4.015889792E0,1.333596534E-3,1.295068301E-3,-1.528478265E-1,1.528591304E-1
4.025845792E0,2.278219908E-3,3.863686696E-3,-1.530699283E-1,1.531356304E-1
4.035800792E0,-1.923090313E-4,-2.656029537E-4,-1.481596977E-1,1.481600605E-1
4.045756792E0,1.780294348E-3,-1.304235309E-3,-1.388357133E-1,1.388532526E-1
4.055712792E0,9.518435691E-4,-1.810011454E-3,-1.356631517E-1,1.356785646E-1
4.065668792E0,-2.066314919E-4,-2.773010172E-3,-1.347619295E-1,1.347906151E-1
4.075624792E0,7.441080525E-4,-1.711017452E-3,-1.457428336E-1,1.457547763E-1
4.085580792E0,2.990218112E-3,8.666561916E-4,-1.568679214E-1,1.568988121E-1
4.095536792E0,-5.144217284E-4,-1.656176522E-3,-1.598124206E-1,1.598218300E-1
4.105492792E0,3.541838843E-3,-1.367756166E-3,-1.538927406E-1,1.539395693E-1
4.115448792E0,2.456757706E-3,-1.054226421E-3,-1.427186579E-1,1.427436946E-1
4.125404792E0,8.671169635E-4,-9.181387722E-4,-1.335169077E-1,1.335228801E-1
4.135359792E0,-2.618205734E-3,9.976858273E-4,-1.334999502E-1,1.335293491E-1
4.145315792E0,-2.981512807E-6,-5.371795967E-3,-1.418947726E-1,1.419964179E-1
4.155271792E0,6.107869558E-4,-3.539072350E-4,-1.511527896E-1,1.511544380E-1
4.165227792E0,3.184998408E-3,1.442128792E-3,-1.581569016E-1,1.581955419E-1
4.175183792E0,2.337128390E-3,-1.215710305E-3,-1.541266739E-1,1.541491866E-1
4.185139792E0,2.995728049E-3,-2.321987413E-3,-1.418902576E-1,1.419408722E-1
4.195095792E0,-5.280111218E-4,1.917881891E-4,-1.330632567E-1,1.330644426E-1
4.205051792E0,1.335181296E-4,-2.067637630E-3,-1.283438653E-1,1.283605886E-1
4.215007792E0,3.686960554E-4,-1.361914910E-3,-1.320132911E-1,1.320208309E-1
4.224963792E0,1.624909113E-3,8.120238781E-4,-1.461781114E-1,1.461893976E-1
4.234918792E0,2.679715399E-3,-7.682796568E-4,-1.548644751E-1,1.548895632E-1
4.244874792E0,5.023563281E-3,1.579296775E-3,-1.563598365E-1,1.564484862E-1
4.254830792E0,4.212860949E-3,-3.948062658E-5,-1.518918127E-1,1.519502304E-1
4.264786792E0,7.725892356E-4,-2.456735820E-5,-1.419819295E-1,1.419840337E-1
4.274742792E0,-1.010710257E-3,9.268801659E-5,-1.356179714E-1,1.356217693E-1
4.284698792E0,-7.127026329E-4,-2.459418960E-3,-1.328546852E-1,1.328793591E-1
4.294654792E0,-2.817416796E-3,2.348396927E-3,-1.431006044E-1,1.431476014E-1
4.304610792E0,2.914504614E-3,-2.029109746E-4,-1.523287296E-1,1.523567438E-1
4.314566792E0,4.848747980E-3,1.844493672E-4,-1.606133878E-1,1.606866663E-1
4.324522792E0,4.063381813E-3,-1.915186644E-3,-1.548620164E-1,1.549271543E-1
4.334477792E0,1.268470893E-3,4.103695974E-4,-1.453487426E-1,1.453548568E-1
4.344433792E0,2.163559198E-3,-2.631759271E-3,-1.371571273E-1,1.371994341E-1
4.354389792E0,-7.484141970E-4,-1.265296713E-3,-1.317756176E-1,1.317838173E-1
4.364345792E0,7.679896662E-4,-8.101621643E-4,-1.345900446E-1,1.345946740E-1
4.374301792E0,9.807761526E-4,-1.778053120E-4,-1.439477503E-1,1.439512013E-1
4.384257792E0,6.050041411E-4,-9.197620675E-4,-1.523430943E-1,1.523470721E-1
4.394213792E0,1.953608822E-3,1.993527636E-3,-1.541970819E-1,1.542223421E-1
4.404169792E0,2.509410493E-3,2.084104344E-4,-1.524306089E-1,1.524514057E-1
4.414125792E0,6.607247051E-4,2.997312695E-4,-1.448417306E-1,1.448435477E-1
4.424081792E0,1.163263223E-3,-5.977544934E-4,-1.388301700E-1,1.388363303E-1
4.434036792E0,9.467334021E-4,3.463691100E-4,-1.303130090E-1,1.303169083E-1
4.443992792E0,-4.662561696E-5,1.756474376E-6,-1.326145232E-1,1.326145314E-1
4.453948792E0,1.096269814E-3,9.483657777E-6,-1.457014978E-1,1.457056223E-1
4.463904792E0,1.343677519E-3,-8.187601343E-4,-1.559030116E-1,1.559109517E-1
4.473860792E0,2.351337811E-3,-1.656287350E-3,-1.563690156E-1,1.563954638E-1
4.483816792E0,3.048020881E-3,-1.132525504E-4,-1.510059386E-1,1.510367398E-1
4.493772292E0,2.483185381E-5,1.752288081E-3,-1.424246877E-1,1.424354689E-1
4.503728292E0,3.944785567E-4,-1.583853737E-3,-1.339611709E-1,1.339711145E-1
4.513684292E0,-2.019867534E-4,-3.650725819E-3,-1.306714714E-1,1.307226148E-1
4.523640292E0,3.109380486E-4,-1.110869460E-3,-1.369874328E-1,1.369922898E-1
4.533595292E0,1.099525020E-3,-9.465022013E-4,-1.485429257E-1,1.485500104E-1
4.543551292E0,-3.111514961E-4,-1.909639686E-4,-1.546218693E-1,1.546223003E-1
4.553507292E0,3.089793958E-3,-2.789776772E-5,-1.535547972E-1,1.535858826E-1
4.563463292E0,-2.613898134E-3,-3.895554692E-4,-1.485728174E-1,1.485963199E-1
4.573419292E0,1.725507900E-6,7.296912372E-4,-1.407724172E-1,1.407743084E-1
4.583375292E0,-1.494970988E-3,-2.102048136E-3,-1.368650347E-1,1.368893395E-1
4.593331292E0,1.147713861E-3,-2.644340508E-3,-1.376819313E-1,1.377121054E-1
4.603287292E0,4.172087647E-4,-1.505838707E-3,-1.391024590E-1,1.391112350E-1
4.613243292E0,-7.689930499E-4,3.834413365E-4,-1.417841017E-1,1.417867056E-1
4.623199292E0,8.438172517E-4,-4.301546142E-4,-1.483389288E-1,1.483419525E-1
4.633154292E0,1.580616459E-3,7.908791304E-5,-1.548242718E-1,1.548323601E-1
4.643110292E0,3.845102387E-3,-7.582101971E-4,-1.535835117E-1,1.536335079E-1
4.653066292E0,4.380280152E-3,-1.276204363E-3,-1.439268291E-1,1.439991239E-1
4.663022292E0,2.313415171E-4,-2.480751835E-3,-1.381227374E-1,1.381452071E-1
4.672978292E0,-5.265639629E-5,-1.361430623E-3,-1.370382309E-1,1.370450035E-1
4.682934292E0,1.675468753E-3,-6.833905354E-4,-1.376491785E-1,1.376610713E-1
4.692890292E0,6.759135867E-4,-1.440595835E-3,-1.443948448E-1,1.444036127E-1
4.702846292E0,1.185376314E-3,-2.017968334E-3,-1.540344208E-1,1.540521993E-1
4.712802292E0,3.258068813E-3,-6.721429527E-4,-1.520063281E-1,1.520427261E-1
4.722758292E0,2.742480719E-3,-3.040758893E-3,-1.486925483E-1,1.487489204E-1
4.732713292E0,1.655588974E-3,1.433523372E-3,-1.449777633E-1,1.449943027E-1
4.742669292E0,-2.046290319E-4,8.620088920E-4,-1.420655847E-1,1.420683472E-1
4.752625292E0,1.732960227E-4,1.101261005E-4,-1.381986886E-1,1.381988412E-1
4.762581292E0,3.313695546E-3,-1.978857443E-3,-1.443553716E-1,1.444069588E-1
4.772537292E0,2.485709265E-3,-1.414135098E-3,-1.469625682E-1,1.469903907E-1
4.782493292E0,2.264134120E-3,-7.653897628E-4,-1.465843916E-1,1.466038744E-1
4.792449292E0,-1.323487377E-4,1.826785505E-3,-1.495768279E-1,1.495880413E-1
4.802405292E0,-1.187226851E-3,-3.660609946E-4,-1.466833055E-1,1.466885668E-1
4.812361292E0,9.176845779E-4,-2.702292055E-3,-1.436777711E-1,1.437061113E-1
4.822317292E0,2.124895342E-3,-1.623711549E-3,-1.422109008E-1,1.422360430E-1
4.832273292E0,3.317148425E-3,-1.372788101E-3,-1.435063034E-1,1.435512004E-1
4.842228292E0,2.873465652E-3,-1.417529769E-3,-1.464709342E-1,1.465059751E-1
4.852184292E0,3.212242387E-3,2.423604950E-3,-1.476947814E-1,1.477495882E-1
4.862140292E0,4.009859171E-3,1.015942544E-4,-1.488266140E-1,1.488806580E-1
4.872096292E0,3.427318530E-3,-5.876850337E-4,-1.452406049E-1,1.452822260E-1
4.882052292E0,1.966041978E-3,2.936925739E-5,-1.391779184E-1,1.391918071E-1
4.892008292E0,4.226911813E-3,-1.365039498E-4,-1.375881433E-1,1.376531242E-1
4.901964292E0,-1.383303199E-3,-2.279016189E-3,-1.409823298E-1,1.410075344E-1
4.911920292E0,1.457621693E-3,4.567829892E-4,-1.454120129E-1,1.454200358E-1
4.921876292E0,7.694608066E-4,-7.824599743E-5,-1.491225958E-1,1.491246015E-1
4.931832292E0,1.898501068E-4,5.736630410E-4,-1.514802426E-1,1.514814478E-1
4.941787292E0,3.382714000E-3,-1.255130395E-3,-1.501995176E-1,1.502428474E-1
4.951743292E0,-1.431894372E-3,6.996840239E-5,-1.455402225E-1,1.455472830E-1
4.961699292E0,-5.828785943E-4,4.617189988E-4,-1.440336853E-1,1.440356048E-1
4.971655292E0,-3.350544721E-4,-2.348115668E-4,-1.406916231E-1,1.406922180E-1
4.981611292E0,-3.374513471E-4,-3.767581657E-4,-1.416663378E-1,1.416672407E-1
4.991567292E0,-4.308699863E-4,-2.119861543E-3,-1.458194107E-1,1.458354552E-1
5.001523292E0,1.475687022E-3,-6.942721084E-4,-1.502746195E-1,1.502834686E-1
5.011479292E0,3.606831655E-3,-7.467297837E-4,-1.446876377E-1,1.447345133E-1
5.021435292E0,9.143755888E-4,-7.901396602E-4,-1.448769867E-1,1.448820268E-1
5.031391292E0,-1.413245220E-3,-3.194250166E-5,-1.419351995E-1,1.419422387E-1
5.041346292E0,-4.044398665E-4,-2.121192403E-3,-1.396720409E-1,1.396887327E-1
5.051302292E0,-9.336625226E-6,-2.198691480E-3,-1.425596625E-1,1.425766169E-1
5.061258292E0,-1.792589203E-3,-1.609333791E-3,-1.439578235E-1,1.439779785E-1
5.071214292E0,1.777878962E-3,1.319588162E-3,-1.486784369E-1,1.486949218E-1
5.081170292E0,8.665453061E-4,-1.315076835E-3,-1.518590599E-1,1.518672263E-1
5.091126292E0,2.492674626E-3,1.916113310E-3,-1.514137089E-1,1.514463475E-1
5.101082292E0,1.615429414E-3,-1.047186553E-3,-1.460993886E-1,1.461120719E-1
5.111038292E0,-1.054169144E-3,-1.259114593E-3,-1.380918026E-1,1.381015662E-1
5.120994292E0,1.468643313E-3,-3.214674070E-3,-1.382600963E-1,1.383052612E-1
5.130950292E0,-2.808307763E-4,-3.511179239E-5,-1.421697885E-1,1.421700702E-1
5.140905292E0,1.174586709E-3,-3.417326137E-3,-1.515811235E-1,1.516241892E-1
5.150861292E0,-8.290000260E-4,1.908184960E-3,-1.550793499E-1,1.550933047E-1
5.160817292E0,3.414480947E-3,1.010699198E-3,-1.544039696E-1,1.544450259E-1
5.170773292E0,2.209131606E-3,-1.087481156E-3,-1.456235349E-1,1.456443504E-1
5.180729292E0,1.481111976E-4,-1.033152454E-3,-1.351450533E-1,1.351490835E-1
5.190685292E0,-1.925043762E-6,-3.350571729E-3,-1.377066970E-1,1.377474527E-1
5.200641292E0,2.933144802E-3,-6.258916110E-4,-1.412162036E-1,1.412480486E-1
5.210597292E0,5.132576916E-6,2.061492763E-3,-1.498968452E-1,1.499110202E-1
5.220553292E0,1.212876174E-3,-1.292225905E-3,-1.540290117E-1,1.540392072E-1
5.230509292E0,2.663067076E-3,-8.575376123E-4,-1.510600448E-1,1.510859504E-1
5.240464292E0,1.375429565E-5,5.978792906E-4,-1.473547965E-1,1.473560101E-1
5.250420292E0,2.521216404E-3,8.213017136E-4,-1.417527944E-1,1.417775927E-1
5.260376292E0,3.175821388E-3,-2.292199992E-3,-1.371428519E-1,1.371987677E-1
5.270332292E0,-3.694597399E-4,1.378171146E-4,-1.389039457E-1,1.389045054E-1
5.280288292E0,3.011241788E-4,-1.927198842E-3,-1.454830170E-1,1.454960927E-1
5.290244292E0,-7.250481285E-4,-7.898127660E-4,-1.534540653E-1,1.534578107E-1
5.300200292E0,7.689852500E-4,1.817084849E-4,-1.580219269E-1,1.580239024E-1
5.310156292E0,3.994843457E-3,-1.100721769E-3,-1.543031335E-1,1.543587619E-1
5.320112292E0,3.466738621E-3,1.563504338E-3,-1.436070800E-1,1.436574267E-1
5.330068292E0,1.419993932E-4,-1.030554064E-3,-1.337425262E-1,1.337465720E-1
5.340023292E0,-4.532171879E-4,-1.190876588E-3,-1.342357546E-1,1.342418020E-1
5.349979292E0,7.711657672E-4,2.395994961E-4,-1.420526654E-1,1.420549606E-1
5.359935292E0,-3.670692677E-4,-5.899751559E-4,-1.494975239E-1,1.494991387E-1
5.369891292E0,8.546193130E-4,-6.158659235E-4,-1.589056551E-1,1.589091467E-1
5.379847292E0,9.670047439E-4,1.413995400E-3,-1.534842551E-1,1.534938143E-1
5.389803292E0,3.107190831E-3,-1.119012944E-3,-1.450924426E-1,1.451300235E-1
5.399759292E0,-1.661199145E-3,-1.980544999E-3,-1.383067071E-1,1.383308620E-1
5.409715292E0,-1.686812611E-4,-1.426033676E-3,-1.372591108E-1,1.372666220E-1
5.419671292E0,-1.067231758E-3,-1.822311431E-3,-1.439628154E-1,1.439783040E-1
5.429627292E0,1.206678106E-3,-8.935388178E-4,-1.548295021E-1,1.548367825E-1
5.439582292E0,1.841841964E-3,1.549478620E-4,-1.595310271E-1,1.595417343E-1
5.449538292E0,2.012385987E-3,-1.362368464E-3,-1.529173553E-1,1.529366643E-1
5.459494292E0,1.139401691E-3,-9.017623961E-5,-1.451816559E-1,1.451861549E-1
5.469450292E0,2.300010528E-3,-2.176306210E-3,-1.363994628E-1,1.364362115E-1
5.479406292E0,1.481354935E-3,-7.637655362E-4,-1.303884387E-1,1.303990901E-1
5.489362292E0,2.053127158E-3,-5.467180163E-4,-1.350020915E-1,1.350188096E-1
5.499318542E0,-1.297928160E-3,5.952455103E-4,-1.411883533E-1,1.411955737E-1
5.509274542E0,2.138898475E-3,-1.394121908E-3,-1.544733196E-1,1.544944172E-1
5.519230542E0,1.832102309E-3,1.055985689E-3,-1.580089331E-1,1.580230826E-1
5.529186542E0,2.119455021E-3,-1.947634853E-3,-1.550603807E-1,1.550870950E-1
5.539142542E0,2.067789901E-3,-3.510111012E-3,-1.512744278E-1,1.513292739E-1
5.549097542E0,4.429859575E-3,-1.376266591E-3,-1.452192068E-1,1.452932751E-1
5.559053542E0,-1.053855172E-3,-1.625006087E-3,-1.409434974E-1,1.409568044E-1
5.569009542E0,1.931284321E-3,-7.841112092E-4,-1.421056986E-1,1.421209846E-1
5.578965542E0,1.354201231E-5,-4.107356071E-4,-1.450586319E-1,1.450592140E-1
5.588921542E0,5.923911231E-4,5.763312802E-4,-1.513649821E-1,1.513672385E-1
5.598877542E0,3.571136855E-3,8.303970098E-4,-1.561650634E-1,1.562080971E-1
5.608833542E0,5.408230238E-3,7.363976911E-4,-1.558337212E-1,1.559292785E-1
5.618789542E0,5.775223253E-4,1.719903201E-3,-1.456085145E-1,1.456198170E-1
5.628745542E0,1.295974478E-3,-1.462724991E-3,-1.438305676E-1,1.438438434E-1
5.638700542E0,5.252556875E-4,-6.504608318E-4,-1.400930882E-1,1.400955829E-1
5.648656542E0,6.203526864E-4,-2.955291420E-4,-1.386951506E-1,1.386968528E-1
5.658612542E0,2.358065220E-3,-1.803943887E-3,-1.455245614E-1,1.455548442E-1
5.668568542E0,1.827141037E-3,1.005793922E-3,-1.504712403E-1,1.504856944E-1
5.678524542E0,3.120904556E-3,1.308063045E-3,-1.545639634E-1,1.546010021E-1
5.688480542E0,1.207757276E-3,4.808139056E-5,-1.524266154E-1,1.524314077E-1
5.698436542E0,1.251166919E-3,-6.459392607E-4,-1.450946778E-1,1.451015099E-1
5.708392542E0,-4.271641374E-4,-1.506733708E-3,-1.358318925E-1,1.358409207E-1
5.718348542E0,-5.765674869E-4,9.995140135E-5,-1.331082731E-1,1.331095594E-1
5.728304542E0,3.683415707E-4,-8.452339098E-4,-1.382987201E-1,1.383017935E-1
5.738259542E0,-1.403222559E-4,-2.329731360E-4,-1.471175104E-1,1.471177618E-1
5.748215542E0,-5.534989759E-5,8.201040328E-5,-1.534260660E-1,1.534260979E-1
5.758171542E0,1.080754679E-3,-3.957608715E-4,-1.532156765E-1,1.532199993E-1
5.768127542E0,1.646576216E-3,-1.346524805E-3,-1.483238637E-1,1.483391145E-1
5.778083542E0,-6.410790957E-4,-1.686094329E-4,-1.447291374E-1,1.447306555E-1
5.788039542E0,-3.438564017E-4,-1.245251857E-3,-1.420874745E-1,1.420933471E-1
5.797995542E0,2.380557358E-3,-3.102273680E-3,-1.419284940E-1,1.419823530E-1
5.807951542E0,-1.117992913E-3,-2.118403092E-3,-1.459584981E-1,1.459781515E-1
5.817907542E0,-7.936199545E-4,-2.998044714E-3,-1.516560614E-1,1.516877684E-1
5.827863542E0,3.340499010E-3,-7.932279259E-4,-1.536312252E-1,1.536695855E-1
5.837818542E0,4.642851127E-4,-5.274442956E-4,-1.505787075E-1,1.505803470E-1
5.847774542E0,1.588526648E-3,-3.163889050E-5,-1.434160918E-1,1.434248926E-1
5.857730542E0,-1.743354253E-3,-1.474539749E-3,-1.420477629E-1,1.420661131E-1
5.867686542E0,-4.057292826E-4,-7.510855794E-4,-1.399162114E-1,1.399188156E-1
5.877642542E0,1.343598124E-4,-7.084747776E-4,-1.432297230E-1,1.432315382E-1
5.887598542E0,1.805811888E-3,-1.432602294E-3,-1.508273929E-1,1.508450058E-1
5.897554542E0,1.579443226E-3,6.188303232E-4,-1.521339417E-1,1.521433988E-1
5.907510542E0,7.049100241E-4,3.416938707E-4,-1.505554914E-1,1.505575294E-1
5.917466542E0,9.563124040E-4,-1.246349886E-3,-1.452182531E-1,1.452267502E-1
5.927422542E0,2.333860379E-3,-1.829125918E-3,-1.379724145E-1,1.380042745E-1
5.937377542E0,-3.724439302E-4,-1.607550308E-3,-1.377079636E-1,1.377178499E-1
5.947333542E0,1.416112529E-3,-8.695246652E-4,-1.431033164E-1,1.431129645E-1
5.957289542E0,4.352703108E-4,3.177123144E-4,-1.465680897E-1,1.465690804E-1
5.967245542E0,-2.693944843E-4,1.109207980E-3,-1.493670791E-1,1.493714405E-1
5.977201542E0,-6.539642345E-5,-2.141713165E-3,-1.499961168E-1,1.500114204E-1
5.987157542E0,-2.311993157E-4,-2.405305393E-3,-1.484405547E-1,1.484602211E-1
5.997113542E0,3.024248872E-3,-3.123274073E-4,-1.440436840E-1,1.440757666E-1
6.007069542E0,7.007496897E-4,-7.810946554E-4,-1.439151615E-1,1.439189872E-1
6.017025542E0,-5.022000987E-4,-2.894046716E-3,-1.415622532E-1,1.415927232E-1
6.026981542E0,2.855663653E-3,-1.767402515E-3,-1.444254220E-1,1.444644629E-1
6.036936542E0,4.670745402E-4,2.422183752E-4,-1.459159851E-1,1.459169337E-1
6.046892542E0,2.913021017E-3,-1.352670603E-3,-1.495919675E-1,1.496264420E-1
6.056848542E0,4.352160031E-4,-1.499410719E-3,-1.485328227E-1,1.485410282E-1
6.066804542E0,4.801834002E-3,-1.344679855E-3,-1.484344304E-1,1.485181669E-1
6.076760542E0,3.701948561E-3,-8.365493268E-4,-1.444924176E-1,1.445422532E-1
6.086716542E0,3.982034046E-3,3.707697615E-4,-1.419092715E-1,1.419656134E-1
6.096672542E0,4.566598218E-3,-7.181968540E-4,-1.395390630E-1,1.396156142E-1
6.106628542E0,1.036949689E-3,-3.217775375E-4,-1.408953369E-1,1.408995201E-1
6.116584542E0,-1.839530538E-3,1.709414646E-3,-1.439294815E-1,1.439513863E-1
6.126540542E0,2.921678126E-3,-1.088627614E-3,-1.490567178E-1,1.490893236E-1
6.136495542E0,1.877452713E-3,1.725801267E-3,-1.478817314E-1,1.479037177E-1
6.146451542E0,-1.152513549E-3,1.284835860E-3,-1.442281306E-1,1.442384579E-1
6.156407542E0,2.484032884E-3,-1.432653517E-3,-1.406938583E-1,1.407230780E-1
6.166363542E0,2.206290606E-3,-1.427716576E-3,-1.416339576E-1,1.416583356E-1
6.176319542E0,1.368460245E-3,-9.583309293E-6,-1.447551847E-1,1.447616533E-1
6.186275542E0,2.462350763E-3,8.699726313E-4,-1.471664608E-1,1.471896300E-1
6.196231542E0,1.302544028E-3,-3.087427467E-4,-1.478492916E-1,1.478553515E-1
6.206187542E0,3.767546499E-3,5.576852709E-5,-1.489641368E-1,1.490117834E-1
6.216143542E0,1.357936999E-4,2.954527736E-4,-1.465411931E-1,1.465415539E-1
6.226099542E0,2.001175424E-3,-1.265387051E-3,-1.443474591E-1,1.443668759E-1
6.236054542E0,1.641269773E-4,-2.377523109E-3,-1.402134299E-1,1.402336817E-1
6.246010542E0,2.344605280E-3,-9.205853567E-4,-1.433922797E-1,1.434144014E-1
6.255966542E0,1.005035243E-3,2.631898969E-4,-1.482541412E-1,1.482577814E-1
6.265922542E0,-6.557423621E-4,-9.345728904E-5,-1.536154002E-1,1.536168282E-1
6.275878542E0,2.016207203E-3,-6.769560277E-4,-1.524683833E-1,1.524832164E-1
6.285834542E0,8.008719306E-4,8.544735610E-4,-1.487167180E-1,1.487213291E-1
6.295790542E0,1.998229185E-3,9.980183095E-4,-1.411288381E-1,1.411465122E-1
6.305746542E0,1.684911666E-3,2.041924745E-4,-1.409405172E-1,1.409507361E-1
6.315702542E0,1.071585692E-3,-2.497584559E-3,-1.410169601E-1,1.410431468E-1
6.325658542E0,-4.825661890E-4,-1.759679057E-3,-1.464605033E-1,1.464718689E-1
6.335613542E0,-3.640556242E-4,3.173202276E-4,-1.535330564E-1,1.535338159E-1
6.345569542E0,-5.879123928E-4,4.112534225E-4,-1.497038007E-1,1.497055200E-1
6.355525542E0,1.534626936E-3,1.054406166E-3,-1.452371478E-1,1.452490825E-1
6.365481542E0,8.196126437E-4,-1.163005829E-3,-1.419342011E-1,1.419413322E-1
6.375437542E0,3.491295734E-3,-2.038920298E-3,-1.418913156E-1,1.419489055E-1
6.385393542E0,9.059912991E-4,-6.472850218E-4,-1.441496760E-1,1.441539763E-1
6.395349542E0,3.443451133E-3,-9.934958071E-4,-1.499793380E-1,1.500221525E-1
6.405305542E0,1.533752307E-3,-2.253968269E-4,-1.496696174E-1,1.496776455E-1
6.415261542E0,4.346657661E-4,-2.555929124E-3,-1.511665732E-1,1.511888043E-1
6.425217542E0,-8.470162284E-4,-1.946518198E-3,-1.461843848E-1,1.461997973E-1
6.435172542E0,9.295785567E-4,-1.031189226E-3,-1.423182786E-1,1.423250501E-1
6.445128542E0,-2.428940497E-4,-2.463670447E-3,-1.394425929E-1,1.394645667E-1
6.455084542E0,4.079949111E-3,-1.655934379E-3,-1.415869594E-1,1.416554099E-1
6.465040542E0,1.528092893E-3,-2.798223868E-4,-1.464983821E-1,1.465066187E-1
6.474996542E0,2.298811916E-3,-3.618095070E-3,-1.496845782E-1,1.497459452E-1
6.484952542E0,9.531175019E-4,1.016019844E-3,-1.535560191E-1,1.535623382E-1
6.494908667E0,2.073775511E-3,-3.642115742E-3,-1.522345543E-1,1.522922358E-1
6.504864667E0,1.271880697E-3,-8.401172236E-4,-1.499250680E-1,1.499328166E-1
6.514820667E0,-7.089786232E-4,-1.512299292E-3,-1.476549953E-1,1.476644417E-1
6.524776667E0,-1.634532469E-3,-9.891530499E-4,-1.433377862E-1,1.433505182E-1
6.534732667E0,3.969267709E-4,-1.488761976E-3,-1.436749399E-1,1.436832012E-1
6.544687667E0,1.812314615E-3,-1.893489622E-3,-1.435119510E-1,1.435358835E-1
6.554643667E0,2.637894358E-3,1.016014256E-3,-1.466318518E-1,1.466590970E-1
6.564599667E0,-7.497390616E-4,1.155151054E-3,-1.502693594E-1,1.502756695E-1
6.574555667E0,9.203292429E-4,2.041365951E-4,-1.512491405E-1,1.512520783E-1
6.584511667E0,1.975045772E-3,4.708217457E-4,-1.500415355E-1,1.500552727E-1
6.594467667E0,2.071718685E-3,-9.542359039E-4,-1.402488351E-1,1.402673816E-1
6.604423667E0,-3.897603019E-4,-2.466728911E-3,-1.372488290E-1,1.372715474E-1
6.614379667E0,-1.212144503E-3,-6.322655827E-5,-1.351827532E-1,1.351882024E-1
6.624335667E0,4.801617470E-4,2.964353189E-4,-1.434045285E-1,1.434056387E-1
6.634290667E0,1.965406816E-3,-2.285765484E-3,-1.491750628E-1,1.492055190E-1
6.644246667E0,3.793880343E-3,-5.673011765E-4,-1.553572267E-1,1.554045793E-1
6.654202667E0,1.468674396E-3,-1.248537563E-3,-1.548195332E-1,1.548315334E-1
6.664158667E0,6.030438235E-4,8.573876694E-4,-1.484363079E-1,1.484400090E-1
6.674114667E0,9.876042604E-4,-3.892378882E-4,-1.390665025E-1,1.390705539E-1
6.684070667E0,6.433139788E-5,-9.159352630E-4,-1.356906295E-1,1.356937361E-1
6.694026667E0,1.482730964E-3,2.453229390E-3,-1.357425600E-1,1.357728229E-1
6.703982667E0,-1.825378858E-4,5.885334685E-4,-1.424454153E-1,1.424467480E-1
6.713938667E0,3.591490095E-4,1.252992079E-3,-1.509206593E-1,1.509262879E-1
6.723894667E0,6.699142978E-4,1.330938190E-3,-1.554076672E-1,1.554148101E-1
6.733849667E0,1.211334951E-3,-1.456059515E-3,-1.595526040E-1,1.595638458E-1
6.743805667E0,3.474905388E-4,-3.388428129E-3,-1.517881751E-1,1.518263887E-1
6.753761667E0,-4.938020720E-4,1.332824118E-3,-1.422756016E-1,1.422827013E-1
6.763717667E0,6.551452097E-4,-2.975300886E-3,-1.344745755E-1,1.345090818E-1
6.773673667E0,-1.039157854E-3,-2.749730833E-3,-1.286835223E-1,1.287170921E-1
6.783629667E0,-7.204856374E-4,-3.087523393E-3,-1.356271356E-1,1.356641877E-1
6.793585667E0,3.389304504E-3,-1.595620997E-3,-1.525794864E-1,1.526254666E-1
6.803541667E0,3.491724376E-3,-1.230489463E-3,-1.614398360E-1,1.614822804E-1
6.813497667E0,3.184928093E-3,-3.628320992E-4,-1.575699896E-1,1.576025921E-1
6.823453667E0,7.437697495E-4,1.701042987E-3,-1.450690478E-1,1.450809270E-1
6.833409667E0,-1.788363792E-3,-6.254948676E-4,-1.361234933E-1,1.361366774E-1
6.843364667E0,8.348991978E-4,-3.209227696E-3,-1.323498487E-1,1.323913844E-1
6.853320667E0,-2.578474348E-3,-2.437976189E-3,-1.369712353E-1,1.370171944E-1
6.863276667E0,3.045186168E-4,-9.913928807E-4,-1.451778263E-1,1.451815306E-1
6.873232667E0,3.273410723E-3,5.537727848E-4,-1.511819214E-1,1.512183694E-1
6.883188667E0,4.110271111E-3,-6.224466488E-4,-1.522181481E-1,1.522749040E-1
6.893144667E0,-8.666443173E-4,1.173792407E-4,-1.441168189E-1,1.441194725E-1
6.903100667E0,1.028329716E-3,-2.022402361E-3,-1.402103305E-1,1.402286859E-1
6.913056667E0,-6.124438951E-4,-7.334323600E-4,-1.385224164E-1,1.385257118E-1
6.923012667E0,-1.762332977E-3,-2.718652599E-3,-1.378934830E-1,1.379315394E-1
6.932968667E0,1.765290275E-3,-2.082956024E-3,-1.435287297E-1,1.435546976E-1
6.942923667E0,1.827290514E-3,-1.553101465E-4,-1.458500624E-1,1.458615913E-1
6.952879667E0,8.011744358E-4,-1.395278610E-3,-1.456631124E-1,1.456719980E-1
6.962835667E0,-1.133697107E-3,-8.493214846E-4,-1.464337260E-1,1.464405774E-1
6.972791667E0,9.523567860E-4,-1.921411604E-5,-1.463985741E-1,1.464016730E-1
6.982747667E0,1.421207562E-3,-1.898530871E-3,-1.431840062E-1,1.432036448E-1
6.992703667E0,-3.921387834E-4,-7.719453424E-5,-1.425616443E-1,1.425622045E-1
7.002659667E0,1.049161656E-4,1.010627486E-3,-1.390487552E-1,1.390524674E-1
7.012615667E0,4.388765665E-4,-7.728915662E-4,-1.408946067E-1,1.408974101E-1
7.022571667E0,-3.589325934E-4,1.198473386E-3,-1.453393102E-1,1.453446946E-1
7.032527667E0,2.383057959E-3,1.300739124E-3,-1.538539678E-1,1.538779201E-1
7.042482667E0,1.575919217E-3,-1.356432214E-3,-1.517121494E-1,1.517263975E-1
7.052438667E0,5.585916806E-4,2.219127491E-3,-1.454023272E-1,1.454203332E-1
7.062394667E0,2.636934165E-3,-5.770931020E-4,-1.382969618E-1,1.383233028E-1
7.072350667E0,-6.912180688E-4,7.804483175E-5,-1.353603005E-1,1.353620879E-1
7.082306667E0,1.568693202E-3,-3.023951314E-3,-1.365166306E-1,1.365591283E-1
7.092262667E0,4.293928505E-4,-1.431646757E-3,-1.445607096E-1,1.445684362E-1
7.102218667E0,1.402537106E-3,6.442591548E-4,-1.530023366E-1,1.530101212E-1
7.112174667E0,4.925349494E-4,1.709789969E-3,-1.523732990E-1,1.523836875E-1
7.122130667E0,5.673094420E-4,-1.608663239E-3,-1.475424469E-1,1.475523069E-1
7.132086667E0,1.565994928E-3,-1.196937636E-3,-1.416845471E-1,1.416982564E-1
7.142041667E0,3.059438197E-3,-2.302865498E-3,-1.344546974E-1,1.345092153E-1
7.151997667E0,1.086035976E-3,-1.091392711E-3,-1.343990564E-1,1.344078754E-1
7.161953667E0,3.374820808E-4,-2.026403323E-3,-1.389333457E-1,1.389485327E-1
7.171909667E0,2.621142659E-3,-1.799236052E-3,-1.503215581E-1,1.503551744E-1
7.181865667E0,3.490017960E-3,1.086204313E-3,-1.574813575E-1,1.575237697E-1
7.191821667E0,4.785153724E-4,-4.600277171E-4,-1.539500058E-1,1.539514368E-1
7.201777667E0,4.013643600E-3,6.266962737E-4,-1.434952766E-1,1.435527655E-1
7.211733667E0,1.624787925E-3,1.289509237E-4,-1.339313388E-1,1.339412561E-1
7.221689667E0,2.119200770E-3,-5.669016391E-4,-1.354781538E-1,1.354959134E-1
7.231645667E0,9.695140179E-4,-5.338220857E-3,-1.384153515E-1,1.385216449E-1
7.241600667E0,4.021703498E-4,-2.079515718E-3,-1.517138034E-1,1.517285875E-1
7.251556667E0,-2.979747369E-4,-2.744253725E-4,-1.581003219E-1,1.581008409E-1
7.261512667E0,3.972370643E-3,-2.133797854E-3,-1.525869966E-1,1.526536090E-1
7.271468667E0,2.763561904E-3,-1.992778853E-4,-1.443607658E-1,1.443873530E-1
7.281424667E0,-9.303723346E-4,-5.650408566E-4,-1.355324239E-1,1.355367949E-1
7.291380667E0,2.126563923E-4,1.178530045E-3,-1.361436248E-1,1.361488917E-1
7.301336667E0,-4.572157632E-4,-3.375387751E-3,-1.424431205E-1,1.424838407E-1
7.311292667E0,2.625925699E-3,-8.096992970E-4,-1.503750831E-1,1.504001885E-1
7.321248667E0,1.986986725E-3,-3.751263022E-3,-1.560889482E-1,1.561466614E-1
7.331204667E0,1.592572546E-3,-6.409576163E-4,-1.522182971E-1,1.522279774E-1
7.341159667E0,-2.037273371E-4,2.284415998E-3,-1.471980363E-1,1.472159025E-1
7.351115667E0,1.576635404E-4,-1.541747712E-3,-1.373818964E-1,1.373906376E-1
7.361071667E0,3.298356198E-3,-7.334174588E-4,-1.368300766E-1,1.368717900E-1
7.371027667E0,-1.666828757E-4,-1.696682535E-3,-1.372644454E-1,1.372750323E-1
7.380983667E0,2.286015777E-3,6.957883015E-4,-1.425993443E-1,1.426193639E-1
7.390939667E0,-1.331622247E-3,2.475781366E-4,-1.448244154E-1,1.448307489E-1
7.400895667E0,2.943228465E-3,-1.587153412E-3,-1.472444832E-1,1.472824480E-1
7.410851667E0,9.559776518E-4,-1.042271033E-3,-1.444726586E-1,1.444795810E-1
7.420807667E0,-1.247515320E-4,2.314997837E-4,-1.472704262E-1,1.472706609E-1
7.430763667E0,1.896587666E-3,-3.668013960E-5,-1.452706605E-1,1.452830451E-1
7.440718667E0,1.656523207E-3,-1.981239766E-4,-1.477317959E-1,1.477412158E-1
7.450674667E0,2.051736228E-3,-2.390970476E-3,-1.501669884E-1,1.502000358E-1
7.460630667E0,-4.414533032E-4,1.319595613E-3,-1.509430259E-1,1.509494395E-1
7.470586667E0,2.439554315E-3,-2.078065649E-3,-1.496085227E-1,1.496428409E-1
7.480542667E0,1.772128278E-3,-9.399158880E-4,-1.483736783E-1,1.483872377E-1
7.490498667E0,1.040291623E-3,5.788849667E-4,-1.474708617E-1,1.474756670E-1
7.500454292E0,3.651972860E-3,-2.418216318E-4,-1.482815146E-1,1.483266765E-1
7.510410292E0,4.817457229E-4,-4.639290273E-4,-1.433504075E-1,1.433519677E-1
7.520366292E0,1.529198023E-3,5.612615496E-5,-1.416027397E-1,1.416110076E-1
7.530322292E0,-1.091786544E-4,-2.357559279E-4,-1.427689344E-1,1.427691708E-1
7.540277292E0,2.268404234E-3,-1.199934632E-3,-1.434591711E-1,1.434821217E-1
7.550233292E0,1.092085964E-3,-2.780786715E-3,-1.481889337E-1,1.482190457E-1
7.560189292E0,1.200291328E-3,-2.645292319E-3,-1.486792266E-1,1.487076014E-1
7.570145292E0,3.250392620E-3,-1.029286534E-3,-1.502981633E-1,1.503368297E-1
7.580101292E0,-2.375735203E-4,-8.035404608E-4,-1.482074410E-1,1.482098097E-1
7.590057292E0,2.116128337E-3,-1.910083927E-3,-1.410818845E-1,1.411106819E-1
7.600013292E0,2.092281124E-3,-2.076529898E-3,-1.411388218E-1,1.411696024E-1
7.609969292E0,1.797735458E-3,-1.816605218E-3,-1.408724934E-1,1.408956752E-1
7.619925292E0,1.935848733E-3,-2.080335282E-3,-1.450557411E-1,1.450835736E-1
7.629881292E0,2.630134812E-3,9.713694453E-6,-1.494227946E-1,1.494459409E-1
7.639837292E0,3.237152938E-3,-2.767946571E-4,-1.485496908E-1,1.485852160E-1
7.649792292E0,7.271009963E-6,-7.606912404E-4,-1.470018625E-1,1.470038309E-1
7.659748292E0,1.365783159E-3,-1.362787560E-3,-1.389115006E-1,1.389248989E-1
7.669704292E0,9.474005783E-4,-2.186940983E-4,-1.377421170E-1,1.377455488E-1
7.679660292E0,6.326788571E-5,-8.326228708E-4,-1.394486129E-1,1.394511130E-1
7.689616292E0,6.552885752E-4,-3.396719694E-4,-1.429781020E-1,1.429800071E-1
7.699572292E0,1.671393286E-3,6.473548710E-4,-1.493428946E-1,1.493536500E-1
7.709528292E0,1.771528041E-3,-3.332206979E-3,-1.516515911E-1,1.516985398E-1
7.719484292E0,2.665508073E-3,-1.030744053E-3,-1.527827978E-1,1.528095242E-1
7.729440292E0,2.756854519E-3,-5.172863603E-4,-1.487883180E-1,1.488147554E-1
7.739395292E0,3.463325091E-3,-1.569575630E-3,-1.420055032E-1,1.420564012E-1
7.749351292E0,-1.696282881E-3,-5.852710456E-4,-1.361473501E-1,1.361591747E-1
7.759307292E0,-8.022530819E-4,-4.498723894E-3,-1.364718378E-1,1.365483234E-1
7.769263292E0,3.090755781E-3,-1.841364428E-4,-1.422863156E-1,1.423199996E-1
7.779219292E0,1.090939157E-3,-3.476394340E-4,-1.493376791E-1,1.493420685E-1
7.789175292E0,2.060063416E-3,7.812744007E-4,-1.506130695E-1,1.506291836E-1
7.799131292E0,3.070456209E-3,-1.249256544E-3,-1.484960616E-1,1.485330557E-1
7.809087292E0,9.132957784E-4,1.050382853E-3,-1.406397372E-1,1.406466249E-1
7.819043292E0,1.979582012E-3,-3.161667846E-3,-1.388137639E-1,1.388638755E-1
7.828999292E0,5.100496346E-4,7.087737322E-5,-1.391730309E-1,1.391739835E-1
7.838954292E0,2.004625276E-3,8.798353374E-4,-1.426984221E-1,1.427152140E-1
7.848910292E0,7.872942369E-4,3.248322755E-4,-1.486066431E-1,1.486090836E-1
7.858866292E0,-4.648265895E-5,6.040064618E-4,-1.538134515E-1,1.538146445E-1
7.868822292E0,2.529326826E-3,-1.337704249E-3,-1.513777226E-1,1.514047617E-1
7.878778292E0,2.643560991E-3,-1.891378313E-3,-1.444045454E-1,1.444411246E-1
7.888734292E0,1.039805356E-3,-5.166549236E-4,-1.393647790E-1,1.393696156E-1
7.898690292E0,-6.761846016E-4,1.670280471E-4,-1.372345686E-1,1.372363361E-1
7.908646292E0,5.462063709E-4,-2.284411341E-3,-1.379775852E-1,1.379975757E-1
7.918602292E0,8.730347035E-4,-2.559339628E-4,-1.448499262E-1,1.448527833E-1
7.928558292E0,2.191565698E-3,-2.006696537E-3,-1.563531905E-1,1.563814247E-1
7.938513292E0,1.567260828E-3,1.168500632E-3,-1.579679102E-1,1.579800062E-1
7.948469292E0,6.351544871E-4,1.977568492E-3,-1.546805054E-1,1.546944503E-1
7.958425292E0,-1.829652465E-4,6.093438715E-4,-1.433134526E-1,1.433148648E-1
7.968381292E0,1.545159961E-3,-2.000553533E-3,-1.346323341E-1,1.346560623E-1
7.978337292E0,1.113130711E-3,-1.833966002E-3,-1.348612159E-1,1.348782787E-1
7.988293292E0,1.110733836E-3,-4.461929202E-4,-1.423068792E-1,1.423119133E-1
7.998249292E0,1.461448730E-3,-1.184772700E-4,-1.548513770E-1,1.548583186E-1
8.008205292E0,6.044434849E-4,4.362594336E-4,-1.598599851E-1,1.598617231E-1
8.018161292E0,4.028409254E-3,2.543352544E-3,-1.549616903E-1,1.550349063E-1
8.028117292E0,1.841360354E-4,8.905949071E-4,-1.403023154E-1,1.403052628E-1
8.038073292E0,-2.505560988E-4,7.046125829E-4,-1.322309673E-1,1.322330820E-1
8.048028292E0,-4.284552415E-4,-2.468544059E-3,-1.309270859E-1,1.309510561E-1
8.057984292E0,-2.932865871E-3,-3.659659997E-4,-1.408680230E-1,1.408990261E-1
8.067940292E0,3.199861385E-3,-1.492482610E-3,-1.512394398E-1,1.512806491E-1
8.077896292E0,3.505574306E-3,-2.419454046E-3,-1.565109491E-1,1.565688986E-1
8.087852292E0,2.024324145E-3,4.050787538E-5,-1.534837335E-1,1.534970879E-1
8.097808292E0,1.355649205E-3,-3.496184945E-4,-1.421791464E-1,1.421860390E-1
8.107764292E0,-1.909386134E-3,-8.537555113E-4,-1.394131929E-1,1.394288815E-1
8.117720292E0,-1.739950385E-4,-4.186853766E-4,-1.402974576E-1,1.402981902E-1
8.127676292E0,4.901973880E-4,-2.710335888E-3,-1.408995986E-1,1.409265167E-1
8.137632292E0,-8.308333345E-4,-3.727097064E-4,-1.436994374E-1,1.437023225E-1
8.147587292E0,1.968805445E-4,2.459427342E-4,-1.456177086E-1,1.456180494E-1
8.157543292E0,-1.859742915E-4,1.717889681E-4,-1.498767436E-1,1.498769574E-1
8.167499292E0,3.031124361E-3,-2.278851345E-3,-1.513896883E-1,1.514371770E-1
8.177455292E0,3.344096767E-4,1.447480172E-4,-1.485016495E-1,1.485020966E-1
8.187411292E0,8.468018495E-4,-2.075880766E-4,-1.425678730E-1,1.425705390E-1
8.197367292E0,3.264124738E-3,-9.503560141E-4,-1.373839676E-1,1.374260246E-1
8.207323292E0,1.294450602E-3,-4.547415301E-4,-1.406050622E-1,1.406117560E-1
8.217279292E0,4.433767172E-4,7.105339319E-5,-1.454766691E-1,1.454773621E-1
8.227235292E0,3.962744027E-3,7.112771273E-4,-1.518805176E-1,1.519338701E-1
8.237191292E0,-1.736642909E-3,1.958068460E-4,-1.543103904E-1,1.543202865E-1
8.247146292E0,3.283722617E-4,-1.832722686E-3,-1.464617848E-1,1.464736192E-1
8.257102292E0,1.086640172E-3,-9.296303615E-4,-1.418930143E-1,1.419002203E-1
8.267058292E0,1.370000420E-3,-3.036989830E-3,-1.371390074E-1,1.371794721E-1
8.277014292E0,1.138370484E-3,6.979331374E-4,-1.360044479E-1,1.360110027E-1
8.286970292E0,1.466738293E-3,-8.341837674E-4,-1.393168867E-1,1.393271047E-1
8.296926292E0,2.415360883E-3,9.934473783E-4,-1.465447098E-1,1.465679804E-1
8.306882292E0,3.044666024E-3,1.762568019E-3,-1.501951069E-1,1.502363031E-1
8.316838292E0,1.058122260E-3,3.710016608E-5,-1.537405252E-1,1.537441710E-1
8.326794292E0,-7.083524833E-4,8.597504348E-4,-1.508539170E-1,1.508580300E-1
8.336750292E0,4.036732484E-3,-8.792504668E-4,-1.426356137E-1,1.426954329E-1
8.346705292E0,1.668383367E-3,-6.856378168E-4,-1.347995251E-1,1.348115929E-1
8.356661292E0,1.517127501E-3,-4.582917318E-4,-1.352662742E-1,1.352755582E-1
8.366617292E0,1.732044620E-3,-1.231407747E-3,-1.384388953E-1,1.384552061E-1
8.376573292E0,1.781205065E-3,-2.186167985E-4,-1.492159218E-1,1.492267127E-1
8.386529292E0,1.176667516E-3,-1.760587096E-3,-1.527352929E-1,1.527499719E-1
8.396485292E0,-1.492814044E-4,-2.890340984E-4,-1.556420624E-1,1.556424024E-1
8.406441292E0,-5.242545158E-4,-8.909078315E-4,-1.504145414E-1,1.504180934E-1
8.416397292E0,3.127707867E-3,6.870087236E-5,-1.415057480E-1,1.415403264E-1
8.426353292E0,-5.476950901E-5,1.326166093E-4,-1.392966509E-1,1.392967248E-1
8.436309292E0,1.568044070E-3,-1.547432505E-3,-1.425384730E-1,1.425554966E-1
8.446264292E0,2.456474584E-3,-7.583377883E-4,-1.473057866E-1,1.473282190E-1
8.456220292E0,1.028076629E-3,-2.788372338E-3,-1.555945426E-1,1.556229214E-1
8.466176292E0,1.613705768E-3,-2.407539636E-3,-1.526208669E-1,1.526483845E-1
8.476132292E0,1.462416141E-3,-1.301711425E-3,-1.482719779E-1,1.482849033E-1
8.486088292E0,8.826459525E-4,-3.224667162E-4,-1.426692307E-1,1.426723254E-1
8.496044083E0,1.591901528E-3,-2.388652414E-3,-1.381321549E-1,1.381619775E-1
8.506000083E0,1.331710722E-3,-2.059752122E-3,-1.409125030E-1,1.409338481E-1
8.515956083E0,1.327760518E-3,-3.905398771E-4,-1.474238336E-1,1.474303299E-1
8.525912083E0,-4.973037867E-4,-3.071810119E-3,-1.478014588E-1,1.478342131E-1
8.535868083E0,2.454521833E-3,-3.278102726E-3,-1.474681348E-1,1.475249857E-1
8.545823083E0,1.078999136E-3,-3.757471219E-3,-1.488332599E-1,1.488845932E-1
8.555779083E0,4.231258295E-3,-1.969148405E-3,-1.441736519E-1,1.442491699E-1
8.565735083E0,-8.255519206E-4,-1.239442267E-3,-1.398822218E-1,1.398901488E-1
8.575691083E0,1.974077430E-3,1.135467552E-3,-1.432042569E-1,1.432223637E-1
8.585647083E0,1.166607137E-3,-2.227305435E-3,-1.438655257E-1,1.438874955E-1
8.595603083E0,-1.338533009E-3,-1.266588457E-3,-1.486325711E-1,1.486439945E-1
8.605559083E0,2.335308818E-4,8.943006396E-4,-1.482474804E-1,1.482503617E-1
8.615515083E0,1.779884682E-3,-5.620764568E-4,-1.467009336E-1,1.467128073E-1
8.625471083E0,-5.461202236E-4,-2.082475461E-3,-1.446287334E-1,1.446447561E-1
8.635427083E0,3.380215727E-3,-1.486182213E-3,-1.453458667E-1,1.453927631E-1
8.645382083E0,-1.026783255E-3,2.535723150E-3,-1.410965323E-1,1.411230513E-1
8.655338083E0,-8.980487473E-4,-6.577111781E-4,-1.428523958E-1,1.428567326E-1
8.665294083E0,1.549928915E-3,4.397770390E-4,-1.443450898E-1,1.443540808E-1
8.675250083E0,9.173311992E-4,-1.990487799E-3,-1.485800147E-1,1.485961786E-1
8.685206083E0,-2.312901197E-4,-1.042935066E-3,-1.519555748E-1,1.519593298E-1
8.695162083E0,1.014090027E-3,4.141656682E-4,-1.493676603E-1,1.493716769E-1
8.705118083E0,6.921138265E-4,-1.993864775E-3,-1.431494504E-1,1.431650086E-1
8.715074083E0,1.161979046E-3,6.059706211E-4,-1.391534209E-1,1.391595917E-1
8.725030083E0,1.950274687E-3,-1.904059201E-3,-1.400362700E-1,1.400627928E-1
8.734986083E0,2.695441945E-3,8.252542466E-4,-1.411857903E-1,1.412139293E-1
8.744941083E0,1.231502276E-3,-2.453097142E-3,-1.464449912E-1,1.464707129E-1
8.754897083E0,2.123360755E-3,5.582626909E-5,-1.468892694E-1,1.469046263E-1
8.764853083E0,3.312462242E-3,-2.782571130E-3,-1.431094408E-1,1.431748133E-1
8.774809083E0,1.042826683E-3,8.930182084E-4,-1.419675797E-1,1.419742183E-1
8.784765083E0,6.785062724E-4,-5.485508591E-4,-1.426858306E-1,1.426884982E-1
8.794721083E0,3.498767968E-3,-7.325801998E-4,-1.451627314E-1,1.452067376E-1
8.804677083E0,4.076407757E-3,1.555607654E-3,-1.491590738E-1,1.492228747E-1
8.814633083E0,6.854012609E-4,7.877675816E-4,-1.490218788E-1,1.490255372E-1
8.824589083E0,-9.228817653E-4,3.129253164E-4,-1.499393284E-1,1.499424951E-1
8.834545083E0,3.428110853E-3,1.079283655E-3,-1.526547521E-1,1.526970535E-1
8.844501083E0,2.010510303E-3,-1.730084419E-3,-1.480783671E-1,1.481021207E-1
8.854456083E0,1.580901328E-3,-2.262427472E-3,-1.443043500E-1,1.443307426E-1
8.864412083E0,2.440569689E-3,-2.068549395E-3,-1.394997388E-1,1.395364196E-1
8.874368083E0,3.093888517E-3,-4.876628518E-4,-1.372841597E-1,1.373198837E-1
8.884324083E0,-1.265439903E-3,-2.808607183E-3,-1.443055719E-1,1.443384484E-1
8.894280083E0,5.026725121E-4,-2.604164183E-5,-1.506166756E-1,1.506175167E-1
8.904236083E0,1.387374592E-3,-5.064764991E-4,-1.526846141E-1,1.526917571E-1
8.914192083E0,-2.999001299E-4,2.341993153E-3,-1.510601491E-1,1.510786004E-1
8.924148083E0,1.153120538E-3,4.335725680E-4,-1.482449323E-1,1.482500510E-1
8.934104083E0,3.682141891E-3,3.974242136E-4,-1.405332685E-1,1.405820602E-1
8.944060083E0,1.561733196E-3,7.236618549E-4,-1.399803907E-1,1.399909728E-1
8.954015083E0,2.857970539E-3,-2.227690071E-3,-1.403023750E-1,1.403491611E-1
8.963971083E0,1.741040964E-3,-1.236461103E-3,-1.457733065E-1,1.457889466E-1
8.973927083E0,3.251341172E-3,-3.267759457E-3,-1.463571191E-1,1.464296957E-1
8.983883083E0,2.041999716E-3,1.335248351E-3,-1.440191269E-1,1.440397916E-1
8.993839083E0,1.945746597E-3,-2.837662585E-3,-1.432668865E-1,1.433081959E-1
9.003795083E0,1.266906853E-3,3.434829414E-4,-1.450821012E-1,1.450880392E-1
9.013751083E0,-8.427354624E-4,-2.078888938E-4,-1.465771347E-1,1.465797048E-1
9.023707083E0,-5.465919967E-4,-1.820699312E-3,-1.443779022E-1,1.443904164E-1
9.033663083E0,1.175310812E-3,1.315237954E-3,-1.456608027E-1,1.456714820E-1
9.043619083E0,2.813953906E-3,3.908546641E-4,-1.403677613E-1,1.403965082E-1
9.053574083E0,1.931421459E-3,-1.379933208E-3,-1.410598308E-1,1.410798018E-1
9.063530083E0,1.899804920E-4,-1.136253588E-3,-1.463273019E-1,1.463318367E-1
9.073486083E0,3.229316557E-3,-2.332777716E-3,-1.526259333E-1,1.526779154E-1
9.083442083E0,2.163519617E-3,-5.567157641E-4,-1.518722475E-1,1.518886773E-1
9.093398083E0,1.159659820E-3,3.923391923E-4,-1.480427384E-1,1.480478002E-1
9.103354083E0,-8.659404702E-4,-2.107303590E-3,-1.423254609E-1,1.423436946E-1
9.113310083E0,-2.913806238E-4,-3.352500498E-4,-1.395671815E-1,1.395678883E-1
9.123266083E0,-1.571029425E-3,-3.080702387E-3,-1.392172426E-1,1.392601863E-1
9.133222083E0,-5.229876842E-4,-2.809165046E-3,-1.442250460E-1,1.442533495E-1
9.143178083E0,2.049892209E-3,-2.217144705E-3,-1.534827203E-1,1.535124204E-1
9.153133083E0,2.014938975E-3,-1.628073864E-3,-1.539355665E-1,1.539573618E-1
9.163089083E0,-1.260749297E-3,-1.042131335E-4,-1.514404565E-1,1.514457402E-1
9.173045083E0,1.668918412E-3,5.159322172E-4,-1.455622762E-1,1.455727575E-1
9.183001083E0,8.020595415E-4,-2.969346941E-3,-1.367101967E-1,1.367447923E-1
9.192957083E0,2.077732701E-3,-2.605664544E-3,-1.363794804E-1,1.364201932E-1
9.202913083E0,1.802304178E-4,-2.672509290E-3,-1.425068825E-1,1.425320538E-1
9.212869083E0,1.631685649E-3,-7.994994521E-4,-1.522978842E-1,1.523087231E-1
9.222825083E0,6.833340158E-4,-1.222942024E-3,-1.588085145E-1,1.588146933E-1
9.232781083E0,1.927876612E-3,5.976334214E-4,-1.547023803E-1,1.547155466E-1
9.242737083E0,2.757451497E-3,5.688713863E-4,-1.463328749E-1,1.463599584E-1
9.252692083E0,-2.128665801E-4,-1.469885930E-3,-1.361819804E-1,1.361900791E-1
9.262648083E0,2.913684584E-3,-4.144748673E-4,-1.309326142E-1,1.309656856E-1
9.272604083E0,2.856765350E-4,-1.020952128E-3,-1.338556558E-1,1.338598541E-1
9.282560083E0,2.086239634E-3,3.657555208E-4,-1.470582783E-1,1.470735306E-1
9.292516083E0,-1.746282447E-3,9.077144787E-4,-1.560462117E-1,1.560586224E-1
9.302472083E0,-8.514602087E-4,1.449401490E-3,-1.575777978E-1,1.575867637E-1
9.312428083E0,4.402322811E-4,7.680030540E-4,-1.550102532E-1,1.550127809E-1
9.322384083E0,-1.427975250E-3,1.602694392E-4,-1.429778337E-1,1.429850543E-1
9.332340083E0,5.794409662E-5,-1.022610813E-4,-1.327135265E-1,1.327135785E-1
9.342296083E0,6.891132798E-4,-1.383508556E-3,-1.308021694E-1,1.308113011E-1
9.352252083E0,-2.763580414E-4,-2.917731181E-4,-1.386879683E-1,1.386885505E-1
9.362207083E0,8.416370256E-4,-1.145582646E-3,-1.514905840E-1,1.514972533E-1
9.372163083E0,7.851266419E-4,-1.371757127E-3,-1.581594348E-1,1.581673321E-1
9.382119083E0,2.680764766E-3,4.892600700E-4,-1.621730924E-1,1.621959857E-1
9.392075083E0,2.577564446E-3,-1.794130541E-3,-1.511473507E-1,1.511799734E-1
9.402031083E0,3.532923292E-4,7.443949580E-4,-1.376240849E-1,1.376265516E-1
9.411987083E0,8.595692925E-4,-1.112659462E-3,-1.304621398E-1,1.304697160E-1
9.421943083E0,1.918175840E-3,-2.982644364E-4,-1.330541968E-1,1.330683571E-1
9.431899083E0,1.974486746E-3,1.001290046E-3,-1.450472772E-1,1.450641713E-1
9.441855083E0,3.190485993E-3,-1.342558302E-3,-1.552836597E-1,1.553222348E-1
9.451811083E0,2.732066903E-3,8.503515273E-4,-1.592723429E-1,1.592980430E-1
9.461766083E0,6.321642431E-4,-6.016036496E-4,-1.518125534E-1,1.518150616E-1
9.471722083E0,1.772692543E-3,1.325693913E-3,-1.385350227E-1,1.385527063E-1
9.481678083E0,4.472372530E-4,-6.895205006E-4,-1.272504032E-1,1.272530572E-1
9.491634083E0,1.928148791E-3,-1.106549986E-3,-1.301470399E-1,1.301660255E-1
9.501590333E0,3.443669702E-4,3.739008680E-4,-1.385562420E-1,1.385571744E-1
9.511546333E0,7.394637796E-4,7.498217747E-4,-1.491920054E-1,1.491957222E-1
9.521502333E0,-7.769400836E-4,8.542174473E-4,-1.598121524E-1,1.598163239E-1
9.531458333E0,1.787737710E-4,-2.137133852E-4,-1.584942043E-1,1.584944492E-1
9.541414333E0,2.323033405E-4,-2.084051259E-3,-1.490029693E-1,1.490177241E-1
9.551370333E0,1.188584836E-3,-2.689315006E-3,-1.386880726E-1,1.387192367E-1
9.561325333E0,-6.633774028E-4,-2.784656361E-3,-1.283094585E-1,1.283413866E-1
9.571281333E0,1.011618646E-3,-2.187314443E-3,-1.338923573E-1,1.339140436E-1
9.581237333E0,1.750379568E-3,-7.750401273E-4,-1.448736340E-1,1.448862807E-1
9.591193333E0,3.210833995E-3,4.177447408E-5,-1.588976234E-1,1.589300662E-1
9.601149333E0,1.490964438E-3,1.172551885E-3,-1.580131799E-1,1.580245641E-1
9.611105333E0,3.871303517E-3,-3.503262997E-5,-1.536107659E-1,1.536595445E-1
9.621061333E0,2.613885736E-4,7.708650082E-5,-1.420260221E-1,1.420262835E-1
9.631017333E0,-4.776213318E-4,-8.860360831E-4,-1.358180344E-1,1.358217643E-1
9.640973333E0,2.174636465E-4,-5.334336311E-4,-1.376686692E-1,1.376698744E-1
9.650929333E0,9.030703222E-4,7.537379861E-5,-1.450956315E-1,1.450984614E-1
9.660885333E0,3.952123225E-3,5.435571074E-4,-1.537620872E-1,1.538138297E-1
9.670840333E0,1.685469411E-3,-8.970415220E-4,-1.585058272E-1,1.585173263E-1
9.680796333E0,1.893994864E-3,1.003656536E-3,-1.529821604E-1,1.529971763E-1
9.690752333E0,2.757216804E-3,3.055827692E-4,-1.443222463E-1,1.443489051E-1
9.700708333E0,2.090894151E-3,3.018537536E-4,-1.368102729E-1,1.368265827E-1
9.710664333E0,-2.029268653E-4,-1.956192777E-3,-1.330052018E-1,1.330197413E-1
9.720620333E0,7.025478990E-4,-1.869639382E-3,-1.377562732E-1,1.377707513E-1
9.730576333E0,1.707956777E-3,2.997824922E-4,-1.493205130E-1,1.493305816E-1
9.740532333E0,1.382518560E-3,2.272385173E-3,-1.518225521E-1,1.518458508E-1
9.750488333E0,1.387992292E-3,1.624846831E-3,-1.522176117E-1,1.522326113E-1
9.760444333E0,2.805859083E-3,6.381459534E-4,-1.481461674E-1,1.481741104E-1
9.770399333E0,-1.952359453E-4,-2.389773726E-4,-1.437893659E-1,1.437896970E-1
9.780355333E0,9.192969883E-4,-6.152819842E-4,-1.415254027E-1,1.415297258E-1
9.790311333E0,2.988406923E-3,-2.982104197E-4,-1.436304152E-1,1.436618101E-1
9.800267333E0,3.016370116E-3,-3.952599131E-3,-1.462139487E-1,1.462984632E-1
9.810223333E0,-1.428049407E-3,-6.176633760E-4,-1.473482996E-1,1.473565141E-1
9.820179333E0,-5.518994294E-5,6.676930934E-5,-1.447629035E-1,1.447629294E-1
9.830135333E0,4.892030265E-3,9.862221777E-4,-1.450161040E-1,1.451019470E-1
9.840091333E0,4.317682469E-4,6.629144773E-4,-1.411534548E-1,1.411556718E-1
9.850047333E0,2.731422428E-3,-1.577802934E-3,-1.433336884E-1,1.433683938E-1
9.860003333E0,1.826746622E-3,-8.243788034E-5,-1.467718333E-1,1.467832240E-1
9.869958333E0,2.536104294E-3,4.079444334E-4,-1.490951031E-1,1.491172291E-1
9.879914333E0,1.071099425E-3,-3.307498991E-5,-1.501893997E-1,1.501932227E-1
9.889870333E0,2.199803945E-3,-9.781215340E-4,-1.455171555E-1,1.455370689E-1
9.899826333E0,7.068357663E-4,2.706348896E-4,-1.426926106E-1,1.426946179E-1
9.909782333E0,3.825733147E-4,-1.360141672E-3,-1.437003016E-1,1.437072477E-1
9.919738333E0,1.822011895E-3,1.833787188E-3,-1.435671449E-1,1.435904161E-1
9.929694333E0,1.553707756E-3,6.308518350E-4,-1.464252025E-1,1.464348043E-1
9.939650333E0,1.773684868E-3,-1.049336977E-3,-1.457181275E-1,1.457326996E-1
9.949606333E0,1.083111507E-3,-6.131939590E-4,-1.439505219E-1,1.439559026E-1
9.959562333E0,5.233150441E-4,1.426521689E-3,-1.439028531E-1,1.439108751E-1
9.969517333E0,2.382691251E-3,-6.562033668E-4,-1.427291334E-1,1.427505283E-1
9.979473333E0,-1.413911348E-3,-5.781725049E-4,-1.435019821E-1,1.435101122E-1
9.989429333E0,3.355044173E-3,-1.303100958E-3,-1.472006887E-1,1.472446846E-1
9.999385333E0,2.780067734E-3,1.576575451E-3,-1.489668936E-1,1.490011736E-1
1.000934133E1,1.615837682E-3,1.011276618E-4,-1.464645863E-1,1.464735341E-1
1.001929733E1,1.621164032E-3,1.397440210E-4,-1.442634910E-1,1.442726674E-1
1.002925333E1,2.472292981E-4,-2.032110468E-3,-1.440565735E-1,1.440711177E-1
1.003920933E1,9.132858831E-4,1.080059446E-3,-1.449870765E-1,1.449939757E-1
1.004916533E1,2.982380334E-3,-1.893044449E-3,-1.467217058E-1,1.467642230E-1
1.005912133E1,2.077438170E-3,1.624992117E-3,-1.480061412E-1,1.480296395E-1
1.006907633E1,4.794647975E-4,2.372721210E-4,-1.484193504E-1,1.484203145E-1
1.007903233E1,3.366331337E-3,1.047939062E-3,-1.497235000E-1,1.497650053E-1
1.008898833E1,8.194906986E-4,1.214373857E-3,-1.488362551E-1,1.488434651E-1
1.009894433E1,7.350685191E-4,-9.236121550E-4,-1.476325095E-1,1.476372285E-1
1.010890033E1,4.822478804E-4,2.294993028E-4,-1.443318874E-1,1.443328755E-1
1.011885633E1,4.005343653E-3,5.291048437E-4,-1.401262283E-1,1.401844592E-1
1.012881233E1,-3.256161581E-4,-1.154597849E-4,-1.439545751E-1,1.439549896E-1
1.013876833E1,-3.086781595E-3,-1.044902951E-3,-1.458249092E-1,1.458613183E-1
1.014872433E1,2.538415603E-3,1.926104538E-3,-1.471533030E-1,1.471877985E-1
1.015868033E1,1.117619104E-3,-1.745969057E-4,-1.484625041E-1,1.484668134E-1
1.016863633E1,7.126260316E-4,-1.922247000E-3,-1.453422457E-1,1.453567035E-1
1.017859133E1,-4.451064160E-5,-5.541816354E-4,-1.445893645E-1,1.445904334E-1
1.018854733E1,2.115063835E-3,-1.803062856E-3,-1.450545639E-1,1.450811877E-1
1.019850333E1,1.899613882E-3,3.639506176E-4,-1.442161947E-1,1.442291643E-1
1.020845933E1,8.170405054E-4,-8.878028020E-4,-1.433661133E-1,1.433711902E-1
1.021841533E1,3.629715357E-4,-1.269374043E-4,-1.484839171E-1,1.484844150E-1
1.022837133E1,2.134243026E-3,9.346576408E-4,-1.473094076E-1,1.473278322E-1
1.023832733E1,-2.726824954E-3,-1.451001503E-3,-1.447045803E-1,1.447375436E-1
1.024828333E1,1.531989314E-3,1.188177615E-3,-1.435208470E-1,1.435339412E-1
1.025823933E1,5.208749324E-3,8.603427559E-4,-1.457326114E-1,1.458282047E-1
1.026819533E1,1.506241970E-3,-6.907545030E-4,-1.471675187E-1,1.471768476E-1
1.027815033E1,-1.047041151E-4,7.428247482E-4,-1.482687443E-1,1.482706421E-1
1.028810633E1,1.691911835E-3,-1.109595411E-3,-1.454389691E-1,1.454530423E-1
1.029806233E1,3.237077966E-3,7.772548124E-4,-1.443803608E-1,1.444187363E-1
1.030801833E1,4.082407337E-3,-5.635451525E-4,-1.456931382E-1,1.457514122E-1
1.031797433E1,-8.757010801E-5,1.887977123E-4,-1.447948515E-1,1.447950011E-1
1.032793033E1,2.010691445E-3,-3.205763176E-3,-1.401842833E-1,1.402353489E-1
1.033788633E1,4.444863298E-4,1.896319911E-3,-1.400633752E-1,1.400769170E-1
1.034784233E1,2.647877205E-3,1.846994273E-3,-1.424428523E-1,1.424794329E-1
1.035779833E1,-2.821325907E-4,-1.901404932E-3,-1.467595696E-1,1.467721575E-1
1.036775433E1,2.238242421E-3,-3.234456293E-3,-1.492211819E-1,1.492730135E-1
1.037770933E1,2.999640070E-3,-4.429304972E-4,-1.470112950E-1,1.470425614E-1
1.038766533E1,2.220438560E-3,6.170384586E-4,-1.472054869E-1,1.472235255E-1
1.039762133E1,4.137648270E-3,4.756245762E-4,-1.431351155E-1,1.431956970E-1
1.040757733E1,1.994059188E-3,-8.540330455E-4,-1.413384974E-1,1.413551431E-1
1.041753333E1,1.937623019E-4,1.189943403E-3,-1.458272487E-1,1.458322323E-1
1.042748933E1,4.007647745E-3,-4.278505221E-4,-1.507506967E-1,1.508045650E-1
1.043744533E1,6.387488684E-4,1.939966343E-3,-1.569188386E-1,1.569321299E-1
1.044740133E1,1.877723960E-3,1.729762182E-3,-1.509699374E-1,1.509915227E-1
1.045735733E1,4.715055693E-3,1.688749529E-3,-1.431953609E-1,1.432829195E-1
1.046731333E1,8.158259443E-4,-6.176810712E-5,-1.391755342E-1,1.391779391E-1
1.047726933E1,1.652156934E-4,2.571299672E-3,-1.383731216E-1,1.383971086E-1
1.048722433E1,4.844664130E-3,-5.497261882E-4,-1.429792047E-1,1.430623149E-1
1.049718033E1,1.550866640E-3,1.319546252E-3,-1.477649063E-1,1.477789360E-1
1.050713671E1,7.647344610E-4,5.928147584E-5,-1.560036838E-1,1.560055694E-1
1.051709271E1,6.693932810E-4,-3.351327032E-4,-1.568151414E-1,1.568169283E-1
1.052704871E1,1.499285572E-4,1.165544614E-3,-1.497673392E-1,1.497719496E-1
1.053700471E1,9.179842309E-4,-5.308892578E-4,-1.407389641E-1,1.407429591E-1
1.054696071E1,-1.404650393E-3,-1.573650166E-3,-1.322165281E-1,1.322333532E-1
1.055691671E1,-5.564334569E-4,-1.167784445E-3,-1.318037361E-1,1.318100838E-1
1.056687271E1,-2.831772203E-3,-2.678330988E-3,-1.442038417E-1,1.442565089E-1
1.057682871E1,1.303850673E-3,9.401058778E-4,-1.543020159E-1,1.543103883E-1
1.058678371E1,1.672369079E-3,1.415598206E-3,-1.622068733E-1,1.622216708E-1
1.059673971E1,-1.630483312E-3,-5.420912057E-4,-1.556903869E-1,1.556998680E-1
1.060669571E1,1.293359324E-3,4.845960066E-4,-1.460837722E-1,1.460903012E-1
1.061665171E1,1.088295830E-3,-2.062717453E-3,-1.329429299E-1,1.329633852E-1
1.062660771E1,1.324260607E-3,-2.167117782E-3,-1.311286241E-1,1.311532162E-1
1.063656371E1,4.848322424E-4,-7.612351328E-4,-1.384970546E-1,1.384999952E-1
1.064651971E1,1.542916289E-3,8.998438716E-6,-1.506856531E-1,1.506935523E-1
1.065647571E1,3.967990633E-3,-1.414727420E-3,-1.619452387E-1,1.620000208E-1
1.066643171E1,2.658400452E-3,-3.748573363E-5,-1.574002355E-1,1.574226878E-1
1.067638771E1,-2.974421368E-4,1.209722832E-4,-1.484405696E-1,1.484409169E-1
1.068634271E1,2.083660103E-3,-2.142577432E-3,-1.364146322E-1,1.364473677E-1
1.069629871E1,1.996574923E-3,-1.493299380E-3,-1.310403794E-1,1.310640961E-1
1.070625471E1,1.274253242E-3,-1.979693770E-3,-1.359066367E-1,1.359270275E-1
1.071621071E1,-2.068280242E-3,5.859956145E-4,-1.474884599E-1,1.475041253E-1
1.072616671E1,1.224366832E-3,-4.690513015E-4,-1.585798562E-1,1.585852763E-1
1.073612271E1,3.604167607E-3,3.631860018E-4,-1.580006182E-1,1.580421377E-1
1.074607871E1,2.615355188E-3,-9.482540190E-5,-1.491420865E-1,1.491650463E-1
1.075603471E1,-2.191650681E-3,6.061187014E-4,-1.371975392E-1,1.372163820E-1
1.076599071E1,7.411825936E-5,-3.449665383E-4,-1.351010501E-1,1.351015109E-1
1.077594671E1,7.889107219E-4,-1.364691183E-3,-1.368968189E-1,1.369058939E-1
1.078590271E1,1.448937925E-3,-3.147436306E-3,-1.428460032E-1,1.428880205E-1
1.079585771E1,3.046035767E-3,1.419352368E-3,-1.470652521E-1,1.471036412E-1
1.080581371E1,2.478429582E-3,-6.947368383E-4,-1.548499912E-1,1.548713823E-1
1.081576971E1,-2.100314596E-4,-9.818933904E-5,-1.520355642E-1,1.520357410E-1
1.082572571E1,3.655703331E-4,1.293311827E-3,-1.495507210E-1,1.495567600E-1
1.083568171E1,-2.004376613E-3,5.254521966E-5,-1.413348615E-1,1.413490834E-1
1.084563771E1,3.110006452E-3,4.583764821E-4,-1.381918192E-1,1.382275701E-1
1.085559371E1,3.838647390E-3,-1.849519089E-3,-1.421825588E-1,1.422463917E-1
1.086554971E1,5.096357781E-4,3.940053284E-4,-1.467076540E-1,1.467090683E-1
1.087550571E1,1.996744890E-3,1.814801246E-3,-1.548406780E-1,1.548641858E-1
1.088546171E1,3.160650376E-3,7.250001654E-4,-1.545828879E-1,1.546168961E-1
1.089541671E1,1.716684317E-3,1.317819580E-3,-1.463574469E-1,1.463734468E-1
1.090537271E1,3.019007389E-3,-1.159338281E-4,-1.356066316E-1,1.356402831E-1
1.091532871E1,-4.886419629E-4,9.748972952E-4,-1.324859411E-1,1.324904290E-1
1.092528471E1,4.092795309E-3,-8.782539517E-4,-1.376444846E-1,1.377081205E-1
1.093524071E1,2.290900797E-3,-1.297967508E-3,-1.483362764E-1,1.483596436E-1
1.094519671E1,-6.807378377E-4,-2.183230594E-3,-1.555474102E-1,1.555642206E-1
1.095515271E1,-1.643736847E-3,3.425115719E-4,-1.558512896E-1,1.558603338E-1
1.096510871E1,1.451323973E-3,2.545956522E-4,-1.486206353E-1,1.486279395E-1
1.097506471E1,6.499787560E-4,-1.619470306E-3,-1.438301504E-1,1.438407359E-1
1.098502071E1,6.125989603E-4,-2.941302955E-4,-1.364466995E-1,1.364483917E-1
1.099497671E1,2.144981874E-3,-3.828136250E-4,-1.396203786E-1,1.396373790E-1
1.100493171E1,9.998426540E-4,2.337843180E-4,-1.433368772E-1,1.433405550E-1
1.101488771E1,9.777384112E-4,-9.867427871E-4,-1.554441303E-1,1.554503370E-1
1.102484371E1,2.613152610E-3,1.008249819E-5,-1.545249671E-1,1.545470612E-1
1.103479971E1,7.888870896E-4,-2.650415525E-3,-1.488276720E-1,1.488533607E-1
1.104475571E1,2.686172724E-3,-2.892500721E-3,-1.449682266E-1,1.450219597E-1
1.105471171E1,-3.338521346E-4,-3.435891122E-4,-1.419117153E-1,1.419125239E-1
1.106466771E1,2.960142680E-3,-1.770751551E-3,-1.450531334E-1,1.450941401E-1
1.107462371E1,7.907317486E-4,-8.306559175E-4,-1.490228325E-1,1.490272453E-1
1.108457971E1,3.790975315E-3,1.748944633E-3,-1.498141736E-1,1.498723354E-1
1.109453571E1,6.058345316E-4,-1.405682415E-4,-1.505164355E-1,1.505177204E-1
1.110449071E1,4.263229202E-3,4.307711497E-4,-1.464375407E-1,1.465002184E-1