"Time (s)","Gyroscope x (rad/s)","Gyroscope y (rad/s)","Gyroscope z (rad/s)","Absolute (rad/s)"
2.426291667E-3,-3.091386519E-3,7.567266002E-4,1.599352807E-3,3.561914536E-3
1.238329167E-2,-5.645793863E-4,4.475340247E-4,1.381238922E-3,1.557837459E-3
2.234029167E-2,-3.739669453E-3,-5.984902382E-4,2.595340833E-3,4.591199432E-3
3.229729167E-2,-1.753749908E-3,9.695794433E-4,1.036060974E-3,2.255913424E-3
4.225429167E-2,2.020685934E-4,1.250822097E-3,2.189304680E-3,2.529514304E-3
5.221129167E-2,-7.188523887E-4,1.039367169E-3,2.659689635E-4,1.291422610E-3
6.216829167E-2,-3.655664623E-4,-1.452498138E-3,4.125429317E-3,4.388912933E-3
7.212429167E-2,-2.696631476E-3,1.000007614E-3,1.782646403E-3,3.383735324E-3
8.208129167E-2,-5.493581994E-4,2.843765542E-4,2.916574478E-3,2.981454535E-3
9.203829167E-2,6.645106478E-4,1.227231696E-4,1.336254179E-3,1.497401285E-3
1.019952917E-1,-2.980946563E-3,-5.242973566E-4,-1.008814201E-3,3.190397502E-3
1.119522917E-1,-5.317071453E-3,5.409670994E-4,1.203207299E-3,5.478284589E-3
1.219092917E-1,1.535378397E-4,2.194375731E-3,1.728540286E-3,2.797625822E-3
1.318662917E-1,-1.946098288E-3,7.043369114E-4,2.793271095E-3,3.476456880E-3
1.418232917E-1,7.295716787E-4,1.447970048E-3,1.391692087E-3,2.136749625E-3
1.517792917E-1,-9.112019325E-4,1.431991346E-3,1.581840217E-3,2.320152290E-3
1.617362917E-1,2.069675829E-3,-9.986665100E-4,2.352179959E-3,3.288410467E-3
1.716932917E-1,7.186543662E-4,-1.310256310E-3,1.760426909E-3,2.309185700E-3
1.816502917E-1,-1.805106993E-3,8.320258930E-4,-1.222044230E-4,1.991384509E-3
1.916072917E-1,-2.423492726E-3,-1.451102085E-3,7.877964526E-4,2.932513854E-3
2.015642917E-1,1.981103560E-4,1.719964668E-3,2.321511507E-3,2.896021728E-3
2.115212917E-1,1.358183334E-3,5.138190463E-4,-4.593599588E-4,1.523050738E-3
2.214782917E-1,-2.038469538E-4,-2.915924415E-4,1.959055662E-4,4.061511091E-4
2.314342917E-1,1.568486681E-3,1.178738661E-3,7.349308580E-4,2.095160773E-3
2.413912917E-1,-7.326197810E-4,-2.097273245E-4,-9.011793882E-4,1.180187097E-3
2.513482917E-1,-2.290161792E-4,1.005472615E-3,4.065349698E-3,4.194102020E-3
2.613052917E-1,-2.132244408E-3,-1.124623232E-3,3.650207072E-4,2.438131199E-3
2.712622917E-1,-2.146625426E-3,2.447748557E-4,1.039067283E-3,2.397410325E-3
2.812192917E-1,-1.499274513E-3,-1.748332754E-3,2.041162923E-3,3.077472593E-3
2.911762917E-1,9.734705091E-4,9.081698954E-4,3.492584452E-3,3.737721705E-3
3.011332917E-1,4.458235344E-4,-1.093410887E-3,5.295645446E-3,5.425695041E-3
3.110902917E-1,1.164877089E-3,-1.462259330E-3,4.000283778E-3,4.415587309E-3
3.210462917E-1,-7.838383317E-4,9.831031784E-4,2.950802445E-3,3.207511413E-3
3.310032917E-1,-6.392286159E-4,-1.575285569E-4,2.932691947E-3,3.005679711E-3
3.409602917E-1,-7.881599013E-4,7.846308872E-4,2.865022048E-3,3.073303271E-3
3.509172917E-1,1.015332760E-3,1.045088284E-3,8.293017745E-4,1.676559444E-3
3.608742917E-1,8.549785707E-5,-2.379736863E-3,3.500485793E-3,4.233657781E-3
3.708312917E-1,-1.546220854E-3,1.489570364E-3,2.282356843E-3,3.133491912E-3
3.807882917E-1,1.142029883E-3,1.844992861E-3,2.905007452E-3,3.625920463E-3
3.907452917E-1,1.770003233E-3,-2.068522386E-3,8.493140340E-4,2.851846882E-3
4.007012917E-1,-1.985856798E-4,-1.849271357E-3,5.402080715E-4,1.936766786E-3
4.106582917E-1,-1.679593697E-4,2.597408369E-3,2.179650590E-3,3.394939952E-3
4.206152917E-1,-1.755983802E-3,-2.269614488E-4,1.662604511E-3,2.428836011E-3
4.305722917E-1,-5.093582440E-4,-6.053969264E-4,-8.604750037E-4,1.168917658E-3
4.405292917E-1,6.890483201E-5,-9.870473295E-4,1.932077110E-3,2.170698566E-3
4.504862917E-1,1.482670195E-4,1.493953168E-3,-1.281825826E-3,1.974071079E-3
4.604432917E-1,3.130210331E-3,1.486429945E-3,-1.101320609E-3,3.636013996E-3
4.704002917E-1,-7.979522925E-4,-6.920360029E-4,-1.210777089E-3,1.606742932E-3
4.803562917E-1,-1.017255243E-3,5.865599960E-4,9.171459824E-4,1.489972352E-3
4.903132917E-1,-1.922079828E-4,-2.270478755E-3,1.496383920E-3,2.726019538E-3
5.002702917E-1,2.282104921E-3,5.878144875E-4,-1.783022657E-3,2.955113963E-3
5.102272917E-1,-6.092891563E-4,1.433367841E-3,1.469228417E-3,2.141123253E-3
5.201842917E-1,1.018548966E-3,8.438061923E-5,1.835560426E-3,2.100915078E-3
5.301412917E-1,-2.808072604E-4,7.847920060E-4,2.074977383E-3,2.236131112E-3
5.400982917E-1,2.999785123E-3,-1.842426136E-4,-4.812777042E-4,3.043728693E-3
5.500552917E-1,-2.304965397E-3,1.208590344E-3,3.393355757E-3,4.276496159E-3
5.600122917E-1,1.165302936E-3,-2.271007746E-3,8.929092437E-4,2.704199333E-3
5.699682917E-1,2.030031523E-3,-1.323455013E-3,1.086253673E-3,2.655655888E-3
5.799252917E-1,-1.684338786E-4,-5.057295784E-4,2.425448969E-3,2.483331448E-3
5.898822917E-1,-9.732740000E-5,6.514135748E-4,1.781230792E-3,1.899103842E-3
5.998392917E-1,8.150852518E-4,2.404423431E-4,1.865221187E-3,2.049689383E-3
6.097962917E-1,-2.227486111E-4,-3.702202812E-4,1.590915024E-3,1.648541966E-3
6.197532917E-1,-5.457794759E-4,-5.346601829E-4,1.301316544E-3,1.509026672E-3
6.297102917E-1,6.188210100E-4,-1.826292835E-3,8.185580373E-5,1.930022107E-3
6.396662917E-1,-1.432300545E-3,-8.247299120E-4,1.905852929E-3,2.522685011E-3
6.496232917E-1,1.319543924E-3,5.747610703E-4,1.432875171E-3,2.030930258E-3
6.595802917E-1,4.160718527E-4,-1.503002830E-3,2.507591620E-3,2.952989845E-3
6.695372917E-1,2.131680259E-3,-4.558479413E-4,2.622604370E-6,2.179877279E-3
6.794942917E-1,2.497711219E-3,6.905188784E-4,2.263741568E-3,3.440916090E-3
6.894512917E-1,1.649494283E-3,-2.471795306E-4,9.497366846E-4,1.919356371E-3
6.994082917E-1,-2.865926363E-4,4.119882360E-4,1.433670521E-3,1.518973603E-3
7.093652917E-1,-4.823971540E-5,-1.880219206E-4,2.238478512E-3,2.246879026E-3
7.193222917E-1,-7.902174257E-4,-9.611127898E-4,1.931209117E-3,2.297335419E-3
7.292782917E-1,-1.302862074E-4,1.594989561E-3,3.894491121E-3,4.210466398E-3
7.392352917E-1,2.092440147E-3,-4.694210365E-4,1.671008766E-3,2.718626891E-3
7.491922917E-1,-6.514147390E-4,3.830567002E-4,3.872908652E-3,3.945946657E-3
7.591492917E-1,-1.061329851E-3,9.169550613E-4,3.383139148E-3,3.662356910E-3
7.691062917E-1,6.295110798E-4,1.334529370E-4,2.481926233E-3,2.563991363E-3
7.790632917E-1,-2.663392108E-3,-9.042816237E-4,3.054725006E-3,4.152436350E-3
7.890202917E-1,4.397231387E-4,-2.026004717E-3,5.110152066E-3,5.514680923E-3
7.989772917E-1,1.972570317E-4,-2.177422866E-4,1.744825393E-3,1.769389073E-3
8.089332917E-1,6.425374886E-4,-1.839607954E-3,1.574650407E-3,2.505301529E-3
8.188902917E-1,3.184954170E-3,-3.745760769E-4,1.733526587E-4,3.211587061E-3
8.288472917E-1,1.110351644E-3,1.443830319E-3,-9.547621012E-4,2.056476947E-3
8.388042917E-1,3.405478783E-4,1.023824327E-3,-3.156928346E-3,3.336223267E-3
8.487612917E-1,-1.334314235E-3,9.934641421E-4,-1.897254959E-3,2.523279980E-3
8.587182917E-1,5.623839097E-4,-5.971034989E-4,-7.892511785E-4,1.138299465E-3
8.686752917E-1,-3.063509706E-3,-9.571630508E-4,8.813496679E-4,3.328367477E-3
8.786322917E-1,-1.570364926E-3,4.979846999E-4,3.097809851E-3,3.508626603E-3
8.885882917E-1,2.272310201E-3,1.441809349E-3,3.769991919E-3,4.631959296E-3
8.985452917E-1,-7.271193899E-4,-2.448959276E-4,2.416808158E-3,2.535673145E-3
9.085022917E-1,1.479043392E-3,-2.805823460E-4,5.449349061E-3,5.653468050E-3
9.184592917E-1,-1.776252873E-3,-8.015250787E-4,2.174532041E-3,2.919949712E-3
9.284162917E-1,1.556426869E-3,-1.024964266E-3,9.579993784E-4,2.095418610E-3
9.383732917E-1,-4.750813823E-4,-7.077716291E-4,3.152135760E-4,9.088468503E-4
9.483302917E-1,-1.389611047E-3,1.308507286E-3,1.666501164E-3,2.533857989E-3
9.582872917E-1,1.977094216E-3,-1.300921664E-3,-4.692710936E-4,2.412781398E-3
9.682433333E-1,-9.129683021E-4,-1.104380004E-3,3.271672875E-3,3.571695636E-3
9.782003333E-1,-6.793197244E-4,1.298469491E-3,2.705316991E-3,3.076725260E-3
9.881573333E-1,8.645147318E-4,-1.473613083E-4,7.668025792E-4,1.164940888E-3
9.981143333E-1,-1.229596557E-3,-9.430469945E-4,2.543482929E-3,2.978346981E-3
1.008071333E0,-1.279823482E-5,-7.401145995E-4,1.970903948E-3,2.105325577E-3
1.018028333E0,9.440032300E-4,-8.688867092E-5,4.493901506E-3,4.592803336E-3
1.027985333E0,-1.123408787E-3,4.558628425E-4,8.847862482E-4,1.500901375E-3
1.037942333E0,-1.832012553E-3,-5.184747279E-4,-4.243440926E-4,1.950680380E-3
1.047899333E0,-2.077289857E-3,3.779456019E-4,2.612724900E-3,3.359212323E-3
1.057855333E0,-3.972458653E-4,-1.068091020E-3,1.930626109E-3,2.241860807E-3
1.067812333E0,8.299386827E-4,2.620919608E-3,1.327265054E-4,2.752386988E-3
1.077769333E0,-7.929229178E-4,2.124631777E-3,9.157191962E-4,2.445675487E-3
1.087726333E0,4.292016383E-4,5.600238219E-4,7.455423474E-4,1.026486298E-3
1.097683333E0,-4.460226046E-4,-1.139469445E-3,2.717597410E-3,2.980379584E-3
1.107640333E0,3.185708774E-4,7.284721360E-4,1.564715058E-3,1.755133120E-3
1.117597333E0,-6.287492579E-4,1.598613337E-3,1.609520987E-3,2.354028045E-3
1.127554333E0,-7.448630640E-4,-1.172139309E-3,2.814335749E-3,3.138346260E-3
1.137510333E0,-2.463486511E-3,-1.358687878E-4,-1.309011132E-4,2.470700552E-3
1.147467333E0,1.546168816E-3,1.636996865E-3,2.785526216E-3,3.581836546E-3
1.157424333E0,-1.532608876E-3,2.282802016E-4,2.524824813E-3,2.962387914E-3
1.167381333E0,7.614380447E-4,-4.066182300E-4,1.916026697E-3,2.101495797E-3
1.177338333E0,1.093634171E-3,7.009468973E-4,4.684720188E-4,1.380879534E-3
1.187295333E0,2.012089826E-4,-1.194691285E-3,9.318627417E-4,1.528443814E-3
1.197252333E0,1.486204215E-3,-1.421423629E-3,-5.579926074E-5,2.057270439E-3
1.207209333E0,-5.199550651E-4,2.502426505E-4,1.982318237E-3,2.064596873E-3
1.217165333E0,3.599635093E-4,-2.659894526E-4,-3.563165665E-4,5.720888152E-4
1.227122333E0,-8.041041438E-4,1.408872195E-3,-6.159748882E-4,1.735202985E-3
1.237079333E0,2.135661896E-3,-5.256365985E-4,1.542499289E-3,2.686382256E-3
1.247036333E0,-1.607943559E-3,-5.240384489E-4,5.472768098E-4,1.777529379E-3
1.256993333E0,-1.820028061E-3,7.741749287E-4,4.857517779E-4,2.036615760E-3
1.266950333E0,1.093470259E-3,-9.659342468E-4,9.160488844E-5,1.461881538E-3
1.276907333E0,6.757716183E-4,-5.758479238E-4,1.340173185E-5,8.879457854E-4
1.286864333E0,1.499487320E-3,-1.139905304E-3,-4.463905469E-3,4.845028210E-3
1.296821333E0,4.190691980E-4,-1.811794937E-5,8.523631841E-4,9.499843422E-4
1.306777333E0,-4.451265559E-4,-2.530544065E-3,6.060209125E-4,2.639896260E-3
1.316734333E0,2.732967259E-4,1.807726920E-3,-1.593921334E-4,1.835203958E-3
1.326691333E0,1.599284704E-3,6.915964186E-4,4.581939429E-4,1.801654478E-3
1.336648333E0,-2.948595211E-3,-8.109519258E-4,-4.351511598E-4,3.088885442E-3
1.346605333E0,2.083157888E-4,1.026363112E-3,9.374413639E-4,1.405565017E-3
1.356562333E0,-1.133805374E-3,-1.630309038E-3,1.291478053E-3,2.368826238E-3
1.366519333E0,2.568787429E-3,-7.573245093E-4,-1.226274297E-3,2.945497907E-3
1.376476333E0,-2.715698211E-4,6.154617295E-4,1.786338165E-3,1.908807835E-3
1.386432333E0,-1.591965207E-3,7.262490690E-4,2.564780414E-3,3.104817145E-3
1.396389333E0,-2.262447029E-3,2.032907680E-3,-1.318229362E-3,3.314982481E-3
1.406346333E0,-2.043801360E-3,2.624395303E-3,-6.574578583E-5,3.326995223E-3
1.416303333E0,1.293423818E-3,9.983489290E-4,2.151727676E-3,2.701773075E-3
1.426260333E0,-5.843710387E-4,3.599887714E-4,6.582271308E-4,9.509702320E-4
1.436217333E0,-2.710946137E-4,9.250454605E-4,-1.275690272E-3,1.598933102E-3
1.446174333E0,2.690873109E-3,6.984099746E-4,1.030340791E-3,2.964823220E-3
1.456131333E0,-4.005596973E-3,1.007676125E-3,-1.155806705E-3,4.289068363E-3
1.466087333E0,2.140179975E-3,1.148291864E-3,-1.577384770E-3,2.896046830E-3
1.476044333E0,-1.122136833E-3,-2.928348258E-4,-9.877607226E-4,1.523356345E-3
1.486001333E0,1.300540753E-3,-8.752681315E-4,4.748478532E-4,1.637980780E-3
1.495958333E0,1.402126509E-3,1.428994350E-3,8.329004049E-5,2.003726735E-3
1.505915333E0,-1.434672624E-3,1.428994350E-3,5.156612024E-3,5.539942053E-3
1.515872333E0,-8.919200627E-4,-7.398640737E-4,3.229467198E-3,3.431090006E-3
1.525829333E0,6.178258918E-4,-2.072323114E-4,2.145027742E-3,2.241829181E-3
1.535786333E0,1.859080512E-4,1.893181354E-3,3.653332591E-3,4.118924188E-3
1.545742333E0,-2.532113809E-3,-7.036663592E-4,2.335067838E-3,3.515577975E-3
1.555699333E0,-6.776680239E-4,-1.242363825E-3,3.869570792E-4,1.467118811E-3
1.565656333E0,-3.951066174E-4,1.085504889E-3,8.442215621E-4,1.430783055E-3
1.575613333E0,-9.572668932E-4,1.083592884E-3,7.862877101E-4,1.645837722E-3
1.585570333E0,-1.215060707E-3,1.014191657E-4,2.938654274E-3,3.181563658E-3
1.595527333E0,-1.067725825E-3,-1.527788118E-4,-1.451857388E-4,1.088328398E-3
1.605484333E0,-3.790323390E-4,6.786594167E-4,-2.336036414E-4,8.116740597E-4
1.615441333E0,4.414382856E-4,-2.312360331E-3,1.404426992E-3,2.741221122E-3
1.625397333E0,-1.916790847E-3,-2.313666046E-4,-1.413464546E-3,2.392801638E-3
1.635354333E0,7.767532952E-4,1.789276488E-3,1.007448882E-4,1.953203923E-3
1.645311333E0,1.159449574E-3,-6.595002487E-4,-2.058545128E-3,2.452931294E-3
1.655268333E0,-3.563584760E-4,-1.407021657E-3,-1.114202663E-3,1.829794765E-3
1.665225333E0,-5.355891772E-4,1.313930377E-3,-1.368533820E-3,1.971332955E-3
1.675182333E0,6.488638464E-4,6.355708465E-4,-2.002218738E-3,2.198602844E-3
1.685139333E0,5.149069475E-4,1.330319792E-4,-3.247246146E-3,3.290506679E-3
1.695096333E0,-4.222398857E-4,-1.976108178E-4,-1.463690773E-3,1.536140369E-3
1.705052333E0,-1.984450035E-3,8.255755529E-4,-1.806706190E-3,2.807811281E-3
1.715009333E0,1.186947338E-3,1.203265041E-3,-4.776772112E-4,1.756378735E-3
1.724966333E0,-6.354536163E-4,3.169743344E-3,-7.056426257E-4,3.308928177E-3
1.734923333E0,-3.792450298E-5,-2.342239022E-4,1.210011542E-4,2.663463602E-4
1.744880333E0,-1.421436551E-3,-1.849550754E-4,-2.293951809E-3,2.704977847E-3
1.754837333E0,8.913372876E-4,2.383465879E-3,8.705034852E-4,2.689454977E-3
1.764794333E0,1.782164676E-3,-2.095704898E-3,-2.501059324E-3,3.717981669E-3
1.774751333E0,-1.511005219E-3,4.338156432E-4,9.764414281E-4,1.850613587E-3
1.784707333E0,2.146313665E-3,1.416522078E-3,-1.396168023E-3,2.926171953E-3
1.794664333E0,2.012793673E-3,-1.396983862E-6,-1.391541213E-3,2.446983300E-3
1.804621333E0,-1.082864590E-3,1.361076720E-3,1.117954031E-3,2.067594441E-3
1.814578333E0,-2.817050321E-3,7.859654725E-4,2.415627241E-3,3.793253116E-3
1.824535333E0,1.596872928E-3,4.839627072E-4,1.235313714E-3,2.076107661E-3
1.834492333E0,1.951310900E-3,-1.182772219E-3,2.097105607E-3,3.099099269E-3
1.844449333E0,-9.717745706E-4,1.169597730E-3,4.166513681E-4,1.576674674E-3
1.854406333E0,-4.462569486E-4,1.601781696E-5,2.807008103E-3,2.842304755E-3
1.864362333E0,2.029417548E-3,-3.619995899E-3,-7.549710572E-4,4.218161589E-3
1.874319333E0,-3.368703183E-4,2.685468644E-4,1.233756542E-3,1.306810711E-3
1.884276333E0,-2.057006117E-3,-1.853992231E-3,3.498531878E-4,2.791228871E-3
1.894233333E0,2.207799116E-3,-2.492204309E-3,2.436803654E-3,4.125950957E-3
1.904190333E0,3.768758615E-4,-1.204033382E-3,3.051726148E-3,3.302236254E-3
1.914147333E0,-3.792024218E-4,-1.277045347E-3,3.900934011E-3,4.122126326E-3
1.924104333E0,-9.520484600E-4,1.623403281E-3,4.078034312E-3,4.491347051E-3
1.934061333E0,-1.315239235E-3,-8.445596322E-4,2.533519641E-3,2.976887130E-3
1.944017333E0,-1.261377474E-4,-2.094380558E-3,3.744991496E-3,4.292703339E-3
1.953974333E0,-1.941632014E-3,1.399843954E-3,3.043049946E-3,3.871647059E-3
1.963931333E0,-4.140604287E-3,1.932476647E-3,3.930414096E-3,6.027207050E-3
1.973888542E0,-5.922182463E-4,3.258734941E-4,3.093782812E-3,3.166766186E-3
1.983845542E0,7.841032930E-4,-1.021153294E-3,4.480756819E-3,4.662054665E-3
1.993802542E0,-2.730782609E-3,2.196859568E-4,5.516204983E-4,2.794587761E-3
2.003759542E0,-2.894628560E-4,6.388677284E-4,1.094104722E-3,1.299617583E-3
2.013716542E0,-4.401288461E-4,2.055226825E-3,-2.613663673E-4,2.118013948E-3
2.023672542E0,5.257995799E-4,-1.235641539E-3,-8.573830128E-4,1.593229689E-3
2.033629542E0,1.284773462E-4,-6.368216127E-4,-3.323003650E-3,3.385912204E-3
2.043586542E0,2.123451326E-3,1.175193116E-3,-2.596760169E-3,3.554333660E-3
2.053543542E0,-3.912755055E-4,-5.787424743E-4,-3.039309755E-3,3.118564279E-3
2.063500542E0,-1.245085034E-3,5.128877237E-4,-5.636364222E-4,1.459786482E-3
2.073457542E0,-6.004603347E-4,1.344000921E-4,-8.121356368E-4,1.018911326E-3
2.083414542E0,-1.669719466E-3,-7.492396981E-5,-2.285394818E-3,2.831361187E-3
2.093371542E0,-1.101847738E-4,-1.040983945E-3,6.144605577E-4,1.213816310E-3
2.103327542E0,1.563345548E-3,3.369210288E-3,9.817108512E-4,3.841794302E-3
2.113284542E0,1.125654904E-3,-6.710821763E-4,8.017402142E-4,1.536306487E-3
2.123241542E0,2.787696430E-4,6.328020245E-4,2.300567925E-3,2.402241390E-3
2.133198542E0,-4.447128158E-4,-1.318902709E-3,2.184037119E-3,2.589844007E-3
2.143155542E0,-3.163267858E-3,-3.638928756E-4,3.540918231E-3,4.762014646E-3
2.153112542E0,-6.482750177E-5,1.546393149E-3,5.071945488E-4,1.628735916E-3
2.163069542E0,1.389043173E-4,-4.139589146E-4,1.222254708E-3,1.297907148E-3
2.173026542E0,-7.904983358E-4,-2.233302221E-4,-7.354617119E-4,1.102573325E-3
2.182982542E0,-1.487713889E-3,3.591030836E-4,3.898516297E-5,1.530936799E-3
2.192939542E0,6.994984578E-4,-8.728541434E-4,-3.147311509E-4,1.161993178E-3
2.202896542E0,2.092331648E-3,2.161124721E-4,9.516030550E-4,2.308701951E-3
2.212853542E0,6.242827512E-4,-2.930341288E-4,1.473305747E-3,1.626723018E-3
2.222810542E0,1.341738389E-3,-5.926396698E-4,1.191277057E-3,1.889609671E-3
2.232767542E0,1.128090662E-3,-1.622917131E-3,-1.493003219E-4,1.982104725E-3
2.242724542E0,-3.107933328E-3,-3.350125626E-4,-1.362370327E-3,3.409917285E-3
2.252681542E0,-1.749776187E-3,3.316141665E-4,4.723332822E-4,1.842493797E-3
2.262637542E0,-1.441914937E-3,-2.424757928E-3,3.232434392E-3,4.290361499E-3
2.272594542E0,1.276428346E-3,-1.748577692E-3,4.729021341E-3,5.201003375E-3
2.282551542E0,-2.193137771E-3,1.269316301E-3,1.763857901E-3,3.087428031E-3
2.292508542E0,-8.531671483E-5,-6.895400584E-4,1.128245145E-3,1.325021336E-3
2.302465542E0,3.028717358E-3,-1.492217183E-3,3.554916009E-3,4.902781740E-3
2.312422542E0,7.413688581E-5,1.191387884E-3,1.912485808E-3,2.254440803E-3
2.322379542E0,1.955770422E-4,7.282644510E-4,2.083193511E-3,2.215471664E-3
2.332336542E0,9.099623421E-4,-1.728925854E-3,1.871081069E-3,2.705209870E-3
2.342292542E0,-2.757743001E-3,1.567535102E-3,5.222136155E-3,6.110075186E-3
2.352249542E0,-2.937647514E-4,1.285203733E-3,6.098782644E-3,6.239647113E-3
2.362206542E0,1.194143319E-3,-1.541741192E-3,4.803420976E-3,5.184187230E-3
2.372163542E0,-8.237054572E-4,4.059020430E-4,3.894234076E-3,4.001038139E-3
2.382120542E0,4.396981094E-4,2.469318919E-3,2.116041258E-3,3.281539419E-3
2.392077542E0,-1.216999721E-3,1.741738059E-3,-9.163208306E-4,2.313954116E-3
2.402034542E0,3.202271182E-5,-1.358713955E-3,-6.380211562E-4,1.501399367E-3
2.411991542E0,9.901024168E-4,-1.792903990E-3,-1.829810441E-3,2.746454762E-3
2.421947542E0,-3.630497959E-4,1.759219915E-3,-2.381619066E-3,2.983080495E-3
2.431904542E0,-1.591495005E-3,3.926083446E-5,-7.262136787E-4,1.749795437E-3
2.441861542E0,1.495374832E-3,7.601268589E-5,-1.235410571E-3,1.941175700E-3
2.451818542E0,4.333995748E-4,-1.081899740E-3,-2.273933962E-3,2.555213866E-3
2.461775542E0,1.988685690E-3,-1.216655597E-3,5.979463458E-5,2.332101416E-3
2.471732542E0,1.504373504E-3,6.773257628E-4,-1.970615238E-3,2.570065027E-3
2.481689542E0,2.091866685E-3,-3.003207967E-4,-2.777554095E-3,3.490115408E-3
2.491646542E0,-4.330936354E-4,-1.327972859E-5,-2.540107816E-4,5.022628051E-4
2.501602542E0,-1.092492370E-3,7.622335106E-4,3.782231361E-4,1.384771549E-3
2.511559542E0,1.391400932E-3,-2.481974661E-6,8.501354605E-4,1.630562178E-3
2.521516542E0,-2.174838213E-3,-3.937007859E-4,2.029117197E-3,3.000373004E-3
2.531473542E0,-4.401763435E-4,-1.227492467E-4,-1.142024994E-4,4.710252667E-4
2.541430542E0,-2.746473765E-3,4.357155412E-4,1.670271158E-4,2.785832772E-3
2.551387542E0,-1.060061855E-3,1.230771653E-3,1.742303371E-3,2.382047656E-3
2.561344542E0,-5.285441875E-5,-1.282719895E-3,6.163194776E-4,1.424083431E-3
2.571301542E0,-4.520174116E-5,-1.281838864E-3,1.327469945E-3,1.845895589E-3
2.581257542E0,1.772671938E-3,-2.926606685E-3,2.208177000E-3,4.072276777E-3
2.591214542E0,-2.762998920E-4,-7.416382432E-4,3.161400557E-3,3.258960324E-3
2.601171542E0,-7.056014147E-4,1.252270304E-3,3.858882934E-3,4.117891665E-3
2.611128542E0,-2.652358962E-3,-1.859324053E-3,1.856181771E-3,3.733296769E-3
2.621085542E0,-5.023889244E-4,9.268745780E-4,1.586403698E-3,1.904775002E-3
2.631042542E0,-1.598034985E-3,1.527559943E-3,8.192844689E-5,2.212208730E-3
2.640999542E0,-5.286885425E-5,1.490275376E-3,4.311293364E-3,4.561903800E-3
2.650955542E0,1.253638184E-4,-1.189112663E-3,7.443521172E-4,1.408461958E-3
2.660912542E0,-1.831260510E-3,-3.835065290E-4,3.300188109E-3,3.793657057E-3
2.670869542E0,6.268881261E-4,-1.044494100E-3,1.768527552E-3,2.147474412E-3
2.680826542E0,-3.619436175E-4,-3.378221765E-3,2.569606528E-3,4.259843094E-3
2.690783542E0,-8.918181993E-5,-1.294706948E-3,1.557826996E-3,2.027571066E-3
2.700740542E0,-1.611178275E-3,1.512797549E-3,3.520043567E-3,4.156339564E-3
2.710697542E0,7.506413385E-5,-1.514411531E-3,4.879310727E-4,1.592844513E-3
2.720654542E0,-6.285430863E-4,8.455105126E-5,2.008862793E-3,2.106595598E-3
2.730611542E0,-1.837541349E-4,7.304120809E-4,4.966877401E-3,5.023657881E-3
2.740567542E0,-4.226964898E-3,9.645037353E-4,1.969223842E-3,4.761863317E-3
2.750524542E0,-2.862962196E-3,1.174665987E-3,3.803608939E-3,4.903451201E-3
2.760481542E0,-1.496227691E-3,5.534011871E-5,1.670949161E-3,2.243620050E-3
2.770438542E0,-3.827703185E-4,3.582853824E-4,-5.706753582E-4,7.749528350E-4
2.780395542E0,5.695761647E-4,2.610795200E-4,4.381313920E-4,7.645512670E-4
2.790352542E0,-8.344145026E-4,1.352185383E-3,-1.988001168E-3,2.544956093E-3
2.800309542E0,9.975739522E-4,1.489871182E-3,-2.776829526E-3,3.305397426E-3
2.810265542E0,-1.551102148E-3,2.362264320E-3,-2.568628639E-3,3.818908703E-3
2.820222542E0,-1.055487897E-3,-1.208670437E-4,-7.326453924E-4,1.290516491E-3
2.830179542E0,2.155902795E-3,5.482798442E-4,-3.813821822E-3,4.415174350E-3
2.840136542E0,1.167869894E-3,-9.614666924E-4,-6.257519126E-4,1.637041156E-3
2.850093542E0,6.605938543E-4,1.452363096E-3,1.079993322E-3,1.926688449E-3
2.860050542E0,4.012018908E-4,1.914688386E-3,6.277877837E-4,2.054534515E-3
2.870007542E0,-4.108606372E-4,1.526167616E-3,1.120992005E-3,1.937683444E-3
2.879964542E0,-5.011416506E-4,2.047074959E-4,-4.396215081E-4,6.973630211E-4
2.889920542E0,1.893448643E-5,-1.151785254E-3,-5.431417376E-4,1.273566148E-3
2.899877542E0,-1.337679802E-3,-9.725540876E-4,3.211382776E-3,3.612233110E-3
2.909834542E0,4.198193783E-4,7.673893124E-4,-1.027561724E-3,1.349450912E-3
2.919791542E0,-2.142791636E-4,-1.881656237E-3,-1.466983929E-3,2.395534930E-3
2.929748542E0,-5.835993215E-4,5.573406816E-4,1.301150769E-4,8.174024325E-4
2.939705542E0,5.639566807E-4,1.860968769E-4,-4.765540361E-4,7.614347869E-4
2.949662542E0,-1.333944034E-3,-1.794165000E-4,4.247818142E-4,1.411395251E-3
2.959619542E0,1.128681004E-3,-7.748994976E-4,-1.576524228E-4,1.378130736E-3
2.969575417E0,-2.253009705E-3,2.714560367E-3,3.193702549E-3,4.758637062E-3
2.979532417E0,-1.629607286E-4,3.303384408E-3,1.400597394E-3,3.591737436E-3
2.989489417E0,2.858487424E-4,-2.378149889E-3,-3.442987800E-4,2.419885958E-3
2.999446417E0,-3.583698999E-4,2.924678847E-4,2.460809425E-3,2.503906842E-3
3.009403417E0,-1.342117554E-3,8.418606594E-4,1.829588786E-3,2.420207434E-3
3.019360417E0,1.050466322E-3,-5.733435974E-4,2.452768385E-3,2.729152822E-3
3.029317417E0,-1.401079586E-3,1.170542091E-4,5.184281617E-3,5.371545549E-3
3.039274417E0,5.392994499E-4,-1.591630280E-3,2.263061702E-3,2.818790363E-3
3.049230417E0,2.061120467E-3,2.719108015E-3,2.237912267E-3,4.080443272E-3
3.059187417E0,-1.486476511E-3,-1.304928213E-3,9.723771363E-4,2.204079707E-3
3.069144417E0,5.472684279E-6,-1.044264063E-3,1.200919971E-3,1.591454103E-3
3.079101417E0,8.917727973E-4,2.819113433E-5,7.955860347E-4,1.195412314E-3
3.089058417E0,-6.982532796E-4,1.434434205E-3,-5.554091185E-4,1.689271565E-3
3.099015417E0,-1.751533477E-3,1.135894097E-3,-2.724021673E-3,3.431970133E-3
3.108972417E0,-1.005619997E-3,-1.677181572E-4,1.390736550E-3,1.724398188E-3
3.118929417E0,6.764325080E-4,1.632845029E-3,-3.778992221E-3,4.171873204E-3
3.128885417E0,7.280275458E-4,2.515166998E-3,-7.315073162E-4,2.718674693E-3
3.138842417E0,-1.271207351E-3,-2.699671313E-4,-4.846323282E-4,1.386981930E-3
3.148799417E0,6.292611361E-4,-1.393179409E-3,7.179398090E-4,1.688891948E-3
3.158756417E0,4.652104108E-4,2.971291542E-4,1.869052649E-4,5.827864434E-4
3.168713417E0,-1.222822117E-3,3.498699516E-4,-2.632439137E-4,1.298845745E-3
3.178670417E0,-2.270243131E-3,-5.066031590E-4,5.503520370E-4,2.390300817E-3
3.188627417E0,1.710043405E-3,1.209238544E-4,1.386659220E-3,2.204925128E-3
3.198584417E0,1.295389258E-3,-2.844091505E-4,-5.505234003E-4,1.435965846E-3
3.208540417E0,-7.096452173E-4,1.007244922E-3,-4.603061825E-4,1.315302417E-3
3.218497417E0,4.901088541E-4,-1.263632439E-3,-4.070438445E-4,1.415153109E-3
3.228454417E0,-5.036471412E-4,-1.943045296E-3,-1.584028825E-3,2.556996829E-3
3.238411417E0,-3.446564078E-4,-2.194448374E-3,-1.383759081E-3,2.617093980E-3
3.248368417E0,3.830988426E-4,-2.884492278E-5,-2.651872113E-3,2.679556392E-3
3.258325417E0,-1.655018423E-3,1.376771368E-3,-2.627903596E-3,3.397125651E-3
3.268282417E0,2.217346337E-3,1.884205267E-4,-1.931985840E-3,2.946980889E-3
3.278238417E0,2.041577827E-3,2.345847897E-3,-2.263016999E-3,3.846074404E-3
3.288195417E0,-2.721621888E-3,-1.062781550E-3,1.142434776E-4,2.924001008E-3
3.298152417E0,8.869615849E-4,-1.375968568E-3,1.821536571E-4,1.647170394E-3
3.308109417E0,2.060514176E-3,5.960771814E-4,-3.801863641E-4,2.178432544E-3
3.318066417E0,-1.524899388E-3,-9.714346379E-5,-1.151172444E-3,1.913100361E-3
3.328023417E0,6.034728140E-4,7.004104555E-4,-1.767436042E-3,1.994638917E-3
3.337980417E0,2.404840197E-4,4.306323826E-4,-2.009784803E-3,2.069423052E-3
3.347937417E0,1.111828606E-3,-1.264028251E-4,-1.335559413E-3,1.742371794E-3
3.357893417E0,-1.340410206E-3,5.279351026E-4,8.413083851E-4,1.668296974E-3
3.367850417E0,-1.636197791E-3,1.530788839E-3,-6.486028433E-4,2.332625844E-3
3.377807417E0,3.683636896E-4,4.128273576E-5,-6.632506847E-4,7.598009890E-4
3.387764417E0,-2.351805568E-3,8.081775159E-4,9.810458869E-4,2.673310935E-3
3.397721417E0,-9.424607269E-4,1.458488405E-4,2.001568675E-3,2.217156121E-3
3.407678417E0,-2.047555288E-3,6.842985749E-5,2.904359251E-3,3.554218334E-3
3.417635417E0,-1.598546281E-3,-2.878624015E-3,2.296091989E-3,4.014207873E-3
3.427592417E0,-6.050751545E-4,-1.304969192E-4,5.046028644E-3,5.083851932E-3
3.437548417E0,-5.848351866E-4,-2.230132930E-3,2.198310569E-3,3.185607389E-3
3.447505417E0,-3.513164585E-3,-1.181147061E-3,2.465527505E-3,4.451545761E-3
3.457462417E0,-2.137641655E-3,-2.300740220E-3,3.692444414E-3,4.847376935E-3
3.467419417E0,9.031814989E-4,3.671301529E-4,-1.698136330E-4,9.896252013E-4
3.477376417E0,-2.992358059E-4,-6.608497351E-4,-4.651583731E-4,8.617637449E-4
3.487333417E0,9.741476970E-4,-7.216213271E-4,1.812089235E-3,2.180222115E-3
3.497290417E0,-2.329237293E-3,-6.374651566E-4,8.183345199E-5,2.416279145E-3
3.507247417E0,8.057593368E-5,1.258712262E-3,1.643110067E-3,2.071390772E-3
3.517203417E0,-1.018506009E-4,6.712190807E-4,1.880398020E-3,1.999201169E-3
3.527160417E0,9.947839426E-4,-1.299969852E-3,2.778571099E-3,3.224899078E-3
3.537117417E0,-3.131251317E-3,5.389424041E-4,3.310138360E-3,4.588268702E-3
3.547074417E0,6.249194266E-4,-1.176632941E-3,1.613480970E-3,2.092441208E-3
3.557031417E0,-1.431307290E-3,5.751941353E-4,7.017888129E-5,1.544154761E-3
3.566988417E0,-6.071303505E-4,-3.178352490E-4,-8.719488978E-4,1.109018209E-3
3.576945417E0,-8.358960040E-4,-6.488664076E-4,-2.342013642E-3,2.569976195E-3
3.586902417E0,-1.515321899E-3,5.358085036E-4,-3.570783883E-3,3.915838193E-3
3.596858417E0,-1.502538566E-3,4.982585087E-4,-4.698365927E-3,4.957875156E-3
3.606815417E0,-1.873467350E-3,-2.337207086E-3,-7.254393771E-3,7.848480481E-3
3.616772417E0,-2.749381354E-3,-2.117380500E-4,-6.752386689E-3,7.293740935E-3
3.626729417E0,2.888353774E-4,3.991303965E-4,-8.024293929E-3,8.039404456E-3
3.636686417E0,-6.147751119E-4,3.067189828E-4,-1.055775955E-2,1.058009035E-2
3.646643417E0,-6.767532323E-4,-6.651878357E-4,-9.525312111E-3,9.572462620E-3
3.656600417E0,1.273932867E-5,7.763812318E-4,-1.198660582E-2,1.201172965E-2
3.666557417E0,1.752553508E-4,-4.630731419E-4,-1.449740771E-2,1.450586025E-2
3.676513417E0,9.102877229E-4,-3.112731501E-4,-1.487184782E-2,1.490293166E-2
3.686470417E0,1.150947064E-4,-1.230680384E-3,-1.591396891E-2,1.596189924E-2
3.696427417E0,-5.794577301E-4,-1.183542423E-3,-1.882187463E-2,1.886794924E-2
3.706384417E0,-8.069647010E-4,1.464537345E-3,-1.690862700E-2,1.699110734E-2
3.716341417E0,-8.509068284E-4,5.545355380E-4,-1.794805750E-2,1.797677168E-2
3.726298417E0,2.128625987E-3,6.475895643E-4,-1.973721944E-2,1.986223180E-2
3.736255417E0,-2.140953904E-3,-9.729620069E-5,-2.019661479E-2,2.031000736E-2
3.746211417E0,3.144778777E-3,-6.172060966E-5,-1.852330752E-2,1.878846360E-2
3.756168417E0,-6.566175725E-4,2.189772204E-4,-2.001893893E-2,2.003090146E-2
3.766125417E0,-7.065518294E-4,-6.634732708E-4,-2.044181526E-2,2.046478007E-2
3.776082417E0,-5.558170378E-4,-4.275171086E-4,-1.775069162E-2,1.776453649E-2
3.786039417E0,1.979257446E-3,1.563504338E-4,-1.935523003E-2,1.945679406E-2
3.795996417E0,1.785379252E-3,-1.764853485E-3,-1.869370043E-2,1.886151433E-2
3.805953417E0,1.626846381E-3,4.934184253E-4,-1.875426434E-2,1.883115827E-2
3.815910417E0,-4.701265134E-4,3.035347909E-4,-1.095333230E-2,1.096761782E-2
3.825866417E0,-1.702486770E-3,3.615748137E-4,-2.108562738E-3,2.734087484E-3
3.835823417E0,-1.447089482E-3,-7.513603196E-4,5.111532286E-3,5.365293338E-3
3.845780417E0,2.179262694E-3,6.868606433E-4,1.042897068E-2,1.067634736E-2
3.855737417E0,2.362488071E-3,-7.776115090E-4,1.302741654E-2,1.326271508E-2
3.865694417E0,-1.666959608E-3,-6.296923384E-4,9.697418660E-3,9.859776643E-3
3.875651417E0,-2.422232181E-3,-2.219066955E-3,3.844588995E-3,5.056909276E-3
3.885608417E0,2.801774535E-4,3.428030759E-4,-3.859493881E-4,5.873417102E-4
3.895565417E0,5.771198776E-4,-4.995549098E-4,-4.381224513E-3,4.447218310E-3
3.905521417E0,1.941987197E-3,9.329924360E-4,-6.127618253E-3,6.495344072E-3
3.915478417E0,-2.516144654E-3,4.027569667E-4,-7.058657706E-3,7.504521684E-3
3.925435417E0,8.574401727E-4,9.888317436E-5,-4.087695852E-3,4.177827056E-3
3.935392417E0,1.620887779E-4,9.769275784E-4,2.647705376E-3,2.826836399E-3
3.945349417E0,1.878253883E-3,-2.948854119E-3,8.159115911E-3,8.876640733E-3
3.955306417E0,1.036162255E-3,1.608612947E-3,1.081295684E-2,1.098095185E-2
3.965263417E0,-5.857399665E-4,-1.418189146E-3,1.100104302E-2,1.110753345E-2
3.975220833E0,-1.296537695E-3,2.318492159E-3,8.867584169E-3,9.256914436E-3
3.985176833E0,7.727204356E-4,9.270450100E-4,7.289886475E-3,7.389110510E-3
3.995133833E0,2.696493175E-4,1.472193748E-3,6.329283118E-3,6.503836558E-3
4.005090833E0,-1.909137936E-3,3.830054775E-4,3.228548914E-3,3.770282343E-3
4.015047833E0,1.478136750E-3,-6.287293509E-4,6.138589233E-4,1.719596356E-3
4.025004833E0,6.973732961E-4,1.694198698E-3,-2.721467987E-3,3.280705221E-3
4.034961833E0,-7.351411041E-4,2.094471827E-3,1.892447472E-5,2.219820446E-3
4.044918833E0,1.920700888E-3,-6.708297879E-4,-1.006256789E-4,2.036965889E-3
4.054875833E0,-1.728101633E-4,3.837812692E-4,-2.491878346E-3,2.527174134E-3
4.064831833E0,-7.886069361E-4,-7.939524949E-5,-2.408022061E-3,2.535108430E-3
4.074788833E0,-2.668935340E-4,1.624761149E-3,-1.322783530E-3,2.112069416E-3
4.084745833E0,1.396446256E-3,5.110260099E-5,1.155355945E-3,1.813152222E-3
4.094702833E0,8.425087435E-4,2.047674730E-3,1.419007778E-3,2.629900352E-3
4.104659833E0,1.676779473E-3,1.397397369E-3,6.396314129E-3,6.758486757E-3
4.114616833E0,1.082095550E-3,-2.388488501E-4,4.121707752E-3,4.268073845E-3
4.124573833E0,-3.435110673E-3,-2.142500132E-3,2.683958039E-3,4.857357606E-3
4.134530833E0,-7.160231471E-4,6.050830707E-4,3.043483943E-3,3.184589327E-3
4.144486833E0,-6.931333337E-4,9.036948904E-4,4.115421325E-4,1.210976961E-3
4.154443833E0,-2.816471737E-3,-1.217778772E-3,-8.571874350E-4,3.185948600E-3
4.164400833E0,-8.340775967E-4,-2.408325672E-3,-3.814162686E-3,4.587325471E-3
4.174357833E0,9.672844317E-4,8.974568918E-4,-4.818174988E-3,4.995585878E-3
4.184314833E0,1.664249692E-3,1.094962470E-3,-3.787547350E-3,4.279507539E-3
4.194271833E0,-2.428400330E-4,5.106646568E-4,-2.953711897E-3,3.007351600E-3
4.204228833E0,4.828914534E-4,-1.202337444E-5,-8.657705039E-4,9.914067191E-4
4.214184833E0,6.583938375E-4,1.628217287E-3,2.233084291E-3,2.840992684E-3
4.224141833E0,8.993960219E-4,1.580456272E-3,-1.255406067E-3,2.209705778E-3
4.234098833E0,-1.192516880E-3,7.346356288E-4,1.536119729E-3,2.078809717E-3
4.244055833E0,1.148567768E-3,1.096159220E-3,9.816978127E-4,1.866682498E-3
4.254012833E0,-3.944677301E-4,-5.137221888E-4,8.986070752E-4,1.107704813E-3
4.263969833E0,-1.363857882E-3,4.844581708E-4,4.890058190E-4,1.527722073E-3
4.273926833E0,2.023470588E-4,-2.345151268E-3,-6.500277668E-4,2.441969471E-3
4.283883833E0,2.039026469E-3,1.885490492E-4,-6.172973663E-4,2.138746297E-3
4.293839833E0,-7.514336612E-4,-6.649941206E-4,-1.171547920E-4,1.010245006E-3
4.303796833E0,2.241755603E-3,5.971966311E-4,3.969997168E-3,4.598150662E-3
4.313753833E0,1.397267217E-3,1.623312943E-3,8.897855878E-4,2.319314333E-3
4.323710833E0,-2.234149724E-4,5.710413679E-4,1.333253458E-3,1.467503757E-3
4.333667833E0,8.921832778E-4,1.297019422E-3,3.393741325E-3,3.741086815E-3
4.343624833E0,3.185775131E-5,-1.634015702E-3,2.486119047E-3,2.975199177E-3
4.353581833E0,9.716873756E-4,1.449392177E-3,2.060012892E-3,2.699734645E-3
4.363538833E0,-2.033318859E-3,-3.437958658E-4,2.326406538E-3,3.108817872E-3
4.373494833E0,1.346765086E-3,8.812583983E-4,4.533369094E-3,4.810595379E-3
4.383451833E0,3.034256864E-3,8.189734071E-4,1.046596095E-3,3.312521026E-3
4.393408833E0,1.142080873E-3,9.390823543E-4,2.042884007E-3,2.521824628E-3
4.403365833E0,1.351902494E-3,1.393395476E-3,3.191282973E-3,3.735435492E-3
4.413322833E0,-7.874148432E-4,5.832621828E-4,5.465354770E-3,5.552505711E-3
4.423279833E0,7.732523372E-4,1.367646270E-3,2.196934074E-3,2.700906296E-3
4.433236833E0,-2.667121589E-4,-3.538215533E-4,3.640633076E-3,3.667497003E-3
4.443193833E0,-2.412039321E-3,-1.145685092E-3,2.561770380E-3,3.700431798E-3
4.453149833E0,-8.389102295E-4,7.765842602E-4,2.426216379E-3,2.682047614E-3
4.463106833E0,1.052882290E-4,-1.435991377E-3,1.399867237E-3,2.008179555E-3
4.473063833E0,-5.096357781E-4,-1.407229342E-3,9.696930647E-6,1.496702067E-3
4.483020833E0,-1.122367103E-4,9.010434151E-4,1.118844375E-3,1.440933396E-3
4.492977833E0,-1.594019588E-3,5.937144160E-4,-5.717314780E-4,1.794511671E-3
4.502934833E0,-3.560162149E-4,-4.023723304E-4,-9.504240006E-4,1.091767749E-3
4.512891833E0,-7.182061672E-4,-1.023953781E-3,4.685074091E-4,1.335589995E-3
4.522848833E0,-2.344522625E-3,1.481198706E-3,1.157965511E-3,3.005265391E-3
4.532804833E0,6.486040074E-4,1.213816926E-3,-6.549060345E-5,1.377798137E-3
4.542761833E0,-2.480217954E-3,5.684001371E-4,-5.387328565E-4,2.600921549E-3
4.552718833E0,1.414388651E-3,-3.031660803E-3,-1.557711512E-4,3.348988971E-3
4.562675833E0,-8.727242239E-4,-5.650203675E-4,4.921853542E-4,1.150279101E-3
4.572632833E0,1.404012204E-3,-2.441089600E-4,-3.586951643E-4,1.469524302E-3
4.582589833E0,-8.861022070E-4,-1.002430916E-3,-3.326764330E-3,3.585722489E-3
4.592546833E0,1.343230018E-3,-7.587512955E-4,-5.831755698E-4,1.649261700E-3
4.602503833E0,-3.104186617E-4,-1.430781558E-4,1.108860597E-3,1.160346038E-3
4.612459833E0,1.784690190E-3,-1.056009904E-3,4.342813045E-4,2.118696826E-3
4.622416833E0,-2.016618848E-3,-2.410107292E-3,2.082610503E-3,3.769964886E-3
4.632373833E0,-1.156541985E-4,5.934061483E-4,6.354488432E-4,8.770986163E-4
4.642330833E0,5.154828541E-3,-1.780080609E-3,1.732043922E-3,5.721968229E-3
4.652287833E0,-1.746753696E-3,1.247134060E-3,2.746175975E-3,3.485394428E-3
4.662244833E0,-1.982466085E-3,-1.168044284E-3,1.451438293E-3,2.720509575E-3
4.672201833E0,1.342490548E-3,2.510313876E-3,3.301536664E-3,4.359369332E-3
4.682158833E0,6.792461500E-5,1.055915840E-3,2.676591277E-3,2.878143999E-3
4.692114833E0,2.283941023E-3,1.102266833E-4,9.519048035E-5,2.288579854E-3
4.702071833E0,1.671826118E-3,1.076808199E-3,5.112085491E-4,2.053254160E-3
4.712028833E0,2.427739091E-4,-1.105652191E-3,-1.774583012E-3,2.104887361E-3
4.721985833E0,1.703108544E-3,4.043178633E-4,6.403159350E-4,1.863882010E-3
4.731942833E0,-1.118357759E-4,-2.188536339E-3,-6.917975843E-4,2.297995310E-3
4.741899833E0,-2.023212146E-4,2.456270158E-3,-6.556455046E-4,2.550307431E-3
4.751856833E0,-1.692892518E-3,-1.894003712E-3,7.334593683E-4,2.644068415E-3
4.761813833E0,-4.073267337E-4,1.175757498E-3,4.486236721E-4,1.322718398E-3
4.771769833E0,8.289127145E-4,3.310032189E-4,2.021219581E-3,2.209522124E-3
4.781726833E0,-1.074417960E-4,2.837557346E-3,1.478126273E-3,3.201270483E-3
4.791683833E0,-2.200686140E-3,-1.312713139E-3,1.106614247E-3,2.791205898E-3
4.801640833E0,2.613257384E-4,-4.652114585E-4,4.059517756E-3,4.094434913E-3
4.811597833E0,4.520080984E-4,-9.435154498E-4,1.661341637E-3,1.963310663E-3
4.821554833E0,1.051166211E-3,-1.000864431E-4,4.760595039E-3,4.876292938E-3
4.831511833E0,2.156644361E-3,1.574242488E-3,8.678529412E-4,2.807583131E-3
4.841467833E0,-3.668614663E-4,3.935592249E-4,2.791522071E-3,2.842898463E-3
4.851424833E0,-1.859829528E-3,3.213873133E-4,3.591535613E-3,4.057263085E-3
4.861381833E0,2.485656412E-3,-3.481535241E-4,3.912720829E-3,4.648557084E-3
4.871338833E0,-1.076587709E-3,-1.269075088E-3,2.608571202E-3,3.094226299E-3
4.881295833E0,7.688603364E-5,6.261561066E-4,4.100561142E-3,4.148805203E-3
4.891252833E0,-1.422921196E-4,-5.821194500E-4,1.616630703E-3,1.724124396E-3
4.901209833E0,-1.909921411E-4,7.016211748E-4,1.172257587E-3,1.379470232E-3
4.911166833E0,-5.630357191E-4,1.779402606E-3,1.542435959E-3,2.421237606E-3
4.921122833E0,-4.588547163E-4,-7.185945287E-4,-9.757000953E-4,1.295730073E-3
4.931079833E0,-1.310193911E-4,2.084514126E-4,-5.160383880E-4,5.717636664E-4
4.941036833E0,-2.107014647E-3,2.881285734E-3,5.633775145E-4,3.613684052E-3
4.950993833E0,1.979872352E-3,1.046367921E-3,-2.148251981E-3,3.103186576E-3
4.960950833E0,-5.922981072E-4,6.054239348E-4,9.252075106E-4,1.254338123E-3
4.970907083E0,2.002952155E-3,-8.168630302E-6,-2.394689247E-3,3.121925792E-3
4.980864083E0,-2.446244238E-3,-8.398704231E-4,1.294601709E-3,2.892315125E-3
4.990821083E0,1.452775905E-4,1.072545536E-3,1.858392730E-3,2.150600624E-3
5.000777083E0,6.650004070E-4,-3.997394815E-4,9.437948465E-4,1.221787996E-3
5.010734083E0,9.153375868E-4,9.100027382E-4,2.039685845E-3,2.413765985E-3
5.020691083E0,-3.790855408E-4,1.639477909E-3,9.585879743E-4,1.936616783E-3
5.030648083E0,7.919062627E-4,1.587811857E-3,3.135707229E-4,1.801829243E-3
5.040605083E0,7.239200640E-4,4.173200577E-4,5.899444222E-4,1.022863975E-3
5.050562083E0,5.899630487E-4,-5.965214223E-5,9.816959500E-4,1.146883479E-3
5.060519083E0,-1.877536764E-3,1.132042147E-3,2.542836592E-3,3.357481445E-3
5.070476083E0,-1.699637622E-3,-2.999398857E-4,1.790151000E-4,1.735159470E-3
5.080432083E0,2.058744896E-3,4.811650142E-4,6.922893226E-4,2.224683084E-3
5.090389083E0,7.324906765E-4,-2.466766164E-4,2.232927829E-3,2.362913167E-3
5.100346083E0,-6.181567442E-4,2.197204158E-4,3.343066201E-3,3.406829383E-3
5.110303083E0,-7.787451614E-4,-1.326156780E-4,2.637326717E-3,2.753093380E-3
5.120260083E0,-2.176292939E-3,-1.846240833E-3,2.568893135E-3,3.839800530E-3
5.130217083E0,3.734173952E-4,2.235320397E-3,5.078725517E-4,2.322505620E-3
5.140174083E0,-1.222389285E-3,-1.018024981E-3,8.938815445E-4,1.824728648E-3
5.150131083E0,-1.083106035E-3,2.056594007E-3,-2.840347588E-4,2.341660380E-3
5.160087083E0,-7.582800463E-4,-1.966968179E-3,7.765535265E-4,2.246550205E-3
5.170044083E0,-1.561394893E-4,1.739352942E-3,2.134231851E-3,2.757657300E-3
5.180001083E0,-1.612647902E-4,4.956694320E-4,-1.175329089E-4,5.343299571E-4
5.189958083E0,2.975938842E-3,-7.738592103E-4,3.014078364E-3,4.305779656E-3
5.199915083E0,2.173660323E-4,-2.357130870E-3,1.840185374E-3,2.998265522E-3
5.209872083E0,-1.464952715E-3,-2.348075621E-3,1.851370558E-3,3.329732500E-3
5.219829083E0,1.217058161E-4,2.183708362E-3,2.860073000E-3,3.600473869E-3
5.229786083E0,-3.642405849E-3,-1.023802906E-3,9.921304882E-4,3.911472314E-3
5.239742083E0,9.764896240E-4,1.289407723E-3,-3.708899021E-4,1.659416639E-3
5.249699083E0,-1.714368351E-3,-3.308588639E-4,-1.910729334E-3,2.588322433E-3
5.259656083E0,-5.636310671E-4,-4.182253033E-4,-2.746231854E-3,2.834498506E-3
5.269613083E0,2.568779048E-3,1.575416885E-3,-1.118242741E-3,3.214192120E-3
5.279570083E0,2.606330439E-3,-4.340391606E-4,-8.337330073E-4,2.770642359E-3
5.289527083E0,-8.765514940E-4,6.831567734E-4,-3.807283938E-4,1.174733931E-3
5.299484083E0,2.876926446E-4,-2.871220931E-4,2.149783075E-3,2.187869608E-3
5.309440083E0,-2.150164917E-3,3.960914910E-6,2.573225647E-3,3.353314046E-3
5.319397083E0,-7.427944802E-4,8.582454175E-4,2.249142155E-3,2.519319208E-3
5.329354083E0,-1.222696155E-3,2.992479131E-4,6.557740271E-4,1.419357170E-3
5.339311083E0,-4.795845598E-4,1.755420119E-3,1.061148942E-4,1.822844347E-3
5.349268083E0,9.350865148E-4,1.391366124E-3,1.031830907E-3,1.968492190E-3
5.359225083E0,6.526499055E-5,-6.985040382E-4,1.785911620E-3,1.918762029E-3
5.369182083E0,7.867151871E-4,-2.142203040E-3,3.194190562E-3,3.925660199E-3
5.379139083E0,2.464433899E-3,-4.978273064E-4,2.322588116E-3,3.422817849E-3
5.389095083E0,2.249818062E-4,-2.560121939E-4,3.032853827E-3,3.051943871E-3
5.399052083E0,-6.137997843E-4,8.754525334E-5,-8.529648185E-4,1.054496718E-3
5.409009083E0,-4.761177115E-5,1.271069050E-5,1.283688471E-3,1.284634007E-3
5.418966083E0,9.757815860E-5,1.024595462E-3,7.529277354E-4,1.275232344E-3
5.428923083E0,1.953535248E-3,6.932988763E-4,3.521284088E-3,4.086123460E-3
5.438880083E0,-1.062485389E-4,1.713965088E-3,1.833675429E-3,2.512236186E-3
5.448837083E0,2.263964852E-3,1.291176304E-4,3.745291382E-3,4.378289135E-3
5.458794083E0,1.762970351E-4,-1.220129430E-3,3.994787112E-3,4.180684219E-3
5.468750083E0,8.578000125E-4,1.583113335E-3,2.661608160E-3,3.213444676E-3
5.478707083E0,2.154184040E-4,2.475595102E-4,5.284231156E-4,6.220303762E-4
5.488664083E0,2.127396874E-5,4.528891295E-4,1.828845590E-3,1.884207350E-3
5.498621083E0,5.846385611E-4,-1.238826662E-3,5.822703242E-4,1.488466485E-3
5.508578083E0,-1.320853131E-3,3.103191964E-3,4.150107503E-3,5.347695358E-3
5.518535083E0,1.661137212E-3,-2.141863108E-3,1.679003239E-3,3.188417520E-3
5.528492083E0,1.869396423E-3,-8.726008236E-4,3.247870132E-3,3.847692241E-3
5.538449083E0,9.894672548E-4,-1.159274019E-3,1.409424469E-3,2.075918841E-3
5.548405083E0,2.059258986E-3,6.319684908E-4,2.153510228E-3,3.045905128E-3
5.558362083E0,-4.081244115E-4,-1.016256399E-3,6.184317172E-4,1.257696463E-3
5.568319083E0,6.065400084E-4,-1.352612861E-3,-2.214638516E-3,2.664972062E-3
5.578276083E0,1.394311665E-3,5.449252203E-4,-1.553326845E-3,2.157283663E-3
5.588233083E0,-7.250318304E-4,-2.929046750E-4,-2.758938819E-3,2.867613592E-3
5.598190083E0,-4.407041706E-4,-1.846114174E-4,-8.518565446E-4,9.767093293E-4
5.608147083E0,2.216331661E-3,9.858487174E-4,-7.421337068E-5,2.426835666E-3
5.618104083E0,-6.489981897E-4,1.111250371E-3,1.277625561E-4,1.293212785E-3
5.628060083E0,-1.916056499E-5,-6.478279829E-6,3.344248980E-4,3.350359798E-4
5.638017083E0,3.321862314E-3,1.205009408E-3,-2.522492781E-3,4.341634109E-3
5.647974083E0,1.546332845E-3,-1.577993855E-3,1.059990376E-3,2.450467195E-3
5.657931083E0,-4.036985338E-4,6.053168327E-4,-3.842096776E-4,8.227989125E-4
5.667888083E0,-5.158174317E-4,-2.077285200E-3,1.313023269E-3,2.511018027E-3
5.677845083E0,-1.524332445E-3,1.089113764E-3,-2.576336265E-4,1.891066704E-3
5.687802083E0,-2.116353018E-3,-1.090683974E-3,-3.934539855E-4,2.413161343E-3
5.697759083E0,1.735965721E-3,-2.338524908E-3,-2.004044130E-3,3.535317328E-3
5.707715083E0,-6.065508351E-4,1.411206089E-3,-1.020004973E-3,1.843859183E-3
5.717672083E0,9.363340214E-4,5.649616942E-4,3.962684423E-4,1.163155963E-3
5.727629083E0,-1.631219639E-3,8.027823642E-4,8.018687367E-4,1.987040640E-3
5.737586083E0,3.543669591E-4,-2.416154370E-3,1.076813787E-3,2.668877257E-3
5.747543083E0,-1.398792025E-3,-7.191877812E-4,3.399178386E-4,1.609159510E-3
5.757500083E0,-7.541188970E-4,-2.310350537E-4,2.100637183E-3,2.243824654E-3
5.767457083E0,-7.645052392E-4,1.366329379E-3,-8.309707046E-4,1.772522650E-3
5.777414083E0,-1.823092112E-3,2.778749913E-4,-4.645362496E-4,1.901755318E-3
5.787370083E0,-1.157301711E-3,-1.684706658E-4,-6.381738931E-4,1.332289583E-3
5.797327083E0,1.122762798E-3,1.393007115E-4,5.549173802E-4,1.260132647E-3
5.807284083E0,1.180286985E-3,-2.266177908E-4,1.868654042E-3,2.221778774E-3
5.817241083E0,-2.033561701E-3,-1.329063438E-3,1.583596691E-3,2.899924360E-3
5.827198083E0,8.988449117E-4,-3.873696551E-4,-6.063841283E-5,9.806398126E-4
5.837155083E0,2.608030336E-4,6.958013400E-4,3.426313400E-3,3.505963668E-3
5.847112083E0,-1.010856358E-3,-4.387060180E-4,1.473950222E-3,1.840332254E-3
5.857068083E0,-1.957388362E-3,5.726469681E-4,1.746760681E-3,2.685231206E-3
5.867025083E0,8.245498175E-4,-1.346959732E-3,2.299366519E-3,2.789492662E-3
5.876982083E0,3.160336055E-3,7.393723354E-4,4.040729254E-3,5.182845583E-3
5.886939083E0,-1.115102787E-3,-2.065203153E-3,1.220708713E-3,2.645495804E-3
5.896896083E0,7.436904125E-4,1.469879411E-3,3.170730546E-3,3.573115323E-3
5.906853083E0,6.403598236E-4,3.268504515E-4,2.462862059E-3,2.565654194E-3
5.916810083E0,1.725451788E-3,1.487046480E-3,1.060124487E-3,2.512440056E-3
5.926767083E0,-2.672225935E-3,1.879862510E-3,2.655625343E-3,4.210346835E-3
5.936723083E0,4.983682884E-4,-8.796490729E-4,1.418264583E-3,1.741731285E-3
5.946680083E0,8.616234409E-4,-2.636592835E-4,-9.828414768E-4,1.333374869E-3
5.956637083E0,-9.500638116E-4,1.696720719E-4,-2.027630806E-3,2.245594920E-3
5.966594083E0,-1.743419562E-3,7.643559948E-4,-1.792740077E-3,2.614893657E-3
5.976551083E0,2.155515365E-3,1.916289330E-5,5.435571074E-4,2.223076255E-3
5.986508083E0,1.019144664E-3,4.978943616E-5,5.491487682E-4,1.158748982E-3
5.996465083E0,-3.039258532E-3,-4.455074668E-5,1.531584188E-3,3.403649118E-3
6.006422083E0,4.734529648E-5,2.547884360E-4,1.741174608E-3,1.760354436E-3
6.016378083E0,-9.511454264E-4,1.065755263E-3,6.398856640E-4,1.565236585E-3
6.026335083E0,2.862501191E-3,2.554462291E-3,1.785576344E-3,4.231722291E-3
6.036292083E0,-1.433990896E-3,1.783497632E-3,3.157500178E-3,3.899615502E-3
6.046249083E0,-2.473955043E-3,-2.324960195E-3,1.828849316E-3,3.856239526E-3
6.056206083E0,-1.111160498E-3,8.233888075E-4,4.593459889E-3,4.797136702E-3
6.066163083E0,-3.460601205E-3,-2.685068175E-4,1.576097682E-3,3.812078241E-3
6.076120083E0,-6.553052226E-4,-3.184555098E-4,2.024425194E-3,2.151542751E-3
6.086077083E0,1.856588176E-3,2.834993415E-3,2.137077972E-3,4.006396083E-3
6.096033083E0,2.102138242E-3,-3.150264733E-3,2.575479448E-3,4.579983347E-3
6.105990083E0,-1.657712623E-3,-3.326404840E-4,9.759850800E-4,1.952231469E-3
6.115947083E0,-8.888292359E-4,4.098471254E-4,1.752942801E-3,2.007685368E-3
6.125904083E0,-4.358661827E-3,7.065236568E-4,2.671200782E-3,5.160661025E-3
6.135861083E0,-1.208200585E-3,8.627846837E-4,2.720279619E-3,3.099042960E-3
6.145818083E0,-1.787970774E-3,1.410597004E-3,-3.399569541E-4,2.302649371E-3
6.155775083E0,-6.212058943E-4,-1.535991207E-3,-3.728363663E-4,1.698285225E-3
6.165732083E0,-2.235961147E-4,2.661701292E-4,1.681258902E-3,1.716820682E-3
6.175688083E0,-8.549202466E-4,-1.312477514E-3,1.907452941E-3,2.468169884E-3
6.185645083E0,2.874037717E-3,-5.100676790E-4,-9.868722409E-4,3.081262510E-3
6.195602083E0,-4.724881146E-4,-4.007168114E-3,-6.385520101E-5,4.035432914E-3
6.205559083E0,-2.304066438E-4,-6.153667346E-4,1.680780202E-3,1.804656623E-3
6.215516083E0,7.047383115E-4,-4.040738568E-4,-4.528854042E-4,9.300736308E-4
6.225473083E0,-1.426855801E-3,-1.697149128E-4,-4.672668874E-4,1.510979474E-3
6.235430083E0,-5.915007787E-4,1.149920747E-3,-1.314837486E-3,1.844176919E-3
6.245387083E0,2.465959406E-4,-1.024017110E-3,1.535810530E-3,1.862292830E-3
6.255343083E0,3.698745277E-4,1.110959798E-3,-7.313750684E-4,1.380560875E-3
6.265300083E0,1.062829047E-3,8.779326454E-4,-3.745127469E-4,1.428506602E-3
6.275257083E0,-2.003532602E-3,2.086721361E-5,1.149103045E-4,2.006933657E-3
6.285214083E0,-1.101253787E-3,2.064043656E-3,8.800365031E-4,2.499500023E-3
6.295171083E0,2.908819588E-4,-1.058494672E-3,-9.474661201E-4,1.450074251E-3
6.305128083E0,-1.421530731E-3,4.712250084E-4,1.654708758E-3,2.231784869E-3
6.315085083E0,-1.123295515E-3,3.250148147E-4,3.250315785E-4,1.213702175E-3
6.325042083E0,2.884460846E-4,-1.219885424E-3,8.880253881E-4,1.536200078E-3
6.334998083E0,-2.935447264E-5,2.092405222E-3,1.219633967E-3,2.422091723E-3
6.344955083E0,-1.812873292E-3,-1.212577336E-3,1.176491380E-3,2.478101155E-3
6.354912083E0,3.458764404E-4,-5.455641076E-4,1.152697951E-3,1.321356603E-3
6.364869083E0,-1.406483469E-3,2.328772098E-4,1.421676949E-3,2.013353642E-3
6.374826083E0,6.056952989E-4,-1.344494522E-4,2.083409578E-3,2.173830471E-3
6.384783083E0,-4.726187326E-4,1.568999141E-4,1.492986456E-3,1.573847072E-3
6.394740083E0,1.417211257E-3,-1.677885652E-3,2.559758723E-4,2.211178793E-3
6.404697083E0,-6.826913450E-4,1.961324364E-3,2.086101100E-3,2.943582602E-3
6.414653083E0,1.071428298E-3,-1.034813002E-3,1.107554883E-3,1.856198902E-3
6.424610083E0,1.938287169E-3,1.653115265E-3,5.536172539E-4,2.606959780E-3
6.434567083E0,-1.439142623E-3,9.965412319E-4,3.785572946E-3,4.170705989E-3
6.444524083E0,5.414502230E-4,-1.636260189E-3,9.607579559E-4,1.973213521E-3
6.454481083E0,-1.349984086E-3,5.002822727E-4,1.433247700E-3,2.031486735E-3
6.464438083E0,-3.464533947E-3,-7.745735347E-4,2.691857517E-3,4.455227999E-3
6.474395083E0,-4.233572399E-4,-9.601851925E-4,1.947768033E-4,1.067297971E-3
6.484352083E0,-3.722243709E-4,-2.245160751E-3,1.951664686E-3,2.998048170E-3
6.494308083E0,9.458840359E-4,-1.048909500E-3,2.239858732E-3,2.647994503E-3
6.504265083E0,-9.311119793E-4,9.098453447E-4,1.128787175E-3,1.723063712E-3
6.514222083E0,-1.801265986E-3,7.257610559E-5,5.213027820E-3,5.515930157E-3
6.524179083E0,-1.394601422E-3,-7.980111986E-4,3.011925146E-3,3.413711775E-3
6.534136083E0,-1.488655689E-3,4.561580718E-4,1.934207976E-3,2.483009553E-3
6.544093083E0,-1.984003466E-3,1.629280858E-3,5.753979087E-3,6.300722276E-3
6.554050083E0,4.003678914E-4,-7.054256275E-4,4.161223769E-4,9.116345743E-4
6.564006083E0,-6.648409180E-5,-7.219370455E-4,3.953067586E-3,4.018999449E-3
6.573963083E0,-1.202954445E-4,1.327646896E-3,2.174451947E-5,1.333262952E-3
6.583920083E0,1.079192269E-3,-1.675066538E-3,3.658557311E-3,4.165998734E-3
6.593877083E0,2.366253175E-4,5.893912166E-4,2.097073942E-3,2.191139582E-3
6.603834083E0,9.543471970E-4,-1.169892959E-3,3.774706274E-4,1.556249396E-3
6.613791083E0,-1.491933363E-3,1.712824218E-3,5.592206493E-3,6.035926227E-3
6.623748083E0,2.881236142E-4,-1.142084599E-3,4.475543275E-3,4.627943394E-3
6.633705083E0,1.132042380E-4,1.381793059E-3,2.622291446E-3,2.966239991E-3
6.643661083E0,3.851129441E-4,5.351742730E-4,2.057168633E-3,2.160246807E-3
6.653618083E0,3.135164734E-4,3.842851147E-4,3.792028874E-4,6.243095853E-4
6.663575083E0,-5.749140400E-4,4.792772233E-5,-6.301347166E-4,8.543377442E-4
6.673532083E0,1.581620891E-4,9.359819815E-4,2.461858094E-5,9.495702136E-4
6.683489083E0,-4.871217534E-4,6.254576147E-4,1.282429323E-3,1.507683587E-3
6.693446083E0,-1.299205469E-4,1.584924757E-5,1.270504668E-3,1.277228507E-3
6.703403083E0,8.589113131E-4,4.329001531E-4,3.154948354E-4,1.012258948E-3
6.713360083E0,-2.003916306E-3,7.559908554E-4,-1.026540995E-4,2.144234269E-3
6.723316083E0,-9.112216067E-4,9.844079614E-7,2.169255167E-4,9.366869623E-4
6.733273083E0,3.970069811E-4,-4.111891612E-4,-7.663909346E-4,9.560575997E-4
6.743230083E0,2.430762397E-4,-8.825687692E-4,-3.634542227E-4,9.849429743E-4
6.753187083E0,6.781369448E-4,5.644457415E-4,2.383183688E-3,2.541266063E-3
6.763144083E0,6.800680421E-5,9.833611548E-4,-1.155359671E-3,1.518709997E-3
6.773101083E0,-1.605024096E-3,-3.029312938E-5,1.232178882E-3,2.023681007E-3
6.783058083E0,-1.515808050E-3,7.864981890E-4,2.396248281E-3,2.942492017E-3
6.793015083E0,6.317747757E-4,1.827497035E-3,2.231450751E-3,2.952669510E-3
6.802971083E0,-6.425478496E-4,6.555020809E-5,8.540637791E-4,1.070789198E-3
6.812928083E0,3.054173663E-3,-1.491773874E-3,-7.426049560E-4,3.479199358E-3
6.822885083E0,5.446769064E-4,1.534376293E-3,5.327835679E-4,1.713138019E-3
6.832842083E0,-4.319292493E-4,1.754526049E-3,-1.759389415E-3,2.521978518E-3
6.842799083E0,-2.891838085E-4,-8.982485160E-4,-1.008111984E-3,1.380857503E-3
6.852756083E0,1.270040637E-3,-7.107947022E-4,-1.827009022E-3,2.335849802E-3
6.862713083E0,-2.177687827E-3,1.327322796E-3,4.340149462E-4,2.586982615E-3
6.872670083E0,5.200466840E-4,-8.291788399E-4,1.876549795E-3,2.116465269E-3
6.882626083E0,3.551970003E-4,2.712393180E-4,1.482667401E-3,1.548560073E-3
6.892583083E0,5.974826636E-4,-9.394753724E-4,-4.374142736E-4,1.196215179E-3
6.902540083E0,-1.276583644E-3,9.063538164E-5,-1.359133050E-3,1.866848472E-3
6.912497083E0,1.922857948E-3,6.134556606E-4,-4.845522344E-4,2.075692993E-3
6.922454083E0,8.357556071E-4,1.604150981E-3,1.106953248E-3,2.120644548E-3
6.932411083E0,1.048217295E-3,-2.226680517E-3,5.554296076E-4,2.522968028E-3
6.942368083E0,-3.558013123E-4,-1.153692603E-3,-4.174225032E-4,1.277436003E-3
6.952325083E0,5.469918251E-4,1.235782169E-3,1.755382866E-3,2.215338943E-3
6.962281083E0,-9.667489212E-4,4.823748022E-4,1.736208797E-3,2.044922960E-3
6.972238417E0,5.426168209E-4,-6.927074865E-4,1.610539854E-3,1.835242571E-3
6.982195417E0,-6.078688893E-4,4.551149905E-4,2.190396190E-4,7.903243612E-4
6.992152417E0,-7.361297030E-4,-3.274157643E-5,-6.091799587E-4,9.560644186E-4
7.002109417E0,-8.695540018E-4,-3.595119342E-4,1.128036529E-4,9.476801449E-4
7.012066417E0,-8.556433022E-5,-2.016319893E-3,-8.853673935E-4,2.203801849E-3
7.022023417E0,-1.401432324E-3,-9.105755016E-4,6.454177201E-4,1.791570355E-3
7.031980417E0,6.127289962E-4,4.260856658E-4,4.851128906E-4,8.901237746E-4
7.041936417E0,-4.197785165E-4,-9.398497641E-4,5.748607218E-4,1.178981099E-3
7.051893417E0,4.373109899E-3,8.782222867E-4,-7.207132876E-5,4.461004243E-3
7.061850417E0,4.462791840E-4,2.198884264E-3,1.344731078E-3,2.615828508E-3
7.071807417E0,-2.042769687E-3,2.552533522E-3,1.997513697E-3,3.831239531E-3
7.081764417E0,4.438237520E-4,-5.061067641E-4,1.405760646E-3,1.558616878E-3
7.091721417E0,5.902918056E-4,4.205023870E-4,3.617292270E-3,3.689182842E-3
7.101678417E0,5.434202030E-4,-1.879937015E-3,2.966415137E-3,3.553742740E-3
7.111635417E0,-1.317494316E-3,-1.888188533E-3,2.972988412E-3,3.760280217E-3
7.121591417E0,-5.345249083E-4,1.195219345E-3,2.307729796E-3,2.653277779E-3
7.131548417E0,4.058622289E-5,1.715511084E-3,3.975817934E-3,4.330329521E-3
7.141505417E0,-3.610185813E-4,-2.435557544E-3,5.531236529E-4,2.523533385E-3
7.151462417E0,5.433683982E-4,7.258681580E-4,1.529613510E-3,1.778159523E-3
7.161419417E0,-8.127132896E-4,-9.940015152E-4,2.262780443E-3,2.601675851E-3
7.171376417E0,2.029345836E-3,-1.239560544E-3,1.471040770E-3,2.796196670E-3
7.181333417E0,-7.493963931E-4,-7.300982252E-4,5.759522319E-4,1.194302870E-3
7.191290417E0,5.540036364E-4,1.952751540E-3,1.014111564E-3,2.269048450E-3
7.201246417E0,4.871583078E-4,1.040618867E-3,1.232489944E-3,1.685005135E-3
7.211203417E0,3.330599982E-3,1.592319459E-4,1.999530941E-3,3.887978271E-3
7.221160417E0,6.400084822E-4,3.917263821E-4,1.008301973E-3,1.256874411E-3
7.231117417E0,1.105966046E-3,1.610303298E-4,-4.167854786E-4,1.192812558E-3
7.241074417E0,-9.619784541E-4,-2.191872336E-3,5.174521357E-4,2.448971947E-3
7.251031417E0,-4.178504460E-3,-1.196693629E-3,-1.383759081E-4,4.348692108E-3
7.260988417E0,-6.807083264E-4,8.699186146E-4,5.250182003E-4,1.223015263E-3
7.270945417E0,1.447597402E-3,1.343440264E-3,2.828650177E-3,3.449874172E-3
7.280901417E0,1.153584337E-3,1.436863095E-4,6.118342280E-4,1.313675645E-3
7.290858417E0,-5.884948187E-4,1.441589557E-3,3.624165431E-3,3.944500180E-3
7.300815417E0,-1.646302408E-3,2.144130878E-3,1.731723547E-3,3.210369960E-3
7.310772417E0,-4.681656137E-4,4.059532657E-4,2.530308440E-3,2.605079250E-3
7.320729417E0,2.178646391E-4,1.322346739E-3,1.673836261E-3,2.144246658E-3
7.330686417E0,-4.246055149E-3,1.048481092E-3,8.892640471E-5,4.374494809E-3
7.340643417E0,-1.759461593E-4,1.696376130E-4,1.351531595E-3,1.373452447E-3
7.350600417E0,-4.687567707E-4,-1.059678383E-3,2.144221216E-4,1.178400625E-3
7.360556417E0,-9.140372276E-4,4.481028765E-3,-1.079075038E-3,4.698881334E-3
7.370513417E0,3.356981324E-4,1.090569422E-3,3.601491451E-3,3.777932712E-3
7.380470417E0,5.825731205E-4,-2.372338437E-3,2.876313403E-3,3.773666638E-3
7.390427417E0,-7.327503990E-4,3.958065063E-4,-3.626048565E-4,9.083326591E-4
7.400384417E0,1.817791490E-4,-1.072641462E-4,-1.060353592E-3,1.081156324E-3
7.410341417E0,8.264522767E-4,1.428187825E-3,6.633307785E-4,1.778412649E-3
7.420298417E0,-5.565274041E-4,-1.802492887E-3,-8.317679167E-4,2.061684075E-3
7.430255417E0,-2.336434554E-4,1.321030781E-3,4.113875329E-4,1.403193248E-3
7.440211417E0,-1.481559593E-4,-6.153536960E-4,-6.398744881E-5,6.361640929E-4
7.450168417E0,-2.664575819E-3,-3.847898915E-4,1.189511269E-3,2.943291459E-3
7.460125417E0,-1.708500786E-3,7.768813521E-4,2.674490213E-3,3.267325737E-3
7.470082417E0,1.187502057E-3,1.796308905E-3,-1.129694283E-4,2.156304457E-3
7.480039417E0,-2.289787401E-3,-8.042063564E-5,-1.265518367E-4,2.294691523E-3
7.489996417E0,-1.422280213E-3,-2.112336457E-3,-3.470517695E-4,2.570076116E-3
7.499953417E0,-5.155126564E-5,-1.644153148E-3,-1.330556348E-3,2.115721461E-3
7.509910417E0,9.352935012E-5,1.102725975E-3,-2.144327387E-3,2.413066982E-3
7.519866417E0,1.902020304E-4,-7.929122075E-4,-1.465221867E-3,1.676830850E-3
7.529823417E0,-3.210015129E-4,3.380235285E-5,4.793871194E-4,5.779243728E-4
7.539780417E0,4.624831490E-5,6.657708436E-4,-1.280428842E-3,1.443914035E-3
7.549737417E0,-4.183242563E-4,-3.564655781E-4,-3.303829581E-4,6.412610941E-4
7.559694417E0,-8.319129702E-4,-1.647565514E-3,5.663037300E-4,1.930609030E-3
7.569651417E0,-2.772980370E-4,-7.336214185E-5,1.645648852E-3,1.670459921E-3
7.579608417E0,-5.436141510E-4,2.520556562E-3,1.410758123E-3,2.939210814E-3
7.589565417E0,-1.601188211E-3,1.284320839E-3,2.660974860E-4,2.069804719E-3
7.599521417E0,-1.882151701E-3,-5.780272186E-4,1.715390012E-3,2.611354702E-3
7.609478417E0,-4.506621044E-4,3.092577681E-4,1.369751990E-3,1.474773614E-3
7.619435417E0,8.999370039E-6,-4.225783050E-4,-1.282766461E-4,4.417106637E-4
7.629392417E0,8.614850231E-5,9.906729683E-4,1.416580752E-3,1.730767321E-3
7.639349417E0,-2.013753867E-3,5.888016894E-4,1.108985394E-3,2.373128878E-3
7.649306417E0,-4.223361611E-5,-2.630399540E-4,7.019359618E-4,7.507914426E-4
7.659263417E0,-1.623352291E-3,4.775170237E-5,1.307537779E-3,2.084995906E-3
7.669220417E0,-8.617015556E-4,3.704577684E-4,1.767873764E-4,9.544748847E-4
7.679176417E0,-1.650184859E-4,1.205359586E-3,1.327805221E-3,1.800885764E-3
7.689133417E0,-3.347385209E-4,3.676526248E-4,1.143809408E-3,1.247204190E-3
7.699090417E0,2.187541220E-3,1.171127893E-3,1.611039042E-4,2.486530032E-3
7.709047417E0,-1.245076070E-3,2.002635039E-3,1.412816346E-3,2.748965541E-3
7.719004417E0,8.955727099E-4,-1.420858316E-3,2.168888226E-3,2.743166960E-3
7.728961417E0,-9.190521669E-4,-1.614077948E-3,1.787612215E-3,2.577879349E-3
7.738918417E0,-7.909541018E-4,1.894151792E-4,1.029942185E-3,1.312351860E-3
7.748875417E0,-1.248670742E-5,5.882596597E-4,-2.635791898E-4,6.447319865E-4
7.758831417E0,-2.729710191E-3,1.741386950E-4,-6.468072534E-4,2.810694156E-3
7.768788417E0,-4.120480735E-4,-4.186490551E-4,-1.757089049E-3,1.852677136E-3
7.778745417E0,-8.402843960E-4,5.233110860E-4,-1.357348636E-3,1.679978475E-3
7.788702417E0,9.406034369E-4,1.148009673E-3,4.231184721E-4,1.543272586E-3
7.798659417E0,4.923935048E-4,-2.677887678E-3,2.394124866E-3,3.625654100E-3
7.808616417E0,-1.681125257E-3,-2.469969913E-4,3.562718630E-4,1.736121909E-3
7.818573417E0,1.084301271E-3,-1.081897877E-3,2.978952602E-3,3.349682204E-3
7.828530417E0,3.202409716E-4,-2.049161121E-4,3.520162776E-3,3.540634246E-3
7.838486417E0,-3.636950161E-3,-2.792188898E-4,2.880470827E-3,4.647847012E-3
7.848443417E0,2.051916672E-3,7.856991142E-4,3.588423133E-4,2.226309263E-3
7.858400417E0,-8.019267116E-4,2.350306138E-3,8.248966187E-4,2.616768967E-3
7.868357417E0,-2.789350692E-4,1.320854761E-3,5.691312253E-5,1.351185100E-3
7.878314417E0,-1.882157987E-3,1.401281916E-3,2.203954384E-3,3.219242864E-3
7.888271417E0,1.536738244E-3,1.187180169E-3,-1.001900062E-3,2.185123548E-3
7.898228417E0,-5.826053675E-4,1.267074607E-3,2.554485574E-3,2.910378605E-3
7.908185417E0,2.412726171E-4,-2.104069106E-3,6.104055792E-4,2.204067660E-3
7.918141417E0,2.319515916E-4,-1.128818840E-3,-4.348848015E-4,1.231729802E-3
7.928098417E0,-2.176306443E-3,-1.895092428E-3,2.215150744E-4,2.894262250E-3
7.938055417E0,-3.062339732E-3,-9.842915460E-4,-1.999028027E-3,3.787197848E-3
7.948012417E0,-1.587287989E-4,-1.437271945E-3,-1.355856657E-4,1.452352901E-3
7.957969417E0,5.043982528E-4,-1.222888008E-3,2.070045099E-3,2.456615433E-3
7.967926417E0,2.327770228E-3,-3.577666357E-4,1.447930932E-3,2.764600366E-3
7.977882917E0,-4.072962329E-4,-3.124931827E-4,2.806670964E-4,5.850779688E-4
7.987839917E0,3.740272950E-5,-9.965151548E-5,-1.005798578E-3,1.011414934E-3
7.997795917E0,1.027832273E-3,3.168580122E-3,1.058684662E-3,3.495304334E-3
8.007752917E0,-7.273815572E-4,-1.516739838E-3,1.117350534E-3,2.019419689E-3
8.017709917E0,1.065192278E-3,-9.620934725E-5,2.554925159E-3,2.769753309E-3
8.027666917E0,-4.220625851E-4,-7.400624454E-4,2.003088593E-3,2.176739112E-3
8.037623917E0,-7.360493764E-4,-7.230173796E-4,-3.764443099E-4,1.098286454E-3
8.047580917E0,-2.398824785E-3,-2.386959270E-3,1.589702442E-3,3.738861960E-3
8.057537917E0,1.663560979E-3,1.250918955E-3,1.121785492E-3,2.364452590E-3
8.067494917E0,-1.531867543E-3,1.341204159E-3,1.833066344E-4,2.044272019E-3
8.077450917E0,-6.206892431E-5,2.724770457E-4,1.456830651E-3,1.483392004E-3
8.087407917E0,-8.626077324E-4,1.627439633E-4,1.021627337E-3,1.346959581E-3
8.097364917E0,-3.315734211E-4,6.461078301E-4,-4.833266139E-4,8.723536424E-4
8.107321917E0,3.334832145E-4,-4.366971552E-5,9.390339255E-5,3.491932782E-4
8.117278917E0,2.112440998E-4,-6.210431457E-4,1.478746533E-3,1.617717518E-3
8.127235917E0,1.652626554E-3,3.351774067E-4,1.272631809E-3,2.112607427E-3
8.137192917E0,-1.223701984E-4,-6.560515612E-4,-1.077340916E-3,1.267296952E-3
8.147149917E0,-5.025498103E-4,-1.766340807E-3,1.375460997E-3,2.294430019E-3
8.157105917E0,2.780227223E-4,1.657819375E-4,-1.489033923E-3,1.523811769E-3
8.167062917E0,-1.966899727E-3,-6.313994527E-4,3.955084831E-4,2.103280001E-3
8.177019917E0,3.569745459E-4,1.548130997E-3,1.523090526E-3,2.200896445E-3
8.186976917E0,-1.920560841E-3,1.002000645E-3,2.016764134E-3,2.959712285E-3
8.196933917E0,-2.326426562E-3,-2.158628777E-4,1.857772470E-3,2.984991772E-3
8.206890917E0,1.195182092E-3,1.077839173E-3,-5.223639309E-4,1.692058390E-3
8.216847917E0,2.691079630E-3,-1.177858561E-3,1.506166533E-3,3.301181302E-3
8.226804917E0,1.120200148E-3,5.321865901E-4,1.997455955E-3,2.351148917E-3
8.236760917E0,-5.021975376E-4,-8.180364966E-4,2.770839259E-3,2.932394291E-3
8.246717917E0,1.055037021E-3,-1.279165968E-3,8.544009179E-4,1.865306843E-3
8.256674917E0,-1.912256936E-3,-1.466119662E-3,2.405691892E-3,3.404935672E-3
8.266631917E0,1.177952392E-3,-1.498660073E-3,1.598149538E-3,2.487495889E-3
8.276588917E0,-1.088131219E-3,-1.330082305E-3,7.094517350E-4,1.859158479E-3
8.286545917E0,-1.122521702E-3,3.089348786E-3,2.881458029E-3,4.371147591E-3
8.296502917E0,2.096973592E-3,-1.376240514E-3,-1.349240541E-3,2.848119773E-3
8.306459917E0,-6.726814900E-4,5.082022399E-4,2.439277247E-3,2.580860978E-3
8.316415917E0,-7.536415942E-4,1.332717016E-3,-1.690486446E-3,2.280757489E-3
8.326372917E0,-2.882068511E-4,-4.477966577E-4,1.431468874E-3,1.527314039E-3
8.336329917E0,-1.921257004E-3,7.277224213E-4,2.761984244E-3,3.442290714E-3
8.346286917E0,1.969374018E-3,-1.288978383E-4,2.578115091E-3,3.246802442E-3
8.356243917E0,2.800546587E-3,-9.640771896E-5,1.093633473E-4,2.804338776E-3
8.366200917E0,6.314204074E-4,7.999390364E-4,1.324988902E-3,1.671583017E-3
8.376157917E0,5.115781678E-4,-1.364146359E-3,1.664008945E-3,2.211681098E-3
8.386114917E0,1.670753933E-3,7.585072890E-4,1.220036298E-3,2.203461046E-3
8.396070917E0,4.076166078E-4,-2.090185881E-4,1.197399572E-3,1.282031904E-3
8.406027917E0,4.167021252E-4,2.680536360E-3,8.043125272E-4,2.829458336E-3
8.415984917E0,7.586519932E-4,-2.577342093E-3,7.274188101E-5,2.687663761E-3
8.425941917E0,1.161734341E-3,1.477085985E-3,6.978213787E-4,2.004585833E-3
8.435898917E0,-1.116599888E-3,-4.023071378E-4,1.906098798E-3,2.245408419E-3
8.445855917E0,-2.915536985E-3,4.749884829E-4,-1.484742388E-3,3.306120072E-3
8.455812917E0,1.099977177E-3,1.777792349E-4,-4.900507629E-4,1.217253053E-3
8.465769917E0,-2.925107721E-3,1.713630743E-3,1.362040639E-4,3.392836137E-3
8.475725917E0,4.525793483E-4,-5.468605086E-4,1.828642562E-3,1.961585609E-3
8.485682917E0,1.422721078E-3,3.976933658E-4,-1.492481679E-4,1.484779544E-3
8.495639917E0,6.583938375E-4,1.159356907E-3,3.317184746E-4,1.373909760E-3
8.505596917E0,-9.814433288E-4,7.509719580E-5,-3.530625254E-4,1.045716856E-3
8.515553917E0,1.342430944E-3,-4.287725314E-4,6.996095181E-6,1.409260681E-3
8.525510917E0,8.261005860E-4,1.322315075E-3,-1.341633499E-3,2.056924836E-3
8.535467917E0,-3.940691240E-3,-1.749144867E-4,3.114633262E-3,5.025990737E-3
8.545424917E0,2.390183276E-3,-1.948767342E-3,2.739807591E-3,4.125192829E-3
8.555380917E0,7.981456583E-4,3.026283346E-3,3.421843052E-3,4.637287705E-3
8.565337917E0,-3.632879816E-5,-3.093192354E-4,3.489643335E-3,3.503513776E-3
8.575294917E0,7.128184661E-4,2.318421379E-3,4.981812090E-3,5.540906023E-3
8.585251917E0,-1.473766286E-3,-1.832149923E-3,4.024749622E-3,4.661262696E-3
8.595208917E0,5.307949614E-4,-2.487819642E-3,2.757085487E-3,3.751334462E-3
8.605165917E0,-2.013805788E-3,-3.409879282E-4,6.637442857E-3,6.944590283E-3
8.615122917E0,-5.224358756E-4,-1.312509179E-3,4.269894212E-3,4.497512221E-3
8.625079917E0,1.278990880E-3,-5.287323147E-4,2.569837496E-3,2.918808025E-3
8.635035917E0,3.974846331E-4,8.617034182E-4,2.560516819E-3,2.730709285E-3
8.644992917E0,-1.952881226E-3,6.610192358E-4,3.438159823E-3,4.008944311E-3
8.654949917E0,-1.585365040E-3,-4.508504644E-4,-1.187566668E-4,1.652498592E-3
8.664906917E0,1.564117847E-4,-1.057932153E-3,-1.375302672E-4,1.078239149E-3
8.674863917E0,7.007619133E-4,7.332302630E-6,1.429002732E-4,7.152213014E-4
8.684820917E0,1.695029438E-3,6.481073797E-6,1.030588523E-3,1.983753891E-3
8.694777917E0,8.145883912E-4,-1.274232753E-3,-1.054134220E-3,1.843481030E-3
8.704734917E0,-1.122865826E-3,4.786960781E-4,1.990543678E-3,2.335003583E-3
8.714690917E0,-7.998244837E-4,1.024643891E-3,7.638931274E-4,1.507695930E-3
8.724647917E0,4.074072465E-3,-9.545516223E-4,-2.449342981E-3,4.848558166E-3
8.734604917E0,1.139535569E-3,1.040548086E-4,2.317182720E-3,2.584318957E-3
8.744561917E0,7.128315046E-4,-1.512724906E-3,3.296360373E-4,1.704442816E-3
8.754518917E0,-3.353888169E-4,2.471630462E-3,2.395981923E-3,3.458637329E-3
8.764475917E0,-2.444565529E-3,3.055427223E-4,2.232581377E-3,3.324706992E-3
8.774432917E0,1.605835976E-3,9.777247906E-4,3.489060327E-3,3.963356774E-3
8.784389917E0,5.953311920E-4,4.160376266E-4,1.993102953E-3,2.121312310E-3
8.794345917E0,4.403352505E-4,1.279967837E-3,1.116923988E-3,1.754916520E-3
8.804302917E0,6.263755495E-4,-9.822165594E-4,5.037838593E-3,5.170774931E-3
8.814259917E0,7.707189070E-4,-1.188199967E-4,4.140885547E-3,4.213675229E-3
8.824216917E0,-1.777407946E-3,-5.169324577E-4,5.649011582E-3,5.944554653E-3
8.834173917E0,-7.496939506E-4,1.341155730E-3,5.701206625E-3,5.904616557E-3
8.844130917E0,2.868156647E-3,-3.590341657E-5,7.605949417E-3,8.128842362E-3
8.854087917E0,1.911549130E-3,8.088508621E-4,5.603255704E-3,5.975343863E-3
8.864044917E0,-5.018280353E-4,8.455291390E-4,9.178005159E-3,9.230521632E-3
8.874000917E0,5.482563283E-4,1.727036200E-3,8.502628654E-3,8.693556986E-3
8.883957917E0,-1.401770627E-3,1.520769671E-3,1.115249842E-2,1.134265941E-2
8.893914917E0,-1.404976938E-4,-1.068089157E-3,9.982306510E-3,1.004026879E-2
8.903871917E0,-2.564257244E-3,-9.132670239E-4,1.065389439E-2,1.099613285E-2
8.913828917E0,2.088285284E-3,9.759794921E-4,1.305659860E-2,1.325851570E-2
8.923785917E0,1.653481741E-3,-1.074391417E-3,9.777683765E-3,9.974538515E-3
8.933742917E0,6.193763111E-4,9.754439816E-4,1.167678460E-2,1.173381509E-2
8.943699917E0,-3.115332220E-4,6.379261613E-4,1.232577860E-2,1.234620674E-2
8.953655917E0,1.505275257E-3,3.745388240E-4,1.162723452E-2,1.173024789E-2
8.963612917E0,-2.123474143E-3,-1.570322551E-3,1.249220222E-2,1.276832690E-2
8.973570542E0,1.075781416E-3,-9.732414037E-4,1.005114987E-2,1.015530001E-2
8.983527542E0,2.172918757E-4,5.055814981E-4,1.186027378E-2,1.187303342E-2
8.993484542E0,1.273501548E-3,-1.258229837E-3,1.081631705E-2,1.096346948E-2
9.003441542E0,-1.468347618E-3,-3.377459943E-4,8.745435625E-3,8.874275258E-3
9.013398542E0,-9.849839844E-4,1.076658256E-3,1.211673021E-2,1.220428357E-2
9.023355542E0,1.021185890E-4,-1.124988310E-3,7.963031530E-3,8.042754383E-3
9.033311542E0,-2.483544406E-3,-3.558676690E-4,1.147174463E-2,1.174289400E-2
9.043268542E0,-1.356950961E-3,-2.014891244E-3,1.040062308E-2,1.068054601E-2
9.053225542E0,1.993039390E-3,-1.545908861E-3,1.256843656E-2,1.281903420E-2
9.063182542E0,-1.036770176E-3,4.796963185E-5,1.152868755E-2,1.157531123E-2
9.073139542E0,4.950801376E-4,1.426687464E-3,1.048046537E-2,1.058870605E-2
9.083096542E0,-8.855010383E-4,-4.308689386E-4,1.222775131E-2,1.226734129E-2
9.093053542E0,-1.952096354E-4,7.901908830E-4,1.264213771E-2,1.266831300E-2
9.103010542E0,-1.432505436E-3,2.645235509E-5,9.715033695E-3,9.820114625E-3
9.112966542E0,-1.820794307E-3,2.432335168E-4,1.381203532E-3,2.298298860E-3
9.122923542E0,-4.078104626E-3,-2.579386346E-3,-5.339484662E-3,7.196823446E-3
9.132880542E0,6.980085745E-4,-1.314118505E-3,-9.310258552E-3,9.428416502E-3
9.142837542E0,-7.193691563E-4,1.581665128E-5,-8.492382243E-3,8.522810470E-3
9.152794542E0,-3.300150856E-4,-2.045470290E-3,-5.568765104E-3,5.941717213E-3
9.162751542E0,3.274310147E-3,2.505688928E-3,-2.612108365E-3,4.880849727E-3
9.172708542E0,4.782573087E-4,-6.232587621E-4,-7.960982621E-4,1.118460541E-3
9.182665542E0,2.326077083E-3,-5.190530792E-4,3.154717386E-3,3.953769401E-3
9.192621542E0,-1.711274963E-3,1.650862396E-5,4.098275676E-3,4.441238347E-3
9.202578542E0,-7.197977975E-4,-2.712421119E-3,3.872688860E-3,4.782578405E-3
9.212535542E0,-1.352338586E-4,1.961958595E-3,6.248228252E-3,6.550414186E-3
9.222492542E0,-5.315665621E-4,-8.931001648E-4,4.288725555E-3,4.412862767E-3
9.232449542E0,-7.107972633E-4,1.461667009E-3,3.705492243E-3,4.046279273E-3
9.242406542E0,1.776998397E-4,1.170591451E-3,1.943228766E-3,2.275521834E-3
9.252363542E0,-8.275732398E-5,-1.852242276E-4,-2.166561782E-3,2.176039234E-3
9.262320542E0,-1.369919628E-4,2.352027223E-4,-4.707232118E-3,4.715095050E-3
9.272277542E0,-1.657124376E-3,1.825376414E-3,-6.020702422E-3,6.505914071E-3
9.282233542E0,4.232526990E-4,-2.023605630E-4,-3.545854241E-3,3.576754806E-3
9.292190542E0,-1.468923176E-3,-1.098248176E-3,7.586143911E-4,1.984787179E-3
9.302147542E0,1.623534830E-3,3.904495388E-4,1.941157505E-3,2.560548505E-3
9.312104542E0,6.075388519E-4,-2.483899705E-3,4.473824054E-3,5.153053742E-3
9.322061542E0,6.492715329E-6,2.396983095E-3,2.644380555E-3,3.569078120E-3
9.332018542E0,1.182278385E-3,-1.484574750E-3,5.322987214E-3,5.651189012E-3
9.341975542E0,8.767766412E-4,8.676219732E-4,4.126923159E-3,4.307319343E-3
9.351932542E0,2.277066698E-3,9.813392535E-4,3.205735236E-3,4.052751890E-3
9.361888542E0,4.667215981E-3,1.100460067E-3,-4.062186927E-4,4.812372699E-3
9.371845542E0,-2.868731041E-3,1.529073343E-4,-2.195330337E-3,3.615587604E-3
9.381802542E0,1.016305760E-5,-1.822356135E-3,-4.694474861E-3,5.035789848E-3
9.391759542E0,5.353384186E-4,-1.086791046E-3,-2.066466957E-3,2.395409711E-3
9.401716542E0,1.469253330E-4,1.449868083E-3,-1.701064408E-3,2.239938533E-3
9.411673542E0,-1.405431191E-3,-5.162227899E-5,2.330161631E-3,2.721682369E-3
9.421630542E0,-1.326345373E-4,1.187246293E-3,3.149583936E-3,3.368534496E-3
9.431587542E0,-2.678882796E-3,1.589650288E-3,2.627870068E-3,4.075426624E-3
9.441543542E0,4.444371443E-4,1.509465277E-3,2.332849428E-3,2.813928971E-3
9.451500542E0,-1.148399431E-3,5.541900173E-4,2.758955583E-3,3.039372260E-3
9.461457542E0,1.915474772E-3,1.096231863E-4,6.291680038E-4,2.019136751E-3
9.471414542E0,-5.905597936E-4,-2.634860575E-4,-1.609219238E-3,1.734293034E-3
9.481371542E0,-2.858112799E-3,6.060795859E-4,-1.100296155E-3,3.121985404E-3
9.491328542E0,-8.897706866E-4,3.248490393E-4,-2.506446093E-3,2.679457182E-3
9.501285542E0,2.458122326E-4,4.181452096E-5,1.491514966E-3,1.512213279E-3
9.511242542E0,-2.093219664E-4,-4.119873047E-4,-1.078700647E-3,1.173517921E-3
9.521198542E0,-1.930454979E-3,-2.515874803E-5,1.606591046E-3,2.511657655E-3
9.531155542E0,-1.214597374E-3,4.965541884E-4,4.504641518E-3,4.691866158E-3
9.541112542E0,3.046287457E-4,-2.915654331E-4,9.287074208E-4,1.019954189E-3
9.551069542E0,3.438903019E-3,-9.115496650E-4,2.632066607E-3,4.425466234E-3
9.561026542E0,-6.090304814E-4,7.758066058E-4,-1.627095044E-3,1.902690805E-3
9.570983542E0,-1.194659621E-3,-1.031947322E-3,-4.518404603E-4,1.642037358E-3
9.580940542E0,-1.158596715E-3,9.605390951E-4,1.240387559E-3,1.950267417E-3
9.590897542E0,1.460622181E-3,6.465148181E-5,-2.344228327E-3,2.762789066E-3
9.600853542E0,9.555905126E-5,7.683411241E-7,1.203419641E-3,1.207207917E-3
9.610810542E0,7.898450131E-4,1.988285221E-3,9.291134775E-4,2.332463316E-3
9.620767542E0,1.075685141E-3,-1.829490066E-4,-1.150364056E-3,1.585530297E-3
9.630724542E0,-1.713443315E-3,-8.840672672E-5,-2.238508314E-4,1.730263834E-3
9.640681542E0,1.076775487E-3,1.235501841E-4,-1.875808463E-3,2.166418123E-3
9.650638542E0,7.635877701E-4,-1.528409310E-3,-2.183137462E-3,2.772217610E-3
9.660595542E0,1.219592174E-3,-2.812156454E-4,1.134146005E-3,1.689015829E-3
9.670552542E0,-1.444900408E-3,2.314301208E-3,8.723568171E-4,2.864390631E-3
9.680509542E0,3.481074236E-5,-1.564063132E-5,2.600455657E-3,2.600735673E-3
9.690465542E0,-1.966022188E-3,7.702577859E-4,1.135718077E-3,2.397581250E-3
9.700422542E0,2.751355292E-3,-1.693354920E-3,2.420419827E-3,4.036810494E-3
9.710379542E0,-4.268609919E-4,9.474363178E-4,-7.791034877E-4,1.298787176E-3
9.720336542E0,-1.532329479E-3,1.106634736E-3,-1.076269895E-3,2.175093322E-3
9.730293542E0,-1.038579270E-3,9.428504854E-4,-4.528239369E-4,1.473995745E-3
9.740250542E0,1.334445551E-4,-7.982300594E-4,1.244124025E-3,1.484191115E-3
9.750207542E0,1.518202480E-4,1.224251464E-4,1.859048381E-3,1.869250702E-3
9.760164542E0,-1.515994780E-3,-2.134609967E-4,3.227364272E-3,3.572070256E-3
9.770120542E0,-3.748300951E-4,1.487284899E-4,5.231909454E-4,6.605653103E-4
9.780077542E0,2.873069141E-3,-5.528032780E-4,-2.453923225E-3,3.818619770E-3
9.790034542E0,-5.711968988E-4,1.012336463E-3,-1.127935946E-3,1.619669877E-3
9.799991542E0,1.403585193E-3,-8.297134191E-4,-2.297356725E-3,2.817148145E-3
9.809948542E0,6.355295191E-4,-6.219865754E-4,-2.555150539E-3,2.705468415E-3
9.819905542E0,-5.741203204E-4,-6.489865482E-4,-1.667775214E-3,1.879433916E-3
9.829862542E0,-1.217273762E-3,5.035940558E-5,1.957053319E-3,2.305287222E-3
9.839819542E0,2.230193233E-3,1.584012061E-4,1.179235056E-3,2.527735769E-3
9.849775542E0,1.881585340E-3,-2.011808567E-3,-2.855043858E-4,2.769341051E-3
9.859732542E0,2.288093558E-3,-2.699236386E-3,-2.439435571E-3,4.297917531E-3
9.869689542E0,-3.899813164E-4,-5.290256813E-4,-1.071901992E-3,1.257349386E-3
9.879646542E0,-3.428945784E-4,8.632158861E-4,-1.486878842E-3,1.753147754E-3
9.889603542E0,1.369251637E-3,1.190784387E-3,-1.674100757E-3,2.468892635E-3
9.899560542E0,-7.984254044E-4,3.345487639E-4,1.612463966E-3,1.830149186E-3
9.909517542E0,-4.836395383E-4,3.265598789E-4,2.191701904E-3,2.268062123E-3
9.919474542E0,-7.524462417E-4,-1.187836751E-3,7.633659989E-4,1.599955981E-3
9.929430542E0,2.861865796E-4,-9.434297681E-5,9.990558028E-4,1.043511309E-3
9.939387542E0,-1.952013234E-3,1.025334001E-3,8.293800056E-4,2.355745460E-3
9.949344542E0,-1.642331481E-4,-1.570182852E-3,6.744824350E-5,1.580188591E-3
9.959301542E0,8.683790220E-4,3.384603187E-4,2.229083329E-4,9.582930857E-4
9.969258542E0,2.082514111E-3,1.297464594E-3,-4.314072430E-5,2.454004995E-3
9.979215542E0,-1.519636717E-4,7.197381929E-4,4.739928991E-4,8.750915907E-4
9.989172542E0,6.195541937E-4,-6.869435310E-4,-2.083973959E-3,2.280062779E-3
9.999129542E0,-1.743760193E-3,1.569719985E-3,1.995675266E-4,2.354686314E-3
1.000908554E1,1.199565362E-3,-1.328864135E-3,-1.765046269E-3,2.514005823E-3
1.001904254E1,9.005801985E-4,3.339694813E-4,-1.688009128E-3,1.942152189E-3
1.002899954E1,7.559705991E-4,2.396854572E-3,4.622284323E-4,2.555397916E-3
1.003895654E1,-2.651341725E-3,-1.373745501E-3,8.730757982E-4,3.111117323E-3
1.004891354E1,2.443135018E-4,1.773578115E-3,-6.398670375E-4,1.901235978E-3
1.005887054E1,9.717475623E-4,-1.128562726E-3,3.563594073E-4,1.531319424E-3
1.006882754E1,-2.080327831E-4,1.765227877E-3,1.574754715E-3,2.374691455E-3
1.007878454E1,-1.896209083E-3,3.774464130E-5,1.110639423E-4,1.899833873E-3
1.008874154E1,2.218907466E-3,5.184449255E-4,5.966424942E-5,2.279450659E-3
1.009869754E1,-2.788700629E-3,3.667324781E-4,-6.710104644E-4,2.891642950E-3
1.010865454E1,5.216086283E-4,2.808584832E-3,2.327708527E-3,3.684895020E-3
1.011861154E1,-8.834414184E-4,1.977721229E-3,2.359792590E-3,3.203197007E-3
1.012856854E1,6.151194684E-4,-4.183249548E-4,2.282295376E-3,2.400466603E-3
1.013852554E1,2.688971581E-4,1.477003098E-4,1.367041841E-3,1.401044060E-3
1.014848254E1,8.262967458E-4,3.873854876E-4,4.746150225E-4,1.028636597E-3
1.015843954E1,1.495594624E-3,2.050568350E-3,-3.717485815E-4,2.565118096E-3
1.016839654E1,3.189631272E-3,1.626593061E-3,1.163030043E-3,3.764597126E-3
1.017835254E1,-1.907256898E-3,1.469139010E-3,1.094073057E-3,2.644427000E-3
1.018830954E1,-7.983164396E-4,-1.435304992E-3,8.690357208E-4,1.858126110E-3
1.019826654E1,4.583038390E-4,-1.958012581E-4,1.367069781E-4,5.167875186E-4
1.020822354E1,1.443939749E-3,5.469545722E-4,6.490983069E-4,1.674947735E-3
1.021818054E1,1.018425217E-3,-5.793767050E-4,-3.426820040E-4,1.220777721E-3
1.022813754E1,1.829916146E-4,-1.820325851E-4,-1.086236909E-3,1.116482161E-3
1.023809454E1,7.686972385E-4,3.228541464E-4,2.144938335E-3,2.301280232E-3
1.024805154E1,1.965521835E-3,-2.761743963E-5,-5.957223475E-4,2.054001928E-3
1.025800754E1,4.696939141E-5,-4.092408344E-4,4.554370418E-3,4.572961195E-3
1.026796454E1,2.016989747E-4,-6.356183439E-5,2.187885344E-3,2.198082087E-3
1.027792154E1,-7.531179581E-4,9.816456586E-4,-1.435782760E-4,1.245563960E-3
1.028787854E1,5.504994188E-4,2.541725524E-3,-3.702625632E-3,4.524693893E-3
1.029783554E1,-1.312286593E-3,7.752142847E-5,-1.437570900E-4,1.322411349E-3
1.030779254E1,-1.721873414E-4,1.012290828E-3,-1.674275845E-3,1.964072506E-3
1.031774954E1,8.666329086E-4,1.442836598E-3,7.148832083E-6,1.683116500E-3
1.032770654E1,-1.650757622E-4,5.063404329E-3,4.499634728E-3,6.775841357E-3
1.033766254E1,2.354235156E-3,-2.675906755E-3,1.623895019E-3,3.916622928E-3
1.034761954E1,2.854915801E-4,5.161585286E-4,3.265589476E-5,5.907550055E-4
1.035757654E1,-1.157056540E-4,8.205939084E-4,-1.053048298E-3,1.340027193E-3
1.036753354E1,7.002870552E-4,-5.105882883E-5,-1.999268308E-3,2.118981532E-3
1.037749054E1,-6.102186162E-4,5.742060021E-4,-1.609735191E-3,1.814752511E-3
1.038744754E1,-7.359196898E-4,2.215245739E-3,-2.555424348E-3,3.461081488E-3
1.039740454E1,-9.370879270E-4,-1.189609990E-3,1.646051183E-3,2.236691800E-3
1.040736154E1,1.755634206E-3,-1.415711828E-3,2.932092175E-3,3.699142599E-3
1.041731854E1,-1.753136981E-3,-6.828447804E-4,-1.307290047E-3,2.291020196E-3
1.042727454E1,-6.886713672E-4,1.356070861E-3,4.213975742E-3,4.480043302E-3
1.043723154E1,5.008667940E-4,-9.536296129E-4,1.947320998E-4,1.094622115E-3
1.044718854E1,3.519961610E-4,1.286089420E-3,-1.149941236E-4,1.338338874E-3
1.045714554E1,-1.479401486E-3,1.100487076E-3,-1.778839156E-3,2.562024454E-3
1.046710254E1,-2.400322584E-3,-1.362671144E-3,1.145312563E-3,2.988337669E-3
1.047705954E1,-5.691691767E-4,2.812668681E-4,1.993056387E-3,2.091730949E-3
1.048701654E1,-2.525192685E-4,-1.547525637E-3,1.277731732E-3,2.022671490E-3
1.049697354E1,-7.521035150E-5,-2.021682449E-3,3.081951290E-4,2.046421452E-3
1.050692954E1,2.270585392E-4,-7.023531944E-4,4.778392613E-4,8.793099280E-4
1.051688654E1,6.993779680E-4,-1.413876191E-3,-1.612903550E-3,2.256021562E-3
1.052684354E1,-1.647133147E-3,-1.858091913E-3,3.570374101E-4,2.508591014E-3
1.053680054E1,9.646650869E-4,-6.200103089E-4,1.763783395E-3,2.103787864E-3
1.054675754E1,1.358014066E-3,1.209314913E-3,1.858325675E-3,2.600003668E-3
1.055671454E1,-1.703386428E-3,8.364683017E-4,3.101158887E-3,3.635710520E-3
1.056667154E1,-1.991806552E-3,1.880426891E-3,3.695575520E-3,4.600062723E-3
1.057662854E1,-9.299744852E-5,-3.101540729E-3,2.480056137E-3,3.972264073E-3
1.058658454E1,1.600028481E-4,-2.386747859E-3,1.199342310E-3,2.675927546E-3
1.059654154E1,1.432595309E-4,-1.186123118E-3,-2.570981160E-3,2.835023010E-3
1.060649854E1,4.378050799E-4,-2.883089706E-3,-1.031938940E-3,3.093344067E-3
1.061645554E1,-1.460805070E-4,-3.897389397E-4,-5.483962595E-4,6.884579966E-4
1.062641254E1,-1.570072724E-3,-6.019929424E-4,2.321768552E-4,1.697477526E-3
1.063636954E1,-1.413384452E-4,3.674328327E-4,-1.547368243E-3,1.596662746E-3
1.064632654E1,2.630745992E-3,-2.538319677E-5,9.903572500E-4,2.811098765E-3
1.065628354E1,-1.247353153E-3,7.278947160E-4,7.675345987E-4,1.635490742E-3
1.066623954E1,-2.441248158E-3,-1.405617222E-4,3.579407930E-4,2.471350193E-3
1.067619654E1,2.276909072E-4,-1.497792080E-3,-1.520695165E-3,2.146564243E-3
1.068615354E1,-3.600070486E-3,-1.002976671E-3,-6.612930447E-4,3.795230981E-3
1.069611054E1,1.465203823E-3,-9.431075305E-4,-3.205223009E-3,3.648250073E-3
1.070606754E1,2.031125594E-3,2.782186493E-4,-2.236630768E-3,3.034039220E-3
1.071602454E1,-7.162357215E-4,-8.791126311E-5,-1.312253997E-3,1.497575558E-3
1.072598154E1,-5.021176767E-4,-2.221344039E-4,-1.909868792E-3,1.987225366E-3
1.073593854E1,-3.374544904E-4,-7.669618353E-4,1.053443179E-3,1.346049227E-3
1.074589554E1,1.948336721E-3,7.246714085E-5,1.455314457E-3,2.432942177E-3
1.075585154E1,-2.023468027E-3,-1.186694019E-3,1.163184643E-3,2.618332306E-3
1.076580854E1,-6.364774890E-5,-1.211641356E-4,8.289571851E-4,8.401796228E-4
1.077576554E1,7.557368372E-4,-1.214998774E-3,2.793967724E-8,1.430859947E-3
1.078572254E1,-2.961769700E-3,-1.384641975E-3,2.724695951E-4,3.280785399E-3
1.079567954E1,4.079820355E-4,2.243470401E-3,1.126121730E-3,2.543178902E-3
1.080563654E1,-1.123996917E-4,5.659451708E-4,1.362610608E-3,1.479741632E-3
1.081559354E1,-1.795685850E-3,1.345993951E-4,-4.402920604E-4,1.853769610E-3
1.082555054E1,-9.168428369E-4,3.812089562E-4,4.092566669E-4,1.073970239E-3
1.083550754E1,4.492040025E-4,6.542271003E-4,-9.424183518E-4,1.232051007E-3
1.084546354E1,-4.179212265E-4,1.772549003E-4,-2.696642652E-3,2.734585717E-3
1.085542054E1,7.559111109E-4,4.103928804E-4,-2.521019429E-3,2.663712238E-3
1.086537754E1,2.107731532E-3,-2.435727045E-3,1.590698957E-5,3.221110287E-3
1.087533454E1,2.992719412E-3,-5.007628351E-4,-1.664508134E-3,3.460884312E-3
1.088529154E1,-1.142637106E-3,6.734244525E-4,-1.298589632E-3,1.856193708E-3
1.089524854E1,3.940988798E-3,-1.067309640E-3,-1.361703500E-3,4.304042169E-3
1.090520554E1,8.579669520E-5,1.271180809E-4,-7.512979209E-5,1.707763597E-4
1.091516254E1,4.807737423E-4,-1.059751026E-3,-3.660907969E-3,3.841414165E-3
1.092511854E1,6.056759739E-4,-8.240612224E-4,-1.698423177E-3,1.982564393E-3
1.093507554E1,1.009461470E-3,1.138799824E-3,-1.610735431E-3,2.215930082E-3
1.094503254E1,1.119761728E-4,-6.737476215E-4,-1.499680802E-3,1.647882590E-3
1.095498954E1,1.063506119E-3,3.553414717E-4,8.648317307E-4,1.416067353E-3
1.096494654E1,4.553845152E-3,-7.554627955E-4,1.672035083E-3,4.909575442E-3
1.097490308E1,2.539444249E-4,-2.805748954E-4,1.570584252E-3,1.615532400E-3
1.098486008E1,-2.565835603E-4,5.122488365E-4,2.307746559E-3,2.377799019E-3
1.099481708E1,-9.900827426E-4,-2.302471548E-4,-7.534641773E-4,1.265300698E-3
1.100477308E1,-9.623859078E-4,4.733595997E-4,1.122467220E-3,1.552478214E-3
1.101473008E1,-1.841652207E-3,-1.084897667E-4,-1.372367144E-3,2.299313910E-3
1.102468708E1,5.309580592E-4,-1.465734094E-4,8.543021977E-4,1.016480433E-3
1.103464408E1,9.710171726E-4,-1.435568556E-3,1.536086202E-3,2.315878289E-3
1.104460108E1,-9.544482455E-4,8.725933731E-4,2.610404044E-3,2.913176947E-3
1.105455808E1,1.310078194E-3,1.530877315E-3,-1.748913899E-3,2.668068600E-3
1.106451508E1,1.390862744E-4,-6.547793746E-4,-2.254914492E-3,2.352173546E-3
1.107447208E1,-1.466519432E-3,2.571838908E-3,-1.727234572E-3,3.427590098E-3
1.108442808E1,-2.817540895E-3,9.110383689E-5,1.572184265E-4,2.823394099E-3
1.109438508E1,-9.891355876E-4,4.805885255E-4,-1.977503300E-3,2.262713822E-3
1.110434208E1,6.364579313E-4,-3.686361015E-5,2.107253298E-3,2.201579907E-3
1.111429908E1,2.652760595E-3,-1.560864970E-3,2.056786790E-3,3.701865764E-3
1.112425608E1,4.370104289E-4,1.250367612E-3,7.379800081E-5,1.326590903E-3
1.113421308E1,4.668581532E-4,3.212057054E-4,-3.847032785E-4,6.849279181E-4
1.114417008E1,-2.417345298E-3,-2.473872155E-5,6.750039756E-5,2.418414067E-3
1.115412708E1,7.667234167E-4,-3.636376932E-4,-2.258080989E-3,2.412265931E-3
1.116408408E1,7.928224513E-4,4.262560979E-4,-7.110498846E-4,1.147106638E-3
1.117404008E1,-4.347357899E-4,-2.607665956E-4,-6.981939077E-5,5.117315426E-4
1.118399708E1,-6.869370118E-4,-7.766298950E-6,1.881211996E-3,2.002723483E-3
1.119395408E1,-1.051970990E-3,-5.483245477E-4,-8.101146668E-4,1.436519595E-3
1.120391108E1,-3.843163140E-4,-1.477234997E-3,-1.264810562E-4,1.531639554E-3
1.121386808E1,-1.500398386E-3,4.653884098E-4,-1.294910908E-5,1.570970836E-3
1.122382508E1,1.733982936E-4,3.266381100E-4,1.372162253E-3,1.421122328E-3
1.123378208E1,-2.857200336E-3,-2.667577937E-4,-1.473963261E-3,3.226037999E-3
1.124373908E1,-1.099247718E-3,6.320597604E-4,3.474457189E-3,3.698607555E-3
1.125369508E1,2.133791102E-3,4.794308916E-4,1.987675205E-3,2.955295445E-3
1.126365208E1,2.362887608E-4,-8.177943528E-4,2.105653286E-3,2.271210193E-3
1.127360908E1,1.903403550E-3,2.597407438E-3,5.984790623E-4,3.275308789E-3
1.128356608E1,-6.627035327E-5,-1.270063221E-4,-2.230595797E-3,2.235191262E-3
1.129352308E1,-1.677522669E-3,-2.276003361E-4,1.277811825E-4,1.697707939E-3
1.130348008E1,-7.358288858E-4,1.638839021E-4,1.275148243E-4,7.645666177E-4
1.131343708E1,2.228057012E-3,2.235081047E-5,1.282349229E-3,2.570828106E-3
1.132339408E1,2.395037329E-3,-1.388325356E-3,-1.263100654E-3,3.042872715E-3
1.133335108E1,-1.892420230E-3,-1.128062606E-3,-6.816145033E-4,2.306160858E-3
1.134330708E1,-7.499242201E-4,-1.431397162E-3,7.844548672E-4,1.796288844E-3
1.135326408E1,-4.877920728E-4,4.823980853E-4,-7.181819528E-4,9.931940074E-4
1.136322108E1,-4.531708546E-4,-1.441203058E-3,-1.211665571E-3,1.936637171E-3
1.137317808E1,3.342516720E-5,-1.396229491E-3,-1.967770979E-3,2.413026452E-3
1.138313508E1,1.770605217E-3,-2.478538081E-3,8.293464780E-4,3.156898705E-3
1.139309208E1,-1.476791222E-4,2.928860486E-4,9.858626872E-4,1.038997882E-3
1.140304908E1,5.652490072E-4,2.465759404E-3,2.339014784E-3,3.445354269E-3
1.141300608E1,-7.568104193E-4,-2.316571772E-4,-1.193985343E-3,1.432490160E-3
1.142296308E1,6.306965370E-4,-1.966953278E-5,9.485278279E-4,1.139240998E-3
1.143291908E1,-1.669602469E-3,2.525774762E-4,-4.189610481E-4,1.739797731E-3
1.144287608E1,8.683900815E-4,-7.200092077E-4,-2.277314663E-3,2.541392663E-3
1.145283308E1,6.435812684E-4,3.479765728E-4,-2.769291401E-3,2.864307841E-3
1.146279008E1,2.349335933E-3,5.852645263E-4,3.000013530E-4,2.439654628E-3
1.147274708E1,3.522542538E-4,-8.377376944E-4,2.463798970E-3,2.626060332E-3
1.148270408E1,-8.395104669E-4,1.227810048E-3,3.841351718E-4,1.536182010E-3
1.149266108E1,-1.243767096E-3,1.632332802E-3,-1.675654203E-3,2.649393133E-3
1.150261808E1,-4.818367306E-4,-1.280899160E-3,-2.461552620E-3,2.816400290E-3
1.151257408E1,1.703272574E-5,-6.926665083E-4,-2.428237349E-4,7.341936881E-4
1.152253108E1,6.910787197E-4,1.044513658E-3,8.876882493E-4,1.535118564E-3
1.153248808E1,-9.950443637E-4,6.291922182E-4,1.776130870E-3,2.130877050E-3
1.154244508E1,-1.441390021E-3,-1.993179321E-4,8.243173361E-4,1.672373134E-3
1.155240208E1,-1.156787854E-3,2.640164457E-3,3.044083714E-4,2.898498052E-3
1.156235908E1,1.313831890E-4,-1.580679789E-3,-2.258617431E-3,2.759920803E-3
1.157231608E1,1.543723047E-3,-4.573371261E-4,-1.241251826E-3,2.032964384E-3
1.158227308E1,-1.051793806E-3,9.739864618E-5,-2.550460398E-3,2.760544321E-3
1.159222908E1,2.944272710E-4,1.382904127E-3,6.869975477E-4,1.571965926E-3
1.160218608E1,-1.464324305E-3,1.706478186E-3,3.330718726E-3,4.018706347E-3
1.161214308E1,-7.896297611E-4,1.220929436E-3,5.986019969E-4,1.572421126E-3
1.162210008E1,2.315349644E-3,2.657704987E-3,1.095281914E-3,3.691054354E-3
1.163205708E1,-4.074778408E-3,-7.929001004E-4,-4.017390311E-4,4.170599944E-3
1.164201408E1,-1.558357151E-3,-3.050090745E-4,-1.867011189E-3,2.450966815E-3
1.165197108E1,-7.474648301E-4,-1.101388596E-3,-2.263547853E-3,2.625911155E-3
1.166192808E1,1.583866542E-3,7.439684123E-5,-7.522031665E-4,1.754986529E-3
1.167188508E1,6.405251333E-4,1.029746607E-3,9.719282389E-6,1.212742753E-3
1.168184108E1,1.691674814E-3,3.931764513E-5,2.389254048E-3,2.927771245E-3
1.169179808E1,7.883273065E-5,1.841355115E-4,9.127147496E-4,9.344349630E-4
1.170175508E1,-1.884716097E-3,1.990497112E-4,-5.512256175E-4,1.973733831E-3
1.171171208E1,1.103774412E-3,4.008309916E-4,-3.796217963E-3,3.973695290E-3
1.172166908E1,9.565015789E-4,-1.066571102E-3,-1.258758828E-3,1.907077076E-3
1.173162608E1,1.086565200E-3,-7.030647248E-4,2.455778420E-3,2.775927159E-3
1.174158308E1,-4.825692158E-4,-9.083952755E-4,1.601168886E-3,1.903101896E-3
1.175154008E1,-2.694981871E-3,1.846475527E-3,1.097697765E-3,3.446351627E-3
1.176149608E1,4.366294015E-4,6.248839200E-4,2.204507589E-3,2.332590590E-3
1.177145308E1,2.179677598E-3,-1.085843891E-3,-8.769761771E-4,2.588269422E-3
1.178141008E1,1.700841356E-3,1.247084700E-3,-3.768354654E-4,2.142448724E-3
1.179136708E1,8.913630154E-4,4.594279453E-4,-2.717301250E-3,2.896433694E-3
1.180132408E1,-8.567359764E-4,-6.314022467E-4,8.910149336E-4,1.388010426E-3
1.181128108E1,-8.115414530E-4,-5.070418119E-4,4.687588662E-4,1.065563608E-3
1.182123808E1,1.223646104E-3,1.035993919E-3,1.854667440E-3,2.451608554E-3
1.183119508E1,4.433328286E-5,3.493493423E-4,-4.771370441E-4,5.930178427E-4
1.184115208E1,5.782970693E-4,8.463114500E-5,1.173757017E-3,1.311219076E-3
1.185110808E1,-2.143255668E-3,4.017781466E-4,-1.256672665E-3,2.516783011E-3
1.186106508E1,-5.121734925E-3,-7.364563644E-4,-2.975575626E-5,5.174497272E-3
1.187102208E1,1.570005435E-3,1.639842056E-3,1.511877403E-3,2.727594603E-3
1.188097908E1,2.085859887E-3,2.773692831E-4,2.109490335E-3,2.979546050E-3
1.189093608E1,-1.636025030E-3,-1.465739682E-3,1.183547080E-3,2.495146169E-3
1.190089308E1,3.110527061E-3,-2.200505696E-3,-6.268694997E-4,3.861420630E-3
1.191085008E1,-1.899904339E-3,1.642062329E-3,6.967466325E-4,2.606043180E-3
1.192080708E1,1.802907791E-4,2.953018993E-4,4.980750382E-4,6.064542196E-4
1.193076308E1,-6.456631236E-4,-1.481184736E-3,-1.056106761E-3,1.930323958E-3
1.194072008E1,-1.136217266E-3,3.236392513E-4,-1.089129597E-3,1.606840166E-3
1.195067708E1,2.591323573E-4,2.798363566E-4,-1.042792574E-3,1.110348736E-3
1.196063408E1,-9.352953639E-4,2.516070381E-4,2.304650843E-4,9.955891092E-4
1.197059108E1,3.397115273E-3,-1.065058634E-3,-1.217612997E-3,3.762621890E-3
1.198054792E1,-3.752939403E-3,4.097996280E-4,3.002963960E-3,4.823928113E-3
1.199050492E1,-9.651861619E-4,-1.977002248E-4,2.203445882E-3,2.413678408E-3
1.200046192E1,2.540332731E-3,-1.306906343E-3,-3.393718973E-3,4.436059404E-3
1.201041892E1,-5.798577331E-4,-9.548580274E-4,-3.222109750E-3,3.410275661E-3
1.202037492E1,4.342740867E-4,3.221277148E-4,-4.365935922E-3,4.399290479E-3
1.203033192E1,8.186999476E-4,-9.941058233E-4,-2.532603219E-3,2.841231257E-3
1.204028892E1,-4.492311273E-4,-6.779888645E-4,-2.606604248E-4,8.540616858E-4
1.205024592E1,1.459434861E-4,-1.029076055E-3,2.101954073E-3,2.344889752E-3
1.206020292E1,1.829327550E-3,-6.413199008E-4,2.292104065E-3,3.001911316E-3
1.207015992E1,-2.767786384E-3,3.449185751E-3,1.242959872E-3,4.593742816E-3