"Time (s)","Gyroscope x (rad/s)","Gyroscope y (rad/s)","Gyroscope z (rad/s)","Absolute (rad/s)"
5.014166669E-3,3.494455246E-3,-1.516242512E-3,-3.374935985E-1,3.375150948E-1
1.497016667E-2,2.987389453E-3,-6.914613768E-4,-3.261655867E-1,3.261800003E-1
2.492616667E-2,5.465059658E-4,-1.525110565E-3,-3.239024878E-1,3.239065393E-1
3.488216667E-2,1.841068501E-3,-5.256999284E-3,-3.290668726E-1,3.291140110E-1
4.483816667E-2,5.288845859E-3,-3.003551625E-3,-3.418609202E-1,3.419150216E-1
5.479416667E-2,7.163445000E-3,-2.233630978E-3,-3.529756069E-1,3.530553542E-1
6.475016667E-2,4.577321000E-3,-2.639878541E-3,-3.531714380E-1,3.532109645E-1
7.470616667E-2,7.780038752E-3,-3.342419863E-3,-3.473049998E-1,3.474082090E-1
8.466216667E-2,3.104136093E-3,-3.075956367E-3,-3.372774124E-1,3.373057220E-1
9.461816667E-2,2.467107959E-3,-2.361429855E-3,-3.244854510E-1,3.245034220E-1
1.045741667E-1,4.330633208E-3,-5.288003013E-3,-3.217766583E-1,3.218492429E-1
1.145301667E-1,2.827012911E-3,-5.350319669E-3,-3.241793513E-1,3.242358243E-1
1.244861667E-1,1.383000985E-3,-5.369171500E-3,-3.337199390E-1,3.337659934E-1
1.344421667E-1,5.854448304E-3,-2.339293249E-3,-3.453760445E-1,3.454335811E-1
1.443981667E-1,4.654280841E-3,-3.331538290E-3,-3.484348357E-1,3.484818448E-1
1.543541667E-1,3.826836590E-3,-4.492675886E-3,-3.444904387E-1,3.445409862E-1
1.643101667E-1,1.840286190E-3,-2.761468291E-3,-3.367879093E-1,3.368042580E-1
1.742661667E-1,1.683159615E-3,-4.356700927E-3,-3.347801566E-1,3.348127344E-1
1.842221667E-1,4.263561219E-3,-1.351330429E-3,-3.334058225E-1,3.334358207E-1
1.941781667E-1,1.795609482E-3,-1.682095230E-3,-3.380397260E-1,3.380486800E-1
2.041341667E-1,4.926933441E-3,-3.238870762E-3,-3.392350674E-1,3.392863037E-1
2.140901667E-1,5.424678326E-3,-2.438857220E-3,-3.402595818E-1,3.403115604E-1
2.240461667E-1,3.362936433E-3,-1.009554602E-3,-3.413913846E-1,3.414094404E-1
2.340018333E-1,4.761895165E-3,-5.407231860E-3,-3.416760564E-1,3.417520173E-1
2.439578333E-1,3.789779497E-3,-2.826796845E-3,-3.384950757E-1,3.385280926E-1
2.539138333E-1,1.317833550E-3,-3.942660987E-3,-3.399534225E-1,3.399788387E-1
2.638698333E-1,3.747799434E-3,-3.401184455E-3,-3.435122371E-1,3.435495176E-1
2.738258333E-1,5.621066783E-3,-3.970833495E-3,-3.456315696E-1,3.457000808E-1
2.837818333E-1,3.380013630E-3,-4.351118580E-3,-3.456889391E-1,3.457328439E-1
2.937378333E-1,3.374154679E-3,-4.496261477E-3,-3.409522474E-1,3.409985869E-1
3.036938333E-1,3.313839203E-3,-5.078296177E-3,-3.382731676E-1,3.383275137E-1
3.136498333E-1,2.707969863E-3,-3.109155223E-3,-3.335327506E-1,3.335582343E-1
3.236058333E-1,3.955098335E-3,-4.933336750E-4,-3.327427804E-1,3.327666512E-1
3.335618333E-1,5.015036557E-3,-2.725328319E-3,-3.320977688E-1,3.321468140E-1
3.435178333E-1,3.046646249E-3,-5.624592304E-3,-3.368194699E-1,3.368802063E-1
3.534738333E-1,5.743362941E-3,-2.784597687E-3,-3.391505182E-1,3.392105750E-1
3.634298333E-1,3.741043154E-3,-1.573755406E-3,-3.437115848E-1,3.437355461E-1
3.733858333E-1,3.711482044E-3,-1.892269589E-3,-3.447137177E-1,3.447388910E-1
3.833418333E-1,3.462376539E-3,-3.027784638E-3,-3.393681943E-1,3.393993619E-1
3.932978333E-1,4.996090662E-3,-1.957193948E-3,-3.358208835E-1,3.358637482E-1
4.032538333E-1,3.464731388E-3,-4.631955177E-3,-3.278953731E-1,3.279463906E-1
4.132088333E-1,-6.506514037E-4,-2.645502798E-3,-3.254846632E-1,3.254960646E-1
4.231648333E-1,2.116974210E-3,-2.189489082E-3,-3.257433772E-1,3.257576142E-1
4.331208333E-1,2.275432227E-3,-2.204135992E-3,-3.325717151E-1,3.325868030E-1
4.430768333E-1,3.526955843E-3,-3.745724447E-3,-3.353355229E-1,3.353749883E-1
4.530328333E-1,9.796423838E-4,-3.661569208E-3,-3.398570418E-1,3.398781777E-1
4.629888333E-1,2.793532563E-3,-4.498850554E-3,-3.418603837E-1,3.419013973E-1
4.729448333E-1,4.113927484E-3,-3.368073143E-3,-3.423759639E-1,3.424172440E-1
4.829008333E-1,4.790890496E-3,-3.369744867E-3,-3.419660628E-1,3.420162217E-1
4.928568333E-1,5.529651418E-3,-4.389202222E-3,-3.443756700E-1,3.444480283E-1
5.028128333E-1,3.138637636E-3,-2.262960188E-3,-3.412879705E-1,3.413099044E-1
5.127688333E-1,1.970841317E-3,-3.615845926E-3,-3.392453492E-1,3.392703428E-1
5.227248333E-1,3.647992387E-3,-2.573515289E-3,-3.387606740E-1,3.387900900E-1
5.326808333E-1,1.565134153E-3,-4.034791142E-3,-3.334726989E-1,3.335007798E-1
5.426368333E-1,3.552967915E-3,-4.741000012E-3,-3.328865170E-1,3.329392345E-1
5.525928333E-1,1.884231344E-3,-3.444572911E-3,-3.362127841E-1,3.362357084E-1
5.625488333E-1,6.036059000E-3,-2.989993431E-3,-3.400185406E-1,3.400852570E-1
5.725048333E-1,1.710020006E-3,-4.060051404E-3,-3.396329284E-1,3.396614995E-1
5.824608333E-1,3.930203617E-3,-3.407019190E-3,-3.394868672E-1,3.395267107E-1
5.924168333E-1,3.732863348E-3,-3.941781819E-3,-3.427873254E-1,3.428303113E-1
6.023728333E-1,7.192976307E-3,-4.768981598E-3,-3.410144746E-1,3.411236638E-1
6.123288333E-1,2.661874052E-3,-4.201197065E-3,-3.357440829E-1,3.357809179E-1
6.222848333E-1,1.535554649E-3,-3.864942119E-3,-3.335023522E-1,3.335282816E-1
6.322408333E-1,8.537853137E-4,-2.297937870E-3,-3.291472793E-1,3.291564080E-1
6.421968333E-1,2.260404639E-3,-4.612953402E-3,-3.331094980E-1,3.331491054E-1
6.521528333E-1,4.773895722E-3,-4.225463606E-3,-3.423008621E-1,3.423602267E-1
6.621088333E-1,4.904343747E-3,-2.781593241E-3,-3.468127847E-1,3.468586131E-1
6.720648333E-1,2.846785355E-3,-1.389558427E-3,-3.460713625E-1,3.460858607E-1
6.820208333E-1,2.971544163E-3,-2.336640842E-3,-3.393932581E-1,3.394143097E-1
6.919768333E-1,3.237327561E-3,-1.507865265E-3,-3.376656771E-1,3.376845620E-1
7.019328333E-1,2.172988141E-3,-1.194197685E-3,-3.354895115E-1,3.354986741E-1
7.118888333E-1,1.358593465E-3,-3.881593235E-3,-3.351004422E-1,3.351256763E-1
7.218448333E-1,4.904833622E-3,-3.785735928E-3,-3.381238282E-1,3.381805914E-1
7.318008333E-1,1.008096617E-3,-1.386228018E-3,-3.375704288E-1,3.375747803E-1
7.417568333E-1,1.901153941E-3,-3.892399371E-3,-3.367877901E-1,3.368156479E-1
7.517128333E-1,5.660738330E-3,-2.526463009E-3,-3.383824825E-1,3.384392581E-1
7.616688333E-1,2.791578881E-3,-2.330987714E-3,-3.351041079E-1,3.351238421E-1
7.716248333E-1,3.801716026E-3,-3.215955570E-3,-3.376351595E-1,3.376718767E-1
7.815808333E-1,3.505758476E-3,-1.188793220E-3,-3.414099813E-1,3.414300497E-1
7.915368333E-1,5.153456237E-3,-1.330207102E-3,-3.408744335E-1,3.409159823E-1
8.014928333E-1,7.642176468E-3,-3.559622914E-3,-3.431859612E-1,3.432894956E-1
8.114488333E-1,3.891912755E-3,2.031577751E-4,-3.394753933E-1,3.394977627E-1
8.214048333E-1,3.585271072E-3,-2.411421388E-3,-3.382971585E-1,3.383247501E-1
8.313608333E-1,4.157584161E-3,-4.170972854E-3,-3.354475796E-1,3.354992715E-1
8.413168333E-1,5.748357624E-3,-3.145114519E-3,-3.326983750E-1,3.327628947E-1
8.512728333E-1,6.598438136E-3,-2.813817002E-3,-3.300130963E-1,3.300910491E-1
8.612288333E-1,2.680038568E-3,-2.648420632E-3,-3.330278993E-1,3.330492132E-1
8.711848333E-1,2.761797747E-3,-2.923792228E-3,-3.396328092E-1,3.396566224E-1
8.811408333E-1,6.400935352E-3,-3.952432424E-3,-3.455859423E-1,3.456678134E-1
8.910968333E-1,3.657080932E-3,-4.116216674E-3,-3.475335240E-1,3.475771394E-1
9.010528333E-1,3.049269086E-3,-2.765357494E-3,-3.440383375E-1,3.440629636E-1
9.110078333E-1,2.702525351E-3,-2.172804438E-3,-3.406377435E-1,3.406553933E-1
9.209638333E-1,5.954035092E-3,-2.449085936E-3,-3.361590207E-1,3.362206652E-1
9.309198333E-1,2.082064748E-3,-1.049328595E-3,-3.312883675E-1,3.312965719E-1
9.408758333E-1,3.445918206E-3,-2.640129067E-3,-3.317376375E-1,3.317660392E-1
9.508318333E-1,1.403806382E-3,-3.428158350E-3,-3.311525285E-1,3.311732478E-1
9.607878333E-1,3.885174636E-3,-2.911423333E-3,-3.381852508E-1,3.382200982E-1
9.707438333E-1,1.978883985E-3,-2.176923677E-3,-3.398441374E-1,3.398568709E-1
9.806998333E-1,3.684762632E-3,-1.156562939E-3,-3.421708345E-1,3.421926287E-1
9.906558333E-1,3.177696839E-3,-3.488160670E-3,-3.393529356E-1,3.393857391E-1
1.000611833E0,1.020392519E-3,-2.863076515E-3,-3.384941816E-1,3.385078277E-1
1.010567833E0,3.635084024E-3,-1.037745737E-3,-3.386875391E-1,3.387086357E-1
1.020523833E0,3.799664322E-3,-2.276427113E-3,-3.412140608E-1,3.412428092E-1
1.030479833E0,1.263003331E-3,-3.639166243E-3,-3.405938148E-1,3.406155977E-1
1.040435833E0,1.825809479E-3,-3.226974048E-3,-3.417489827E-1,3.417690947E-1
1.050391833E0,1.354962587E-3,-2.820042893E-3,-3.368785977E-1,3.368931258E-1
1.060347833E0,3.211253323E-3,-4.961717874E-3,-3.326867521E-1,3.327392460E-1
1.070303833E0,-1.034358167E-3,-6.069857627E-3,-3.321778178E-1,3.322348803E-1
1.080259833E0,4.376433790E-3,-7.400037721E-4,-3.324135542E-1,3.324431858E-1
1.090215833E0,3.906119848E-3,-5.944886245E-3,-3.414986730E-1,3.415727493E-1
1.100171833E0,3.162014298E-3,-1.521077007E-3,-3.446452618E-1,3.446631232E-1
1.110127833E0,6.758613512E-3,-2.241728827E-3,-3.452769518E-1,3.453503694E-1
1.120083833E0,5.228033289E-3,-2.564311028E-3,-3.408324122E-1,3.408821516E-1
1.130039833E0,2.288469113E-5,-1.461229287E-3,-3.345364332E-1,3.345396253E-1
1.139995833E0,2.976129763E-3,-2.469202504E-3,-3.323327303E-1,3.323552285E-1
1.149951833E0,2.952427603E-3,-9.269658476E-4,-3.297446668E-1,3.297591870E-1
1.159907833E0,8.634438855E-4,-4.561258480E-3,-3.313550651E-1,3.313875824E-1
1.169863833E0,2.568399534E-3,-2.954306081E-3,-3.312269747E-1,3.312501070E-1
1.179819833E0,3.886026796E-3,-2.686039545E-3,-3.350153863E-1,3.350486906E-1
1.189775833E0,2.580811270E-3,-2.816534601E-3,-3.371933103E-1,3.372149492E-1
1.199731833E0,4.335115198E-3,-3.496105783E-3,-3.423752785E-1,3.424205708E-1
1.209687833E0,2.252256963E-3,-4.907050170E-3,-3.414082825E-1,3.414509733E-1
1.219643833E0,2.266658936E-3,-3.482829779E-3,-3.408665955E-1,3.408919239E-1
1.229599833E0,3.602766898E-3,-4.532169551E-4,-3.330922723E-1,3.331120640E-1
1.239556292E0,3.690620651E-3,-3.238992766E-3,-3.304081857E-1,3.304446715E-1
1.249512292E0,9.459668072E-4,-1.230437309E-3,-3.262709677E-1,3.262746592E-1
1.259468292E0,2.626155037E-3,-2.655454911E-3,-3.310398757E-1,3.310609422E-1
1.269424292E0,3.581963712E-3,-3.013916314E-3,-3.380056322E-1,3.380380475E-1
1.279380292E0,4.339663312E-3,-3.691509366E-3,-3.486835063E-1,3.487300495E-1
1.289336292E0,6.917070597E-3,-7.070528343E-3,-3.479716480E-1,3.481122032E-1
1.299292292E0,4.220855888E-3,-1.645235345E-3,-3.454494476E-1,3.454791503E-1
1.309248292E0,7.072036155E-3,-8.012801409E-4,-3.409129977E-1,3.409872839E-1
1.319204292E0,3.032649634E-3,-1.656224020E-3,-3.367547691E-1,3.367724967E-1
1.329160292E0,4.832680337E-3,-3.976103850E-3,-3.409276605E-1,3.409850933E-1
1.339116292E0,3.841089085E-3,-1.940154471E-3,-3.405124843E-1,3.405396748E-1
1.349072292E0,3.345474834E-3,-4.009963013E-3,-3.370815217E-1,3.371219725E-1
1.359028292E0,5.254996475E-3,-4.897686653E-3,-3.382212222E-1,3.382974984E-1
1.368984292E0,3.316215239E-3,-3.302452154E-3,-3.367240131E-1,3.367565359E-1
1.378940292E0,3.112509847E-3,-1.785277389E-3,-3.379415572E-1,3.379606057E-1
1.388896292E0,3.576432355E-3,-1.350383274E-3,-3.410209715E-1,3.410423983E-1
1.398852292E0,6.375815719E-3,-9.864447638E-4,-3.440618813E-1,3.441223653E-1
1.408808292E0,2.226344775E-3,-4.339631647E-3,-3.439367115E-1,3.439712932E-1
1.418764292E0,4.177764058E-3,-2.833057195E-3,-3.410796523E-1,3.411170021E-1
1.428719292E0,1.122053131E-3,-2.533984371E-3,-3.376588225E-1,3.376701949E-1
1.438675292E0,2.363793785E-3,-2.705625258E-3,-3.344332874E-1,3.344525850E-1
1.448631292E0,3.325727303E-3,-1.082428731E-3,-3.345981240E-1,3.346164023E-1
1.458587292E0,5.217207596E-3,-2.839927562E-3,-3.308601677E-1,3.309134857E-1
1.468543292E0,3.410252742E-3,-2.292381600E-3,-3.300859928E-1,3.301115682E-1
1.478499292E0,3.565784777E-3,-5.033882335E-4,-3.349831104E-1,3.350024664E-1
1.488455292E0,3.493879223E-3,-9.878175333E-4,-3.421824276E-1,3.422016902E-1
1.498411292E0,5.585257430E-3,-1.526139677E-4,-3.456469178E-1,3.456920742E-1
1.508367292E0,4.447821062E-3,-6.799204275E-4,-3.424543440E-1,3.424839020E-1
1.518323292E0,3.645708086E-3,-3.089764155E-3,-3.369895518E-1,3.370234352E-1
1.528279292E0,-1.466762042E-3,-4.573677666E-3,-3.362140357E-1,3.362483424E-1
1.538235292E0,1.239454839E-3,-3.211341798E-3,-3.375762403E-1,3.375937899E-1
1.548191292E0,3.357999492E-3,-1.464042813E-3,-3.365328312E-1,3.365527686E-1
1.558147292E0,2.994814888E-3,-9.889611974E-4,-3.365646601E-1,3.365794369E-1
1.568103292E0,4.557291511E-3,-1.842504367E-3,-3.374863863E-1,3.375221840E-1
1.578059292E0,2.319483552E-3,-2.265223302E-3,-3.323138952E-1,3.323297101E-1
1.588015292E0,2.369018272E-3,-3.057779744E-3,-3.370452821E-1,3.370674776E-1
1.597971292E0,3.656130750E-3,-1.773864031E-3,-3.396045566E-1,3.396288691E-1
1.607927292E0,5.262017250E-3,-1.873466186E-3,-3.444709778E-1,3.445162598E-1
1.617883292E0,4.253327381E-3,-2.318547107E-3,-3.406245112E-1,3.406589557E-1
1.627839292E0,4.237880930E-3,-2.127865329E-3,-3.371679783E-1,3.372013242E-1
1.637795292E0,2.856970998E-3,-2.882065251E-3,-3.345984519E-1,3.346230604E-1
1.647751292E0,1.875596121E-3,-3.064759076E-3,-3.342993855E-1,3.343186949E-1
1.657707292E0,4.107549787E-3,-3.364979289E-3,-3.381246328E-1,3.381663235E-1
1.667663292E0,3.658274654E-3,-3.080819733E-3,-3.363195360E-1,3.363535412E-1
1.677619292E0,3.197991289E-3,-1.088033430E-3,-3.314926624E-1,3.315098735E-1
1.687575292E0,6.197849289E-4,-3.140265122E-3,-3.293565512E-1,3.293721045E-1
1.697531292E0,3.641277552E-3,-3.929222934E-3,-3.279345632E-1,3.279783155E-1
1.707487292E0,3.698535729E-3,-1.074580476E-3,-3.320395648E-1,3.320619016E-1
1.717443292E0,3.094099928E-3,-1.548172906E-3,-3.376468718E-1,3.376645974E-1
1.727399292E0,4.064555746E-3,-1.039243303E-3,-3.442653716E-1,3.442909332E-1
1.737355292E0,7.374765351E-3,-2.314333804E-3,-3.425383866E-1,3.426255822E-1
1.747311292E0,3.094799351E-3,-5.822144449E-4,-3.398326337E-1,3.398472241E-1
1.757267292E0,4.083724227E-3,-2.304603346E-3,-3.346132338E-1,3.346460880E-1
1.767223292E0,2.760932315E-3,-3.075323068E-3,-3.276831806E-1,3.277092418E-1
1.777179292E0,9.820540436E-4,-2.702980302E-3,-3.244599998E-1,3.244727446E-1
1.787135292E0,9.445034084E-4,-3.367705271E-3,-3.280398250E-1,3.280584708E-1
1.797091292E0,4.317437299E-3,-7.276535034E-3,-3.350549042E-1,3.351617178E-1
1.807047292E0,5.164855160E-3,-2.271124162E-3,-3.406214416E-1,3.406681673E-1
1.817003292E0,4.213870503E-3,-1.896680333E-3,-3.443602920E-1,3.443912960E-1
1.826959292E0,4.202951677E-3,1.317754388E-3,-3.473907113E-1,3.474186345E-1
1.836915292E0,5.639950745E-3,-2.555579878E-3,-3.416204154E-1,3.416765258E-1
1.846871292E0,3.373067826E-3,-3.926574253E-3,-3.365718424E-1,3.366116467E-1
1.856827292E0,2.239367226E-3,-2.291541547E-3,-3.348638415E-1,3.348791697E-1
1.866783292E0,1.387688331E-3,-2.861458808E-3,-3.322283924E-1,3.322436129E-1
1.876739292E0,3.550915280E-3,-3.078756854E-3,-3.306428790E-1,3.306762785E-1
1.886695292E0,2.350362251E-3,-2.831349149E-3,-3.358056843E-1,3.358258453E-1
1.896651292E0,5.238927901E-3,-1.982872374E-3,-3.364100456E-1,3.364566792E-1
1.906607292E0,3.742231056E-3,-3.455334343E-3,-3.407989442E-1,3.408370051E-1
1.916563292E0,4.447548185E-3,-5.257082172E-3,-3.432465792E-1,3.433156444E-1
1.926519292E0,1.682121772E-3,-2.310828306E-3,-3.406707942E-1,3.406827843E-1
1.936475292E0,3.011184046E-3,-1.982482150E-3,-3.347285390E-1,3.347479534E-1
1.946431292E0,2.148852451E-3,-1.511102542E-3,-3.358989954E-1,3.359092677E-1
1.956387292E0,9.887226624E-4,-1.025273465E-3,-3.291286230E-1,3.291317050E-1
1.966343292E0,1.447052695E-3,-4.290575162E-3,-3.299837708E-1,3.300148361E-1
1.976299292E0,5.405178526E-4,-4.483822733E-3,-3.305999041E-1,3.306307508E-1
1.986254292E0,2.818319481E-3,-2.548237331E-3,-3.340281844E-1,3.340497933E-1
1.996210292E0,5.912725814E-3,-1.619932242E-3,-3.428433537E-1,3.428981623E-1
2.006166292E0,3.994983621E-3,-2.456431277E-3,-3.475089669E-1,3.475406106E-1
2.016122292E0,4.666460212E-3,-3.260429949E-4,-3.458053470E-1,3.458369849E-1
2.026078292E0,4.053666722E-3,-3.314643167E-3,-3.412873149E-1,3.413274826E-1
2.036034292E0,2.732616849E-3,-2.362156287E-3,-3.351037502E-1,3.351232167E-1
2.045990292E0,-9.057937423E-4,-1.405016519E-3,-3.329665661E-1,3.329707625E-1
2.055946292E0,1.122798305E-3,-5.243699998E-4,-3.394160867E-1,3.394183488E-1
2.065902292E0,2.874093130E-3,-2.602701075E-3,-3.452883661E-1,3.453101363E-1
2.075858292E0,4.483648576E-3,-3.298201598E-3,-3.429043889E-1,3.429495607E-1
2.085814292E0,4.994176794E-3,-1.595376059E-3,-3.378097415E-1,3.378504232E-1
2.095770292E0,3.173792735E-3,-3.479180858E-3,-3.268506825E-1,3.268846070E-1
2.105726292E0,3.233447438E-3,-4.218714312E-4,-3.235071003E-1,3.235235341E-1
2.115682292E0,4.544303752E-3,-2.238795161E-3,-3.317016661E-1,3.317403476E-1
2.125638292E0,4.450826906E-3,-9.753918275E-4,-3.373204172E-1,3.373511895E-1
2.135594292E0,4.628336057E-3,-1.093660481E-3,-3.399002254E-1,3.399334947E-1
2.145550292E0,8.999104029E-4,-5.935188383E-4,-3.429561853E-1,3.429578796E-1
2.155506292E0,4.223883618E-3,-3.171697259E-3,-3.411032557E-1,3.411441513E-1
2.165462292E0,2.719996963E-3,-1.425995491E-3,-3.391719162E-1,3.391858202E-1
2.175418292E0,4.488828126E-3,-4.910765216E-3,-3.375417292E-1,3.376072928E-1
2.185374292E0,2.652045805E-3,-1.979157329E-3,-3.339230120E-1,3.339394082E-1
2.195330292E0,3.425536212E-3,4.151752219E-4,-3.329240382E-1,3.329419197E-1
2.205286292E0,3.907834645E-3,-1.183786429E-3,-3.374615312E-1,3.374862331E-1
2.215242292E0,2.905549482E-3,-6.580241024E-4,-3.410817981E-1,3.410948082E-1
2.225198292E0,4.736206029E-3,1.630696468E-3,-3.395289183E-1,3.395658657E-1
2.235154042E0,2.820810769E-3,-4.079574719E-4,-3.358564675E-1,3.358685608E-1
2.245110042E0,3.062359290E-3,-1.523022540E-3,-3.308366835E-1,3.308543619E-1
2.255066042E0,4.001678433E-3,-1.045796089E-3,-3.333767056E-1,3.334023620E-1
2.265022042E0,2.983818529E-3,-1.002120785E-3,-3.390654922E-1,3.390801017E-1
2.274978042E0,5.316853058E-4,-2.300496213E-3,-3.418248296E-1,3.418329842E-1
2.284934042E0,4.246795084E-3,-1.930849627E-3,-3.442416489E-1,3.442732582E-1
2.294890042E0,3.584493883E-3,-1.992768608E-3,-3.381485641E-1,3.381734335E-1
2.304846042E0,1.988195116E-3,-3.050043248E-3,-3.359043300E-1,3.359240608E-1
2.314802042E0,1.358493930E-3,-6.088139489E-4,-3.322784603E-1,3.322817950E-1
2.324758042E0,2.017093590E-3,-2.181942575E-3,-3.360305727E-1,3.360437104E-1
2.334714042E0,2.055748366E-3,-1.464180648E-3,-3.322962821E-1,3.323058666E-1
2.344670042E0,4.851800855E-3,-2.705520019E-4,-3.347373307E-1,3.347726000E-1
2.354626042E0,3.802593099E-3,-6.180917844E-4,-3.360448778E-1,3.360669600E-1
2.364582042E0,3.888346953E-3,-1.206650399E-3,-3.337052763E-1,3.337301105E-1
2.374538042E0,2.763672033E-3,4.073083401E-4,-3.351382911E-1,3.351499335E-1
2.384494042E0,5.747477990E-3,-9.794002399E-4,-3.373686969E-1,3.374190724E-1
2.394450042E0,3.187465947E-3,-3.682901151E-3,-3.390028179E-1,3.390378065E-1
2.404406042E0,7.858273457E-4,-5.283194594E-3,-3.355012834E-1,3.355437987E-1
2.414362042E0,3.726567375E-3,-4.885488190E-3,-3.333120346E-1,3.333686664E-1
2.424318042E0,1.579527045E-3,-2.259878442E-3,-3.298323452E-1,3.298438690E-1
2.434274042E0,7.686676108E-4,2.807828598E-3,-3.394249082E-1,3.394373919E-1
2.444230042E0,9.470994119E-4,-2.106769010E-3,-3.456660211E-1,3.456737387E-1
2.454186042E0,4.505014047E-3,1.373691484E-4,-3.429091573E-1,3.429387761E-1
2.464142042E0,2.815770684E-3,-8.717030287E-4,-3.363045156E-1,3.363174329E-1
2.474098042E0,2.114380477E-3,-5.060760304E-4,-3.340959847E-1,3.341030585E-1
2.484054042E0,5.311504938E-3,-2.340727486E-3,-3.329228461E-1,3.329734412E-1
2.494010042E0,4.250731785E-3,-2.491938882E-3,-3.358152211E-1,3.358513677E-1
2.503966042E0,3.892803099E-3,-1.609900035E-3,-3.386477530E-1,3.386739528E-1
2.513922042E0,2.656325698E-3,-9.605139494E-4,-3.405110538E-1,3.405227693E-1
2.523878042E0,4.028119612E-3,-4.261501133E-3,-3.421899080E-1,3.422401486E-1
2.533834042E0,3.756541526E-3,-1.784157939E-3,-3.393766880E-1,3.394021673E-1
2.543790042E0,1.748784445E-3,-2.360465936E-3,-3.335283995E-1,3.335413367E-1
2.553746042E0,1.028179307E-3,-4.007834941E-3,-3.295609653E-1,3.295869381E-1
2.563702042E0,-1.403553179E-3,-4.136465490E-3,-3.370247483E-1,3.370530541E-1
2.573658042E0,6.595734041E-3,-1.721533947E-3,-3.451412022E-1,3.452085121E-1
2.583614042E0,2.993808594E-3,-1.621399075E-3,-3.505958915E-1,3.506124227E-1
2.593569042E0,2.441065619E-3,-1.691442914E-3,-3.450406492E-1,3.450534297E-1
2.603525042E0,3.130025463E-3,-2.047507092E-3,-3.344846666E-1,3.345055777E-1
2.613481042E0,1.172010670E-3,-4.247722216E-3,-3.267580271E-1,3.267877369E-1
2.623437042E0,1.913967310E-3,-3.743852489E-3,-3.258133829E-1,3.258405134E-1
2.633393042E0,1.894486835E-3,-4.114694893E-3,-3.317336440E-1,3.317645707E-1
2.643349042E0,5.737161729E-3,-1.885896549E-3,-3.392685354E-1,3.393222815E-1
2.653305042E0,2.771085128E-3,-3.667126410E-3,-3.462890387E-1,3.463195418E-1
2.663261042E0,1.541237463E-3,-1.406635158E-3,-3.418543637E-1,3.418607319E-1
2.673217042E0,2.157108858E-3,-2.280053683E-3,-3.408081830E-1,3.408226362E-1
2.683173042E0,3.322774544E-3,-3.078202717E-3,-3.382597864E-1,3.382901111E-1
2.693129042E0,6.854850799E-3,-2.875977196E-3,-3.359552026E-1,3.360374360E-1
2.703085042E0,-4.033283913E-4,1.674797386E-5,-3.342992663E-1,3.342995101E-1
2.713041042E0,3.412415041E-3,-2.113264054E-5,-3.329702616E-1,3.329877477E-1
2.722997042E0,1.413712744E-3,-2.013975754E-3,-3.365737796E-1,3.365827740E-1
2.732953042E0,1.941103954E-3,-1.979735680E-3,-3.420535028E-1,3.420647395E-1
2.742909042E0,3.114758991E-3,-2.295058221E-4,-3.411666751E-1,3.411809704E-1
2.752865042E0,8.040154353E-4,6.011025980E-4,-3.349639475E-1,3.349654518E-1
2.762821042E0,4.326045979E-3,-4.121480510E-3,-3.336968422E-1,3.337503315E-1
2.772777042E0,3.086029086E-3,-1.521885395E-3,-3.357610404E-1,3.357786711E-1
2.782733042E0,8.218094590E-4,-7.501011714E-4,-3.380835950E-1,3.380854260E-1
2.792689042E0,4.731738474E-3,1.994281076E-3,-3.441140354E-1,3.441523439E-1
2.802645042E0,6.692890543E-3,8.632373065E-4,-3.422740698E-1,3.423405889E-1
2.812601042E0,4.689360969E-3,9.289477021E-5,-3.381532133E-1,3.381857395E-1
2.822557042E0,3.382547293E-3,-1.648812555E-3,-3.313770592E-1,3.313984242E-1
2.832513042E0,3.598560113E-3,-1.320769079E-3,-3.270258904E-1,3.270483558E-1
2.842469042E0,2.359657548E-3,-3.969548270E-3,-3.240500987E-1,3.240830013E-1
2.852425042E0,2.702017548E-3,-2.036592923E-3,-3.276995122E-1,3.277169799E-1
2.862381042E0,9.432660881E-4,-1.330855303E-3,-3.381947577E-1,3.381986917E-1
2.872337042E0,2.328922506E-3,-1.032492146E-4,-3.458005190E-1,3.458083768E-1
2.882293042E0,2.208814025E-3,-2.824803814E-4,-3.495768607E-1,3.495839530E-1
2.892249042E0,4.635458812E-3,-2.312771976E-3,-3.437745273E-1,3.438135571E-1
2.902205042E0,4.268208984E-3,-1.598511823E-3,-3.386247754E-1,3.386554464E-1
2.912161042E0,5.659794901E-3,-1.389456913E-3,-3.339098096E-1,3.339606636E-1
2.922117042E0,2.183837118E-3,-3.979114816E-3,-3.272415400E-1,3.272730175E-1
2.932073042E0,4.963027313E-3,-2.243247814E-3,-3.286908865E-1,3.287360076E-1
2.942029042E0,5.033335183E-3,-2.972686663E-3,-3.324952126E-1,3.325465948E-1
2.951985042E0,7.285018801E-4,-3.380802460E-3,-3.350653350E-1,3.350831826E-1
2.961941042E0,6.317411549E-3,-2.143763937E-3,-3.373055756E-1,3.373715411E-1
2.971897042E0,3.132010810E-3,-1.627788879E-3,-3.422995210E-1,3.423177197E-1
2.981853042E0,1.954094740E-3,-6.876932457E-4,-3.410758078E-1,3.410820987E-1
2.991809042E0,3.194991150E-4,-5.864035338E-4,-3.372236788E-1,3.372243400E-1
3.001765042E0,3.292385954E-3,-2.495090477E-3,-3.331849873E-1,3.332105956E-1
3.011721042E0,4.363687709E-3,-2.957042307E-5,-3.294239342E-1,3.294528359E-1
3.021677042E0,3.582050093E-3,-7.014861330E-4,-3.292417824E-1,3.292620149E-1
3.031633042E0,5.522560328E-3,-3.079570830E-3,-3.318187892E-1,3.318790312E-1
3.041589042E0,3.274586052E-3,-3.057733178E-3,-3.356572092E-1,3.356871083E-1
3.051545042E0,4.187790211E-3,-2.491557039E-3,-3.358879685E-1,3.359233139E-1
3.061501042E0,1.163770910E-3,-2.598880790E-3,-3.412632942E-1,3.412751742E-1
3.071457042E0,2.959026024E-3,-4.905508831E-4,-3.421481550E-1,3.421613018E-1
3.081413042E0,2.988320775E-3,-1.267394982E-3,-3.442840278E-1,3.442993293E-1
3.091369042E0,3.713872051E-3,-2.055756748E-3,-3.403925598E-1,3.404190267E-1
3.101325042E0,3.219323000E-3,-2.517549321E-3,-3.391491175E-1,3.391737401E-1
3.111281042E0,2.582028508E-3,-4.513121210E-3,-3.331242502E-1,3.331648259E-1
3.121237042E0,2.870715223E-3,-1.948497258E-3,-3.303156793E-1,3.303339002E-1
3.131193042E0,1.757374615E-3,-8.177012205E-6,-3.323289454E-1,3.323335920E-1
3.141149042E0,1.571752364E-3,-1.660668291E-3,-3.346400261E-1,3.346478377E-1
3.151105042E0,2.335392870E-3,-2.080850303E-3,-3.371271491E-1,3.371416596E-1
3.161061042E0,3.076284193E-3,9.997747838E-6,-3.409863412E-1,3.410002178E-1
3.171017042E0,5.649448372E-3,-6.101019681E-4,-3.379381895E-1,3.379859589E-1
3.180973042E0,4.961553961E-3,-1.555790193E-3,-3.312930465E-1,3.313338500E-1
3.190929042E0,4.007305950E-3,-2.419154160E-3,-3.329761624E-1,3.330090623E-1
3.200885042E0,2.907952759E-3,-2.737119794E-4,-3.360180259E-1,3.360307201E-1
3.210841042E0,3.023247933E-3,1.798766665E-3,-3.362777829E-1,3.362961833E-1
3.220797042E0,2.471174579E-3,-2.657234669E-3,-3.365307748E-1,3.365503380E-1
3.230753042E0,3.610341810E-3,-1.768804155E-3,-3.389559388E-1,3.389797807E-1
3.240709042E0,5.598924123E-3,-3.021022305E-3,-3.312141299E-1,3.312752245E-1
3.250665042E0,7.424241048E-4,4.810774699E-4,-3.323548734E-1,3.323560508E-1
3.260620042E0,2.623148495E-3,-8.033653721E-4,-3.356633186E-1,3.356745295E-1
3.270576042E0,1.942246687E-3,-2.315195277E-3,-3.339385390E-1,3.339522126E-1
3.280532042E0,1.713481150E-3,-1.768181100E-3,-3.385016024E-1,3.385105572E-1
3.290488042E0,2.700000303E-3,-2.220770344E-3,-3.394804895E-1,3.394984898E-1
3.300444042E0,2.913585864E-3,-9.893253446E-4,-3.451881707E-1,3.452018843E-1
3.310400042E0,2.268974902E-3,-2.703569829E-3,-3.449170291E-1,3.449350874E-1
3.320356042E0,3.407210112E-3,-8.856961504E-4,-3.417904675E-1,3.418085973E-1
3.330312042E0,4.153986927E-3,-2.330217510E-3,-3.340158165E-1,3.340497735E-1
3.340268042E0,4.578228574E-3,1.955237240E-4,-3.307188153E-1,3.307505604E-1
3.350224042E0,3.664277610E-4,-3.434486687E-3,-3.266783953E-1,3.266966543E-1
3.360180042E0,2.306806855E-3,-1.090638340E-3,-3.305269182E-1,3.305367672E-1
3.370136042E0,1.533873030E-3,1.296502538E-3,-3.409510255E-1,3.409569408E-1
3.380092042E0,3.685973585E-3,-8.248258382E-5,-3.451505899E-1,3.451702811E-1
3.390048042E0,3.950589336E-3,1.964319497E-3,-3.468323648E-1,3.468604258E-1
3.400004042E0,3.619558178E-3,9.280834347E-4,-3.420333564E-1,3.420537669E-1
3.409960042E0,5.084627774E-3,-2.558897249E-3,-3.351721168E-1,3.352204487E-1
3.419916042E0,4.320566542E-3,-1.708550379E-3,-3.327755630E-1,3.328079954E-1
3.429872042E0,3.027512692E-3,-3.561277874E-3,-3.402341604E-1,3.402662670E-1
3.439828042E0,3.992109559E-3,9.064404294E-4,-3.401603699E-1,3.401850023E-1
3.449784042E0,4.197256174E-3,-1.803460531E-3,-3.430269957E-1,3.430574138E-1
3.459740042E0,3.103229683E-3,-4.356605932E-4,-3.382229209E-1,3.382374374E-1
3.469696042E0,3.235151991E-3,3.331666812E-4,-3.376260698E-1,3.376417335E-1
3.479652042E0,2.228210913E-3,-2.025328577E-3,-3.357405663E-1,3.357540688E-1
3.489608042E0,4.229668528E-3,5.567539483E-4,-3.318195939E-1,3.318470174E-1
3.499564042E0,5.154850893E-3,-8.323509246E-4,-3.373560309E-1,3.373964388E-1
3.509520042E0,4.346211441E-3,-8.615171537E-4,-3.393825591E-1,3.394114806E-1
3.519476042E0,3.529419890E-3,-3.222264349E-4,-3.485917747E-1,3.486097905E-1
3.529432042E0,3.853899427E-3,-4.376806319E-4,-3.470358253E-1,3.470574997E-1
3.539388042E0,4.624351859E-3,-9.138546884E-4,-3.409204185E-1,3.409530048E-1
3.549344042E0,4.171261098E-3,-1.885409467E-3,-3.324692845E-1,3.325007960E-1
3.559300042E0,4.377389792E-3,-4.593311809E-3,-3.295760155E-1,3.296370884E-1
3.569256042E0,3.262737067E-3,-2.137100324E-3,-3.316715360E-1,3.316944685E-1
3.579212042E0,3.455017228E-3,-1.767454669E-3,-3.406527638E-1,3.406748693E-1
3.589168042E0,3.936168272E-3,-6.312672049E-4,-3.479301035E-1,3.479529406E-1
3.599124042E0,4.506883677E-3,-2.486958168E-3,-3.526143134E-1,3.526518835E-1
3.609080042E0,5.931001157E-3,7.598055527E-4,-3.498596251E-1,3.499107191E-1
3.619036042E0,1.961559756E-3,2.468805760E-4,-3.447159827E-1,3.447216520E-1
3.628992042E0,2.277076244E-3,-1.245629974E-3,-3.337082863E-1,3.337183798E-1
3.638948042E0,2.865368500E-3,-2.581472509E-3,-3.263715506E-1,3.263943372E-1
3.648904042E0,4.109886009E-3,-3.113446757E-3,-3.246330917E-1,3.246740349E-1
3.658860042E0,3.432910657E-3,-9.874459356E-4,-3.293354213E-1,3.293547930E-1
3.668816042E0,1.214676537E-3,-1.402478665E-3,-3.403786123E-1,3.403836689E-1
3.678772042E0,4.074911587E-3,1.438582316E-3,-3.479952514E-1,3.480220818E-1
3.688728042E0,2.283411333E-3,1.820083708E-5,-3.452350199E-1,3.452425716E-1
3.698684042E0,3.023503814E-3,-6.153648719E-4,-3.411944807E-1,3.412084317E-1
3.708640042E0,1.961921342E-3,-2.560900524E-3,-3.376497626E-1,3.376651737E-1
3.718596042E0,2.888701390E-3,-2.563562244E-3,-3.366731703E-1,3.366953223E-1
3.728552042E0,4.699801095E-3,-3.044614568E-4,-3.368998170E-1,3.369327344E-1
3.738508042E0,3.698452609E-3,-3.286963329E-4,-3.388119638E-1,3.388323087E-1
3.748464042E0,3.484999761E-3,-5.392357707E-7,-3.389126360E-1,3.389305535E-1
3.758420042E0,1.181631582E-3,-1.049824059E-3,-3.353234828E-1,3.353272081E-1
3.768376042E0,3.419521498E-3,-1.766058616E-3,-3.292189837E-1,3.292414787E-1
3.778332042E0,5.183067173E-3,-2.295762300E-3,-3.298397660E-1,3.298884750E-1
3.788288042E0,6.099552382E-3,-4.288095981E-3,-3.301651180E-1,3.302492959E-1
3.798244042E0,3.530667396E-3,-3.521105275E-3,-3.311054707E-1,3.311430152E-1
3.808200042E0,1.849181019E-3,3.930646926E-5,-3.365426064E-1,3.365476889E-1
3.818156042E0,3.876381961E-4,-1.932763495E-3,-3.464181423E-1,3.464237509E-1
3.828112042E0,3.601900302E-3,2.009971067E-4,-3.487032652E-1,3.487219254E-1
3.838068042E0,2.635172801E-3,1.759213395E-3,-3.420767784E-1,3.420914517E-1
3.848024042E0,5.384865217E-3,-2.298598178E-3,-3.326689303E-1,3.327204495E-1
3.857980042E0,2.140602097E-3,-2.934827469E-3,-3.254352510E-1,3.254555238E-1
3.867936042E0,3.912987188E-3,-1.509479247E-3,-3.264120221E-1,3.264389655E-1
3.877892042E0,3.437612904E-3,-3.365702927E-3,-3.349431753E-1,3.349777244E-1
3.887848042E0,3.101964016E-3,-5.654655397E-4,-3.422863483E-1,3.423008709E-1
3.897804042E0,1.709397300E-3,-6.363056600E-4,-3.452051878E-1,3.452100065E-1
3.907760042E0,4.153507762E-3,9.168265387E-4,-3.481467962E-1,3.481727788E-1
3.917716042E0,2.821394475E-3,5.320003256E-4,-3.419807553E-1,3.419928074E-1
3.927672042E0,4.203384742E-3,-1.235703006E-3,-3.300062120E-1,3.300352941E-1
3.937628042E0,3.112287493E-3,-1.698826440E-3,-3.247339725E-1,3.247533299E-1
3.947584042E0,2.938089892E-3,5.585663021E-4,-3.244135976E-1,3.244273827E-1
3.957540042E0,4.350097850E-3,-3.867873922E-3,-3.321090937E-1,3.321601028E-1
3.967496042E0,3.929242026E-3,4.242779687E-4,-3.366962671E-1,3.367194608E-1
3.977452042E0,2.767571248E-3,-2.081223764E-3,-3.418710530E-1,3.418885898E-1
3.987408042E0,4.879428539E-3,-5.332026631E-4,-3.404752612E-1,3.405106410E-1
3.997364042E0,4.788348451E-3,-3.568408079E-3,-3.385854661E-1,3.386381250E-1
4.007320042E0,2.713268623E-3,-2.740489319E-3,-3.331345022E-1,3.331568229E-1
4.017276042E0,3.923142329E-3,-2.108253539E-3,-3.321744502E-1,3.322043063E-1
4.027232042E0,3.305568593E-3,-5.452651531E-4,-3.373359442E-1,3.373525801E-1
4.037188042E0,2.973472467E-3,6.380025297E-5,-3.434233963E-1,3.434362747E-1
4.047144042E0,2.738419455E-3,-2.336445265E-3,-3.381609917E-1,3.381801505E-1
4.057100042E0,2.325363224E-3,-2.254952677E-3,-3.307808340E-1,3.307966932E-1
4.067056042E0,4.365799949E-3,-2.160542645E-3,-3.299672604E-1,3.300032137E-1
4.077012042E0,4.219059832E-3,-3.484399058E-3,-3.310820460E-1,3.311272606E-1
4.086968042E0,4.496103618E-3,-8.872756734E-4,-3.391460180E-1,3.391769800E-1
4.096924042E0,3.964270465E-3,-2.534439787E-3,-3.438597918E-1,3.438919819E-1
4.106880042E0,3.747544717E-3,1.580528915E-4,-3.430835605E-1,3.431040637E-1
4.116836042E0,9.038214339E-4,-2.523483709E-3,-3.358221948E-1,3.358328921E-1
4.126792042E0,2.274154685E-3,-1.623866148E-3,-3.296125531E-1,3.296243982E-1
4.136747042E0,1.570813707E-3,-1.150622033E-3,-3.323585391E-1,3.323642428E-1
4.146703042E0,3.428989323E-3,-3.871843219E-3,-3.389551342E-1,3.389945901E-1
4.156659042E0,8.854042389E-4,1.855283976E-3,-3.404861689E-1,3.404923747E-1
4.166615042E0,3.269932931E-3,3.277668729E-4,-3.423800766E-1,3.423958481E-1
4.176571042E0,1.058710273E-3,-1.055745408E-3,-3.395624459E-1,3.395657375E-1
4.186527042E0,4.162706900E-3,2.704123035E-4,-3.348628581E-1,3.348888397E-1
4.196483042E0,2.094496042E-3,-8.814046159E-4,-3.312159181E-1,3.312237132E-1
4.206439042E0,2.029336989E-3,-5.080718547E-4,-3.344441652E-1,3.344507079E-1
4.216395042E0,3.584356979E-3,9.500086308E-4,-3.400676847E-1,3.400879008E-1
4.226351042E0,2.970777452E-3,1.477368176E-3,-3.438070714E-1,3.438230803E-1
4.236307333E0,5.685604177E-3,6.757574156E-4,-3.504194319E-1,3.504662052E-1
4.246263333E0,3.318082890E-4,-3.700600937E-4,-3.442538083E-1,3.442541671E-1
4.256219333E0,3.433059203E-3,-2.190596424E-3,-3.348403275E-1,3.348650915E-1
4.266175333E0,5.482442677E-3,-1.149055548E-3,-3.286063969E-1,3.286541367E-1
4.276131333E0,4.903205205E-3,-2.539759502E-3,-3.295033574E-1,3.295496235E-1
4.286087333E0,3.989329562E-3,-2.318863757E-3,-3.313933611E-1,3.314254843E-1
4.296043333E0,3.219942329E-3,2.928981557E-4,-3.389348984E-1,3.389503196E-1
4.305999333E0,2.833829494E-3,-1.031682827E-3,-3.426908553E-1,3.427041249E-1
4.315955333E0,2.694546245E-3,-1.970978454E-3,-3.448538780E-1,3.448700371E-1
4.325911333E0,5.938463844E-3,-4.259506240E-3,-3.406699002E-1,3.407482790E-1
4.335867333E0,9.189379052E-4,-1.640971750E-4,-3.385353684E-1,3.385366554E-1
4.345823333E0,1.517578494E-3,-1.481517218E-3,-3.371465504E-1,3.371532209E-1
4.355779333E0,6.334090722E-4,-1.695635729E-3,-3.390552402E-1,3.390600718E-1
4.365735333E0,5.202320404E-3,-2.713249996E-4,-3.373594284E-1,3.373996468E-1
4.375691333E0,4.182595760E-3,-2.205845900E-3,-3.332206011E-1,3.332541505E-1
4.385647333E0,6.606953219E-3,-2.186164260E-3,-3.288566768E-1,3.289303042E-1
4.395603333E0,2.009804826E-3,-1.292141154E-3,-3.350064456E-1,3.350149662E-1
4.405559333E0,1.258094097E-3,-1.459027641E-3,-3.439196050E-1,3.439250009E-1
4.415515333E0,2.016296145E-3,1.351140440E-3,-3.482499123E-1,3.482583702E-1
4.425471333E0,4.165436607E-3,-1.593361609E-3,-3.454748392E-1,3.455036240E-1
4.435427333E0,4.419768229E-3,1.855165698E-3,-3.412255049E-1,3.412591701E-1
4.445383333E0,2.207112266E-3,-3.640260547E-4,-3.328787684E-1,3.328862844E-1
4.455339333E0,2.360776532E-3,-2.503875643E-3,-3.306606114E-1,3.306785185E-1
4.465295333E0,3.956987523E-3,-2.786196768E-3,-3.302126229E-1,3.302480839E-1
4.475251333E0,4.123168532E-3,-7.166545838E-4,-3.362215161E-1,3.362475606E-1
4.485207333E0,1.643285737E-3,-2.046291716E-3,-3.415500522E-1,3.415601350E-1
4.495163333E0,3.866492538E-3,-3.401574679E-3,-3.459700942E-1,3.460084198E-1
4.505119333E0,3.543599509E-3,6.642471999E-5,-3.433887661E-1,3.434070561E-1
4.515075333E0,2.558762440E-3,1.295473427E-3,-3.361947536E-1,3.362069867E-1
4.525031333E0,3.810980590E-3,-1.311944798E-3,-3.277575374E-1,3.277823181E-1
4.534987333E0,5.005674437E-3,-1.672004350E-3,-3.293194771E-1,3.293617621E-1
4.544943333E0,2.730869222E-3,-1.616443507E-3,-3.373309076E-1,3.373458340E-1
4.554899333E0,1.762011205E-3,-1.565576531E-3,-3.426178396E-1,3.426259472E-1
4.564855333E0,3.471733071E-3,8.080760017E-4,-3.445081413E-1,3.445265814E-1
4.574811333E0,2.492754953E-3,-1.402347349E-3,-3.363657892E-1,3.363779489E-1
4.584767333E0,5.094115622E-3,-3.831647336E-5,-3.263221085E-1,3.263618697E-1
4.594723333E0,3.253338858E-3,-1.099320129E-3,-3.228424489E-1,3.228607123E-1
4.604679333E0,4.320955835E-3,-2.154778689E-3,-3.264495730E-1,3.264852791E-1
4.614635333E0,3.520470054E-4,-3.909682855E-4,-3.424141407E-1,3.424145449E-1
4.624591333E0,2.265868941E-3,5.393549800E-4,-3.523564041E-1,3.523641022E-1
4.634547333E0,8.533282671E-4,-1.027915627E-3,-3.528009057E-1,3.528034351E-1
4.644503333E0,4.318073858E-3,-1.724256203E-3,-3.424127400E-1,3.424443069E-1
4.654459333E0,5.423551891E-3,-5.415473133E-4,-3.303709924E-1,3.304159512E-1
4.664415333E0,1.665247371E-3,-6.139585748E-4,-3.241176605E-1,3.241225198E-1
4.674371333E0,3.276193514E-3,-1.314636320E-3,-3.319345713E-1,3.319533421E-1
4.684327333E0,5.534179509E-3,-2.365602180E-3,-3.352887630E-1,3.353427766E-1
4.694283333E0,4.151466303E-3,-2.370662987E-3,-3.425706327E-1,3.426039887E-1
4.704239333E0,2.746120328E-3,-4.359446466E-4,-3.441785276E-1,3.441897588E-1
4.714195333E0,1.495499862E-3,7.132086903E-4,-3.422445357E-1,3.422485462E-1
4.724151333E0,4.789609462E-3,-2.396994270E-3,-3.374991417E-1,3.375416368E-1
4.734107333E0,5.606667139E-3,-1.615369692E-4,-3.315858543E-1,3.316332908E-1
4.744063333E0,1.290189801E-3,-1.652279869E-3,-3.322446048E-1,3.322512183E-1
4.754019333E0,4.322198685E-3,-3.424613737E-3,-3.396274149E-1,3.396721807E-1
4.763975333E0,4.758352414E-3,-2.109705471E-3,-3.431909978E-1,3.432304674E-1
4.773931333E0,2.432613634E-3,1.723117195E-3,-3.383547068E-1,3.383678388E-1
4.783887333E0,4.910256248E-4,-4.812479019E-4,-3.329621851E-1,3.329628950E-1
4.793843333E0,1.231384464E-3,-1.953975298E-3,-3.317155540E-1,3.317235944E-1
4.803799333E0,1.247685635E-3,5.975700915E-4,-3.308641016E-1,3.308669938E-1
4.813755333E0,3.756916150E-3,-1.534024253E-3,-3.345954716E-1,3.346200790E-1
4.823711333E0,3.340724157E-3,7.070302963E-4,-3.427242935E-1,3.427413043E-1
4.833667333E0,3.725817194E-3,-6.173597649E-4,-3.425852656E-1,3.426060815E-1
4.843623333E0,-3.611442517E-4,-9.248033166E-7,-3.374467790E-1,3.374469723E-1
4.853579333E0,4.466101527E-3,-5.913479254E-4,-3.353133202E-1,3.353435827E-1
4.863535333E0,3.018056974E-3,-2.411263064E-3,-3.363177478E-1,3.363399328E-1
4.873491333E0,7.717204746E-3,-1.924969256E-3,-3.361089528E-1,3.362030471E-1
4.883447333E0,1.901845448E-3,-1.371601596E-3,-3.379133344E-1,3.379214699E-1
4.893403333E0,3.639824223E-3,-8.240556344E-4,-3.368089199E-1,3.368295948E-1
4.903359333E0,4.417603835E-3,-2.313792706E-3,-3.361513615E-1,3.361883500E-1
4.913315333E0,-9.044572362E-4,-1.967314631E-3,-3.385596573E-1,3.385665813E-1
4.923271333E0,4.056253005E-3,7.459111512E-4,-3.408293128E-1,3.408542651E-1
4.933227333E0,-3.970847465E-4,-7.647275925E-5,-3.413454294E-1,3.413456689E-1
4.943183333E0,4.334125202E-3,-3.296907991E-3,-3.375793397E-1,3.376232588E-1
4.953139333E0,3.234772244E-3,-1.296075061E-3,-3.365087509E-1,3.365267939E-1
4.963095333E0,1.350225182E-3,-1.500044949E-3,-3.340769410E-1,3.340830372E-1
4.973051333E0,3.122559050E-3,-2.273960039E-3,-3.355052173E-1,3.355274536E-1
4.983007333E0,1.810189802E-3,-2.757625654E-3,-3.381164968E-1,3.381325874E-1
4.992963333E0,2.641628729E-3,-9.975433350E-4,-3.388917446E-1,3.389035082E-1
5.002919333E0,3.556035692E-3,-7.952107117E-4,-3.276530802E-1,3.276733415E-1
5.012875333E0,1.165049616E-3,-4.395006225E-3,-3.249984384E-1,3.250302422E-1
5.022831333E0,2.904540859E-3,-3.233253956E-4,-3.249318004E-1,3.249449427E-1
5.032787333E0,3.285905812E-3,1.677609980E-4,-3.296376169E-1,3.296540365E-1
5.042743333E0,3.230745438E-3,-1.272667199E-3,-3.339339793E-1,3.339520324E-1
5.052699333E0,4.423575010E-3,6.485367194E-4,-3.429969847E-1,3.430261217E-1
5.062655333E0,1.608273247E-3,2.045929432E-4,-3.487812579E-1,3.487850258E-1
5.072611333E0,3.532939823E-3,-2.231933177E-3,-3.448382020E-1,3.448635219E-1
5.082567333E0,1.245191554E-3,-1.853402704E-3,-3.359261155E-1,3.359335361E-1
5.092523333E0,2.333092736E-3,-4.451848567E-3,-3.275520504E-1,3.275906103E-1
5.102479333E0,5.985463969E-3,-4.009080119E-3,-3.227954507E-1,3.228758298E-1
5.112435333E0,1.286848681E-3,-2.816515975E-3,-3.267204165E-1,3.267350904E-1
5.122391333E0,3.046334023E-3,7.563363761E-5,-3.369892538E-1,3.370030312E-1
5.132347333E0,2.970434027E-3,-2.451705746E-3,-3.461726308E-1,3.461940563E-1
5.142303333E0,4.398416262E-3,1.699011773E-5,-3.519904912E-1,3.520179714E-1
5.152259333E0,9.845101740E-4,3.629345447E-4,-3.478719294E-1,3.478735119E-1
5.162215333E0,-8.820299990E-5,1.228488982E-3,-3.353616595E-1,3.353639212E-1
5.172171333E0,9.592182469E-4,-1.426949166E-3,-3.280305266E-1,3.280350327E-1
5.182127333E0,2.746319398E-3,4.635117948E-4,-3.337832391E-1,3.337948589E-1
5.192083333E0,3.354585264E-3,-9.759264067E-4,-3.433620930E-1,3.433798663E-1
5.202039333E0,-3.862892627E-4,1.213307492E-3,-3.431296051E-1,3.431319676E-1
5.211995333E0,2.953048330E-3,-9.241458029E-4,-3.432486355E-1,3.432625822E-1
5.221951333E0,3.837567754E-3,-1.527659595E-3,-3.378115296E-1,3.378367805E-1
5.231907333E0,1.703843358E-3,-1.280518249E-3,-3.308236599E-1,3.308305257E-1
5.241862542E0,1.520779217E-3,-7.702317089E-4,-3.284911811E-1,3.284956044E-1
5.251818542E0,3.053162014E-3,-8.056517690E-4,-3.302219808E-1,3.302370777E-1
5.261774542E0,2.630619565E-3,-1.917581074E-3,-3.368580639E-1,3.368737932E-1
5.271730542E0,3.499076469E-3,6.837947294E-4,-3.464611471E-1,3.464794908E-1
5.281686542E0,3.914723638E-3,1.078791916E-3,-3.500041068E-1,3.500276612E-1
5.291642542E0,4.093155265E-3,-1.041883603E-3,-3.430367410E-1,3.430627423E-1
5.301598542E0,7.706695469E-4,-6.147380918E-4,-3.334804773E-1,3.334819344E-1
5.311554542E0,4.682241706E-5,-4.482902586E-4,-3.234169185E-1,3.234172326E-1
5.321510542E0,3.899128642E-3,-5.590291694E-4,-3.242296278E-1,3.242535540E-1
5.331466542E0,2.464483725E-3,-1.699928194E-3,-3.306670189E-1,3.306805722E-1
5.341422542E0,2.875643084E-3,-6.997259334E-4,-3.403350115E-1,3.403478794E-1
5.351378542E0,2.485223813E-3,2.243067138E-3,-3.498257101E-1,3.498417287E-1
5.361334542E0,3.499218961E-3,-1.064684242E-3,-3.428619206E-1,3.428814295E-1
5.371290542E0,2.413980896E-3,6.671687588E-4,-3.359139860E-1,3.359233222E-1
5.381246542E0,5.003191996E-3,-1.258577220E-3,-3.330042362E-1,3.330441972E-1
5.391202542E0,2.852423582E-3,1.009665430E-4,-3.322332501E-1,3.322455101E-1
5.401158542E0,3.991110250E-3,-4.749074578E-4,-3.375416994E-1,3.375656282E-1
5.411114542E0,4.038248211E-3,4.462795332E-4,-3.437396884E-1,3.437636979E-1
5.421070542E0,3.356351983E-3,5.758274347E-4,-3.431590497E-1,3.431759463E-1
5.431026542E0,5.894077942E-3,-1.261753961E-3,-3.380455077E-1,3.380992420E-1
5.440982542E0,3.685222240E-3,-3.271781839E-3,-3.343749642E-1,3.344112769E-1
5.450938542E0,4.127573222E-3,-1.583070494E-3,-3.338798881E-1,3.339091532E-1
5.460894542E0,4.674885888E-3,-2.059964463E-3,-3.341717124E-1,3.342107589E-1
5.470850542E0,1.441541826E-3,-1.475933008E-3,-3.413622379E-1,3.413684723E-1
5.480806542E0,3.392212093E-3,1.034188084E-3,-3.460429013E-1,3.460610729E-1
5.490762542E0,1.530928770E-3,-1.775713637E-3,-3.446199596E-1,3.446279348E-1
5.500718542E0,3.198894206E-3,-2.205030061E-3,-3.372802138E-1,3.373025907E-1
5.510674542E0,3.433252452E-3,-2.206894569E-3,-3.324976861E-1,3.325227344E-1
5.520630542E0,4.683753010E-3,-2.710056491E-3,-3.291667402E-1,3.292112161E-1
5.530586542E0,2.701029647E-3,-3.964404576E-3,-3.301353157E-1,3.301701663E-1
5.540542542E0,3.611041931E-3,-2.986690961E-3,-3.419868648E-1,3.420189697E-1
5.550498542E0,2.037646482E-3,-3.879115917E-3,-3.498344123E-1,3.498618522E-1
5.560454542E0,2.837058622E-3,6.359079853E-4,-3.476496637E-1,3.476618212E-1
5.570410542E0,3.467366623E-4,-1.359065995E-3,-3.422410488E-1,3.422439229E-1
5.580366542E0,6.805438315E-4,-2.523746341E-3,-3.350938261E-1,3.351040207E-1
5.590322542E0,5.141604692E-3,-1.495378092E-4,-3.330607712E-1,3.331004890E-1
5.600278542E0,1.766529866E-3,-4.270207137E-4,-3.372547626E-1,3.372596595E-1
5.610234542E0,1.556938980E-3,1.266784966E-5,-3.430939913E-1,3.430975241E-1
5.620190542E0,3.522144631E-3,1.245118678E-3,-3.391742110E-1,3.391947836E-1
5.630146542E0,-2.059041988E-3,-2.309136093E-3,-3.333653212E-1,3.333796771E-1
5.640102542E0,1.195300836E-3,-9.154751897E-4,-3.324158490E-1,3.324192586E-1
5.650058542E0,1.902902732E-3,-3.508850932E-4,-3.319939971E-1,3.319996359E-1
5.660014542E0,4.441441502E-3,-1.244926825E-4,-3.378317952E-1,3.378610125E-1
5.669970542E0,1.563097117E-3,-7.122522220E-4,-3.487776518E-1,3.487818816E-1
5.679926542E0,2.835263265E-3,1.864085905E-3,-3.501569033E-1,3.501733434E-1
5.689882542E0,1.870932756E-3,-1.096284017E-3,-3.474189341E-1,3.474257014E-1
5.699838542E0,2.346305875E-3,-9.417971596E-4,-3.378771842E-1,3.378866433E-1
5.709794542E0,2.013410907E-3,-2.086956054E-3,-3.296371102E-1,3.296498652E-1
5.719750542E0,6.295334082E-3,-1.582304016E-3,-3.228913844E-1,3.229566240E-1
5.729706542E0,1.876351074E-3,-3.026537597E-3,-3.285423517E-1,3.285616495E-1
5.739662542E0,6.071588956E-3,4.864512011E-4,-3.378567696E-1,3.379116712E-1
5.749618542E0,1.789225964E-3,-2.282704227E-3,-3.423644602E-1,3.423767453E-1
5.759574542E0,3.734574886E-3,-8.450224996E-4,-3.451032639E-1,3.451245048E-1
5.769530542E0,4.608890973E-3,-1.947570592E-3,-3.416065276E-1,3.416431685E-1
5.779486542E0,5.937334150E-3,-2.336241305E-4,-3.380292058E-1,3.380814258E-1
5.789442542E0,4.381249193E-3,-1.004343852E-3,-3.328299224E-1,3.328602730E-1
5.799398542E0,1.192925265E-3,-5.570258945E-4,-3.355574608E-1,3.355600436E-1
5.809354542E0,-5.703536444E-4,-3.418419510E-4,-3.388454020E-1,3.388460545E-1
5.819310542E0,1.584626036E-3,5.918573588E-4,-3.442518711E-1,3.442560270E-1
5.829266542E0,1.251997193E-3,-7.660882547E-4,-3.422739208E-1,3.422770679E-1
5.839222542E0,1.199701335E-3,-7.967874408E-4,-3.328124285E-1,3.328155446E-1
5.849178542E0,5.373939872E-3,-2.165652812E-3,-3.236327767E-1,3.236846358E-1
5.859134542E0,1.540773897E-3,-7.988195866E-4,-3.274436593E-1,3.274482587E-1
5.869090542E0,3.160508350E-3,-1.316271722E-3,-3.329889178E-1,3.330065176E-1
5.879046542E0,6.299155299E-3,1.964146271E-3,-3.445469737E-1,3.446101483E-1
5.889002542E0,3.792055883E-3,-5.671884865E-4,-3.513790369E-1,3.513999558E-1
5.898958542E0,3.738601692E-3,7.530655712E-4,-3.511165977E-1,3.511373085E-1
5.908914542E0,2.258416731E-3,-2.309726551E-4,-3.383997381E-1,3.384073529E-1
5.918870542E0,2.481616801E-3,-2.057226375E-4,-3.303302228E-1,3.303396084E-1
5.928826542E0,6.625761744E-3,-2.566348761E-3,-3.251096308E-1,3.251872675E-1
5.938782542E0,3.963521216E-3,-2.620264888E-3,-3.300403953E-1,3.300745943E-1
5.948738542E0,2.920361236E-3,-1.961132511E-3,-3.413298130E-1,3.413479395E-1
5.958694542E0,4.347448237E-3,9.010024369E-4,-3.497825563E-1,3.498107328E-1
5.968650542E0,2.295482904E-3,-1.023131423E-3,-3.447278738E-1,3.447370346E-1
5.978606542E0,3.043921897E-3,-1.721642911E-3,-3.353266418E-1,3.353448765E-1
5.988562542E0,2.953374526E-3,-2.120051533E-3,-3.278367519E-1,3.278569093E-1
5.998518542E0,5.081140902E-3,-1.245639287E-3,-3.333517313E-1,3.333927809E-1
6.008474542E0,2.682698192E-3,-3.220639192E-3,-3.371171653E-1,3.371432226E-1
6.018430542E0,6.483627949E-4,2.071820199E-4,-3.484138846E-1,3.484145495E-1
6.028386542E0,6.893755053E-4,-2.309074625E-4,-3.497249484E-1,3.497257041E-1
6.038342542E0,3.332649823E-3,-1.004602760E-3,-3.376676142E-1,3.376855541E-1
6.048298542E0,3.278853837E-3,-1.255738549E-3,-3.274418712E-1,3.274606950E-1
6.058254542E0,4.532599356E-3,-1.669991761E-4,-3.212341964E-1,3.212662156E-1
6.068210542E0,3.425789531E-3,-3.209659830E-3,-3.242544830E-1,3.242884637E-1
6.078166542E0,3.681659698E-3,-3.003105521E-3,-3.349176347E-1,3.349513328E-1
6.088122542E0,2.632640535E-3,7.048137486E-4,-3.469671011E-1,3.469778045E-1
6.098078542E0,1.627861755E-3,1.946773380E-3,-3.539244235E-1,3.539335211E-1
6.108034542E0,4.109128844E-3,1.389640383E-3,-3.496487141E-1,3.496756201E-1
6.117990542E0,3.287042258E-3,6.985170767E-4,-3.418015242E-1,3.418180430E-1
6.127946542E0,1.492338022E-3,8.266149089E-4,-3.336868584E-1,3.336912193E-1
6.137902542E0,4.466752987E-3,-2.131167799E-3,-3.294097483E-1,3.294469245E-1
6.147858542E0,2.886167029E-3,-1.978302374E-3,-3.315136433E-1,3.315321090E-1
6.157814542E0,3.173645120E-3,7.585948333E-4,-3.396333456E-1,3.396490202E-1
6.167770542E0,-4.232202191E-4,-9.707827121E-5,-3.420845270E-1,3.420848026E-1
6.177726542E0,2.890907228E-3,-1.897376031E-3,-3.400433958E-1,3.400609774E-1
6.187682542E0,1.174766105E-3,-2.172747627E-3,-3.368755579E-1,3.368846129E-1
6.197638542E0,5.967789795E-3,-2.513585612E-3,-3.310347497E-1,3.310980794E-1
6.207594542E0,2.668666188E-3,-1.880019903E-3,-3.305838704E-1,3.305999873E-1
6.217550542E0,4.998576827E-3,-2.811411396E-4,-3.355297744E-1,3.355671234E-1
6.227506542E0,2.767114202E-3,-1.162913628E-3,-3.363606632E-1,3.363740552E-1
6.237462542E0,2.781581832E-3,-8.303485811E-5,-3.369300067E-1,3.369414987E-1
6.247418542E0,3.740053624E-3,-1.582394354E-3,-3.357150555E-1,3.357396170E-1
6.257374542E0,4.001900088E-3,-4.003617913E-3,-3.369784951E-1,3.370260381E-1
6.267330542E0,2.664460335E-3,7.157688960E-4,-3.366250992E-1,3.366364049E-1
6.277286542E0,3.230970120E-3,-1.888129860E-3,-3.351954520E-1,3.352163409E-1
6.287242542E0,1.919895876E-3,-1.953376457E-3,-3.344284594E-1,3.344396749E-1
6.297198542E0,1.380921341E-3,-2.041297033E-3,-3.345393538E-1,3.345484316E-1
6.307154542E0,3.315175418E-3,-9.901467711E-4,-3.334415853E-1,3.334595352E-1
6.317110542E0,2.835398540E-3,-1.408522949E-3,-3.374571502E-1,3.374720013E-1
6.327066542E0,5.511076190E-3,7.321257144E-4,-3.410271406E-1,3.410724536E-1
6.337022542E0,2.762398799E-4,-4.172837362E-4,-3.395740986E-1,3.395744673E-1
6.346978542E0,3.619572148E-3,7.172226906E-4,-3.323718607E-1,3.323923428E-1
6.356934542E0,3.831816837E-3,-1.059306785E-3,-3.288103938E-1,3.288344265E-1
6.366890542E0,3.199316096E-3,-9.008487687E-4,-3.230422437E-1,3.230593419E-1
6.376846542E0,6.224290002E-3,-1.436870545E-3,-3.270683885E-1,3.271307645E-1
6.386802542E0,2.410110552E-3,-1.151431352E-4,-3.304868042E-1,3.304956122E-1
6.396758542E0,5.654970184E-3,-3.207813948E-3,-3.352778554E-1,3.353408849E-1
6.406714542E0,1.354497974E-3,-3.462471068E-4,-3.409615755E-1,3.409644417E-1
6.416670542E0,3.779564984E-3,-3.700563684E-4,-3.448633254E-1,3.448842345E-1
6.426626542E0,2.620290965E-3,-3.799106926E-4,-3.425415754E-1,3.425518080E-1
6.436582542E0,2.353376331E-4,1.462308690E-3,-3.371840417E-1,3.371872947E-1
6.446538542E0,1.336048736E-4,7.592337206E-4,-3.312388062E-1,3.312397033E-1
6.456494542E0,3.800862934E-3,-9.655160829E-4,-3.252721727E-1,3.252958117E-1
6.466450542E0,4.184091929E-3,-1.701081172E-3,-3.273030818E-1,3.273342445E-1