"Time (s)","Gyroscope x (rad/s)","Gyroscope y (rad/s)","Gyroscope z (rad/s)","Absolute (rad/s)"
-2.031583332E-3,-2.361234510E-4,2.527972683E-4,7.753256708E-2,7.753333876E-2
7.924416666E-3,-1.486211200E-3,1.844302751E-3,7.833258063E-2,7.836838306E-2
1.788041667E-2,5.412846804E-4,1.162145287E-3,7.695870847E-2,7.696938599E-2
2.783641667E-2,-4.363617627E-4,-5.862200633E-4,7.659251988E-2,7.659600621E-2
3.779241667E-2,-1.216666657E-3,1.360103488E-3,7.445280254E-2,7.447516341E-2
4.774850000E-2,-1.013733796E-3,2.205923200E-3,7.615163177E-2,7.619031943E-2
5.770450000E-2,-2.374187578E-3,6.085447967E-4,7.793157548E-2,7.797010677E-2
6.766050000E-2,-4.484559176E-4,1.564886421E-3,7.758323103E-2,7.760030747E-2
7.761650000E-2,1.287087798E-4,8.657807484E-4,7.732010633E-2,7.732506052E-2
8.757250000E-2,-4.681056598E-4,-3.302441910E-4,7.606522739E-2,7.606738461E-2
9.752850000E-2,-5.885182181E-4,1.684483141E-4,7.385375351E-2,7.385629043E-2
1.074845000E-1,-3.746664152E-4,3.623263910E-4,7.571849972E-2,7.572029355E-2
1.174405000E-1,-8.415954653E-5,1.812420785E-3,7.662242651E-2,7.664390515E-2
1.273965000E-1,-3.160377033E-3,9.663347155E-4,7.680005580E-2,7.687112824E-2
1.373525000E-1,-2.209929982E-3,3.315584734E-3,7.724834979E-2,7.735104678E-2
1.473085000E-1,-8.863389958E-4,9.203376248E-4,7.829523832E-2,7.830566366E-2
1.572645000E-1,-6.280653179E-4,2.690638416E-3,7.634098083E-2,7.639096383E-2
1.672205000E-1,-1.361795003E-4,9.457347915E-4,7.639823854E-2,7.640421331E-2
1.771765000E-1,-1.704383874E-3,9.875539690E-4,7.740870863E-2,7.743376756E-2
1.871325000E-1,3.236046294E-3,2.312166616E-4,7.736875862E-2,7.743675011E-2
1.970885000E-1,-2.992590889E-3,1.139333472E-3,7.980354130E-2,7.986775874E-2
2.070445000E-1,1.367003657E-3,2.174237743E-3,8.010713756E-2,8.014829691E-2
2.170005000E-1,-3.006814513E-4,2.926880494E-3,7.894869894E-2,7.900350690E-2
2.269565000E-1,1.229837188E-3,8.876975626E-4,7.454595715E-2,7.456138567E-2
2.369125000E-1,2.085748129E-3,2.055777237E-3,7.417110354E-2,7.422889710E-2
2.468685000E-1,-1.085544238E-3,-1.198604703E-3,7.156813145E-2,7.158639884E-2
2.568245000E-1,-3.733052872E-4,-8.513927460E-4,7.515938580E-2,7.516513487E-2
2.667805000E-1,-2.447641455E-3,1.498579979E-3,7.778047025E-2,7.783340056E-2
2.767365000E-1,-4.834542051E-5,1.670599915E-3,8.105202764E-2,8.106925697E-2
2.866925000E-1,-2.811108483E-3,1.127847470E-3,8.243820071E-2,8.249382587E-2
2.966485000E-1,1.072062645E-3,7.819347084E-4,7.809620351E-2,7.810747558E-2
3.066045000E-1,-1.517595141E-3,1.612042077E-3,7.599923015E-2,7.603147215E-2
3.165595000E-1,4.720961442E-4,-1.796108671E-3,7.487627119E-2,7.489929818E-2
3.265155000E-1,-1.653372659E-3,1.695827581E-3,7.231751084E-2,7.235628409E-2
3.364715000E-1,-2.005625051E-3,3.043271601E-3,7.649986446E-2,7.658663915E-2
3.464275000E-1,-5.619088188E-5,-4.934063181E-4,7.977075875E-2,7.977230446E-2
3.563835000E-1,-9.851090144E-4,1.093142666E-3,7.961918414E-2,7.963278146E-2
3.663395000E-1,6.974760327E-4,5.756905302E-4,7.906418294E-2,7.906935510E-2
3.762955000E-1,-1.408221084E-3,-1.517551020E-3,7.799705118E-2,7.802452205E-2
3.862515000E-1,-4.601432011E-5,-7.082168013E-4,7.245901227E-2,7.246248786E-2
3.962075000E-1,1.464860979E-4,2.614664845E-3,6.849776953E-2,6.854781077E-2
4.061635000E-1,9.598154575E-4,-1.273257658E-4,7.109248638E-2,7.109907930E-2
4.161195000E-1,3.496180288E-4,1.209756359E-3,7.665655017E-2,7.666689264E-2
4.260755000E-1,3.086053184E-4,1.660895534E-3,8.105050027E-2,8.106810350E-2
4.360315000E-1,-1.115901396E-3,3.048168495E-3,8.262983710E-2,8.269357016E-2
4.459875000E-1,9.629621636E-4,-1.574280672E-3,7.766810060E-2,7.769002192E-2
4.559435000E-1,-1.502879895E-3,2.049393952E-4,7.373066992E-2,7.374626997E-2
4.658995000E-1,7.456270978E-4,1.333586872E-3,7.321454585E-2,7.323048639E-2
4.758555000E-1,-3.013717942E-3,3.345143981E-3,7.604235411E-2,7.617553480E-2
4.858115000E-1,1.023633871E-3,1.693984494E-3,7.771162689E-2,7.773682759E-2
4.957675000E-1,1.010826090E-4,-6.361715496E-4,7.946112752E-2,7.946373839E-2
5.057235000E-1,-1.473111915E-3,2.659490332E-3,7.789066434E-2,7.794997459E-2
5.156795000E-1,-3.157658037E-3,1.300448552E-3,7.695271075E-2,7.702844710E-2
5.256355000E-1,-1.614622655E-3,3.003540449E-3,7.667334378E-2,7.674913620E-2
5.355915000E-1,-2.065299544E-3,1.031445339E-3,7.395705581E-2,7.399307701E-2
5.455475000E-1,-1.267416286E-3,1.071392559E-3,7.384520024E-2,7.386384653E-2
5.555035000E-1,-2.203630982E-3,5.761180073E-4,7.684330642E-2,7.687705538E-2
5.654595000E-1,-1.879258081E-3,9.372429922E-4,7.843427360E-2,7.846238150E-2
5.754155000E-1,-3.243222600E-4,9.938795120E-4,7.660339028E-2,7.661052397E-2
5.853715000E-1,1.038150978E-3,1.372314990E-3,7.914724201E-2,7.916594548E-2
5.953275000E-1,1.720940927E-4,-3.153085709E-5,7.253106683E-2,7.253127785E-2
6.052835000E-1,5.678397720E-4,9.421212599E-4,7.076884806E-2,7.077739675E-2
6.152385000E-1,-4.609299824E-3,-7.061166689E-4,7.106693089E-2,7.121975085E-2
6.251945000E-1,3.341034986E-3,4.065521061E-4,7.429494709E-2,7.437114334E-2
6.351505000E-1,-1.928386278E-3,1.548564062E-3,7.927986234E-2,7.931842975E-2
6.451065000E-1,-2.471404849E-3,2.478761598E-4,8.190707117E-2,8.194472279E-2
6.550625000E-1,-3.110594116E-4,4.765642807E-4,8.221340925E-2,8.221537892E-2
6.650185000E-1,6.460807053E-4,-1.791063696E-4,7.721145451E-2,7.721436529E-2
6.749745000E-1,-1.597328228E-3,-6.751539186E-4,7.179192454E-2,7.181286597E-2
6.849305000E-1,1.836551586E-3,-1.712721772E-3,6.895512342E-2,6.900083611E-2
6.948865000E-1,-2.963965759E-3,1.235974953E-3,7.526816428E-2,7.533663970E-2
7.048425000E-1,7.988147554E-4,-1.723049209E-4,7.754756510E-2,7.755187069E-2
7.147985000E-1,1.440698979E-4,-6.134547293E-4,8.151502162E-2,8.151745723E-2
7.247545000E-1,-2.963839099E-3,5.016112700E-4,8.178213984E-2,8.183736526E-2
7.347105000E-1,-3.215915058E-4,-3.610299900E-4,8.164981008E-2,8.165124157E-2
7.446665000E-1,5.854811752E-4,3.985036165E-4,7.637648284E-2,7.637976646E-2
7.546225000E-1,-2.894681646E-3,-9.716674685E-5,7.331869751E-2,7.337588179E-2
7.645785000E-1,2.334383316E-5,3.246165346E-3,7.354080677E-2,7.361242011E-2
7.745345000E-1,-1.081873314E-3,-3.017093986E-4,7.759394497E-2,7.760207326E-2
7.844905000E-1,-1.428616815E-3,1.774757169E-3,7.930050045E-2,7.933322180E-2
7.944465000E-1,-4.332803655E-3,5.629174411E-4,8.039093763E-2,8.050958276E-2
8.044025000E-1,-2.677915618E-3,1.665999182E-3,7.921569049E-2,7.927844856E-2
8.143585000E-1,-9.074124973E-4,3.003636375E-3,7.507742941E-2,7.514296798E-2
8.243145000E-1,-4.420388024E-3,1.036092639E-3,7.117856294E-2,7.132321600E-2
8.342705000E-1,-8.803122910E-4,7.361872122E-4,7.299715281E-2,7.300617261E-2
8.442265000E-1,-4.835013533E-4,8.845254779E-4,7.758977264E-2,7.759632064E-2
8.541825000E-1,-5.775112659E-4,-4.031015560E-4,8.075121045E-2,8.075428162E-2
8.641385000E-1,-2.784382086E-4,2.009988762E-3,8.260476589E-2,8.262968553E-2
8.740945000E-1,2.362041734E-3,5.069291219E-4,8.202877641E-2,8.206434291E-2
8.840505000E-1,-6.169702392E-4,-1.045960002E-3,7.598420233E-2,7.599390560E-2
8.940065000E-1,-1.264869119E-3,7.066922262E-4,7.435029000E-2,7.436440634E-2
9.039625000E-1,-1.264869119E-3,-2.009732649E-3,7.410314679E-2,7.414118480E-2
9.139185000E-1,2.144871047E-3,9.413948283E-4,7.622629404E-2,7.626227507E-2
9.238735000E-1,-2.230702434E-3,2.774689347E-4,8.030918986E-2,8.034064350E-2
9.338295000E-1,-2.096110955E-3,-4.226472229E-4,8.001215756E-2,8.004072507E-2
9.437855000E-1,-1.534819603E-6,-7.164292037E-5,7.810319960E-2,7.810323247E-2
9.537415000E-1,2.149613574E-3,-1.187009737E-3,7.439891994E-2,7.443943255E-2
9.636975000E-1,1.051059691E-3,-1.892480999E-3,7.052028924E-2,7.055350739E-2
9.736535000E-1,1.918277005E-3,7.941303775E-4,6.956885010E-2,6.959982280E-2
9.836095000E-1,6.018764689E-4,1.220769249E-3,7.616177201E-2,7.617393287E-2
9.935655000E-1,9.791166522E-4,-1.657890156E-3,7.774643600E-2,7.777027440E-2
1.003521500E0,-1.984449103E-3,8.047344163E-4,7.969187200E-2,7.972063785E-2
1.013477500E0,-7.629184984E-5,7.047131658E-4,7.863594592E-2,7.863914058E-2
1.023433500E0,-1.500284066E-3,8.618393913E-4,7.273943722E-2,7.276001200E-2
1.033389500E0,-6.046933122E-4,2.384336665E-3,7.491186261E-2,7.495223729E-2
1.043345500E0,-4.120065831E-3,1.930873841E-4,7.307215035E-2,7.318846481E-2
1.053301000E0,-2.262670081E-3,3.997674212E-4,7.563382387E-2,7.566871747E-2
1.063257000E0,-1.160387532E-3,1.690601930E-3,8.051593602E-2,8.054204236E-2
1.073213000E0,1.799330115E-3,5.777170882E-4,8.062776178E-2,8.064990586E-2
1.083169000E0,-8.521130076E-4,1.651769504E-3,7.653474808E-2,7.655731253E-2
1.093125000E0,-8.570512291E-4,1.401012763E-3,7.498357445E-2,7.500155872E-2
1.103081000E0,-1.400602283E-3,1.408203505E-3,7.569143921E-2,7.571749265E-2
1.113037000E0,2.864201088E-5,1.979393885E-3,7.551250607E-2,7.553844977E-2
1.122993000E0,-9.487380739E-4,8.946890011E-4,7.728856802E-2,7.729956869E-2
1.132949000E0,7.374985726E-4,5.638021976E-4,7.770437002E-2,7.770991505E-2
1.142905000E0,-1.970046433E-4,1.913491637E-3,7.783512771E-2,7.785889395E-2
1.152861000E0,-2.623671200E-3,2.519046888E-3,7.627911121E-2,7.636577803E-2
1.162817000E0,-3.707844298E-3,2.295272425E-4,7.725249976E-2,7.734177080E-2
1.172773000E0,-9.521074826E-4,1.407037489E-3,7.515935600E-2,7.517855450E-2
1.182729000E0,-1.796329510E-3,-3.778124228E-4,7.594658434E-2,7.596876474E-2
1.192685000E0,-1.489627874E-3,-7.031653076E-4,7.624167949E-2,7.625947236E-2
1.202641000E0,-1.891498920E-3,4.385132343E-5,7.572741807E-2,7.575104975E-2
1.212596000E0,-2.174747176E-3,-2.825725824E-5,7.643479854E-2,7.646573580E-2
1.222552000E0,-7.156011416E-4,1.574965194E-3,7.607500255E-2,7.609466876E-2
1.232508000E0,-3.945459146E-3,7.576523349E-4,7.694793493E-2,7.705274411E-2
1.242464000E0,-1.160857850E-3,1.662594266E-3,7.510928810E-2,7.513665530E-2
1.252420000E0,-2.203912940E-3,-8.505834267E-4,7.494132966E-2,7.497855437E-2
1.262376000E0,-3.722713329E-3,9.614313021E-4,7.566171139E-2,7.575933946E-2
1.272332000E0,-2.554726787E-3,2.015534788E-3,8.055654913E-2,8.062224642E-2
1.282288000E0,-2.309715841E-3,-1.445242204E-3,7.935067266E-2,7.939743550E-2
1.292244000E0,-3.873297013E-3,-8.407542482E-4,7.956518233E-2,7.966384083E-2
1.302200000E0,6.232236046E-5,1.036508009E-3,7.535365969E-2,7.536081383E-2
1.312156000E0,-6.009033881E-3,2.651094459E-3,7.374010235E-2,7.403201662E-2
1.322112000E0,-5.170628428E-4,1.267050393E-3,7.230492681E-2,7.231787616E-2
1.332068000E0,-1.893948414E-3,2.897344530E-4,7.360662520E-2,7.363155750E-2
1.342024000E0,-1.278491807E-3,7.800217718E-4,7.680588216E-2,7.682048235E-2
1.351980000E0,7.636029040E-4,-9.245490655E-4,7.914101332E-2,7.915009710E-2
1.361936000E0,-2.032982651E-3,1.367633231E-3,7.850798219E-2,7.854620747E-2
1.371892000E0,9.830228519E-4,1.930058002E-3,7.558655739E-2,7.561758470E-2
1.381848000E0,2.238170709E-3,7.012756541E-4,7.514926791E-2,7.518586079E-2
1.391804000E0,6.387149915E-5,3.629764542E-4,7.425370067E-2,7.425461531E-2
1.401760000E0,-1.212181523E-4,1.780310646E-3,7.289042324E-2,7.291226234E-2
1.411716000E0,9.190612473E-4,-1.187962480E-3,7.420732826E-2,7.422252688E-2
1.421672000E0,-1.482843771E-3,1.666946337E-3,7.677993923E-2,7.681234669E-2
1.431628000E0,-3.026153427E-4,1.336100511E-3,7.918002456E-2,7.919187478E-2
1.441584000E0,-1.556165167E-3,6.292974576E-4,7.662206143E-2,7.664044600E-2
1.451540000E0,-2.373411320E-3,-8.170586079E-5,7.693487406E-2,7.697151813E-2
1.461496000E0,-1.127051772E-3,-1.130724326E-3,7.465413958E-2,7.467120824E-2
1.471452000E0,-4.278343404E-4,9.548533708E-4,7.158344984E-2,7.159109636E-2
1.481408000E0,-2.711228561E-3,4.408629611E-4,7.351078093E-2,7.356208285E-2
1.491363000E0,-1.380342990E-3,2.833312377E-3,7.796666026E-2,7.803033460E-2
1.501319000E0,1.330222469E-3,3.158263862E-4,7.863084972E-2,7.864273498E-2
1.511275000E0,9.989028331E-5,4.654824734E-4,7.783163339E-2,7.783308942E-2
1.521231000E0,-6.694969488E-4,9.728148580E-4,7.594984770E-2,7.595902817E-2
1.531187000E0,-1.478545135E-3,8.726082742E-4,7.029944658E-2,7.032040764E-2
1.541143000E0,-2.508389531E-3,6.728712469E-4,7.483161986E-2,7.487667263E-2
1.551099000E0,3.770971671E-5,1.455054618E-3,7.465724647E-2,7.467143401E-2
1.561055000E0,-5.239509046E-4,-9.953202680E-4,8.056759834E-2,8.057544967E-2
1.571011000E0,1.030355459E-3,1.432409510E-3,8.103808761E-2,8.105729500E-2
1.580967000E0,-4.018925829E-4,1.182071865E-3,8.009000123E-2,8.009973226E-2
1.590923000E0,-1.763237524E-3,-1.614992507E-3,7.859113812E-2,7.862750282E-2
1.600879000E0,-1.568187727E-4,2.201583236E-3,7.503101975E-2,7.506347637E-2
1.610835000E0,1.352750347E-3,-7.566809654E-5,7.366122305E-2,7.367368215E-2
1.620791000E0,-1.167819137E-4,1.732884906E-3,7.665142417E-2,7.667109857E-2
1.630747000E0,2.780825598E-3,8.062580600E-4,7.697238773E-2,7.702682335E-2
1.640703000E0,-8.759609191E-4,-1.831868663E-3,7.719183713E-2,7.721853903E-2
1.650659000E0,-2.229291946E-3,-3.088419326E-3,7.858095318E-2,7.867321195E-2
1.660615000E0,-4.138149088E-4,-1.223940402E-3,7.783339918E-2,7.784412181E-2
1.670571000E0,2.827829449E-4,3.840886056E-4,7.750682533E-2,7.750829286E-2
1.680527000E0,1.519821235E-3,2.232322469E-3,7.562050968E-2,7.566871616E-2
1.690483000E0,-1.794979908E-3,1.349613070E-3,7.470702380E-2,7.474077076E-2
1.700439000E0,-3.741750494E-3,-1.237115823E-3,7.186090201E-2,7.196888488E-2
1.710395000E0,-1.738125924E-3,-5.441065878E-4,7.712766528E-2,7.714916646E-2
1.720351000E0,-1.839325996E-3,9.893421084E-4,7.852689177E-2,7.855466026E-2
1.730307000E0,-2.588268137E-3,-1.634682529E-3,8.038952202E-2,8.044778784E-2
1.740263000E0,-6.383017171E-4,-8.727526292E-4,7.842464745E-2,7.843210092E-2
1.750218000E0,1.703942893E-3,-1.246687956E-3,7.575275749E-2,7.578217415E-2
1.760174000E0,-1.711294870E-3,-1.028599218E-4,7.450613379E-2,7.452585513E-2
1.770130000E0,1.032169675E-4,-1.917202026E-4,7.720598578E-2,7.720629282E-2
1.780086000E0,-6.054502446E-4,6.636874750E-4,7.975809276E-2,7.976315197E-2
1.790042000E0,8.769582491E-4,1.023737714E-4,8.250370622E-2,8.250843033E-2
1.799998000E0,2.120654564E-3,-6.212070584E-4,8.039235324E-2,8.042271777E-2
1.809954000E0,1.463882858E-3,7.703220472E-4,7.729377598E-2,7.731147492E-2
1.819910000E0,-5.007310538E-4,-1.788279042E-4,7.439119369E-2,7.439309383E-2
1.829866000E0,-3.936996218E-4,1.871297136E-4,7.122188807E-2,7.122322203E-2
1.839822000E0,-1.380667207E-3,1.818582416E-3,7.415695488E-2,7.419209824E-2
1.849778000E0,-1.556123723E-3,8.963430300E-4,7.399583608E-2,7.401762431E-2
1.859734000E0,7.728105411E-4,-1.206755638E-3,7.918154448E-2,7.919451043E-2
1.869690000E0,3.963985364E-4,2.013519406E-4,7.958731800E-2,7.958855986E-2
1.879646000E0,7.892147987E-4,3.787185997E-4,7.567247003E-2,7.567753305E-2
1.889602000E0,-1.311091008E-3,4.933997989E-4,7.374040782E-2,7.375371278E-2
1.899558000E0,-1.685531344E-3,-8.610831574E-4,7.281097025E-2,7.283556733E-2
1.909514000E0,-7.560607046E-4,-1.057154499E-3,7.205393910E-2,7.206565995E-2
1.919470000E0,-6.111846305E-4,9.066611528E-4,7.716427743E-2,7.717202403E-2
1.929426000E0,-4.863028880E-4,1.107093878E-3,8.384585381E-2,8.385457261E-2
1.939382000E0,-3.618446644E-3,-3.222255036E-4,8.265914768E-2,8.273893691E-2
1.949338000E0,-1.921849442E-3,-6.692111492E-4,8.176837862E-2,8.179369835E-2
1.959294000E0,-1.252809307E-4,6.635393947E-5,7.584471256E-2,7.584484505E-2
1.969250000E0,1.560917590E-4,2.163515426E-3,7.338216156E-2,7.341421387E-2
1.979205000E0,3.371059662E-3,-1.337742433E-3,7.346445322E-2,7.355392230E-2
1.989161000E0,-3.377341898E-3,-2.224333584E-4,7.588984817E-2,7.596528793E-2
1.999117000E0,-2.342703985E-3,-5.811611190E-4,8.067847788E-2,8.071457615E-2
2.009073000E0,-2.745616250E-3,-5.773268640E-5,8.242415637E-2,8.246989326E-2
2.019029000E0,-1.376485336E-3,1.415527426E-3,7.885712385E-2,7.888183829E-2
2.028985000E0,-2.204242628E-5,2.240464091E-4,7.642123103E-2,7.642156263E-2
2.038941000E0,2.276531886E-3,-8.087279275E-4,7.142647356E-2,7.146731955E-2
2.048897417E0,-1.833349699E-3,2.907030284E-5,7.266134024E-2,7.268447139E-2
2.058853417E0,-2.961731516E-4,1.503130421E-3,7.739191502E-2,7.740707739E-2
2.068809417E0,1.208509784E-3,6.700493395E-5,7.903309166E-2,7.904235930E-2
2.078765417E0,-2.287982497E-4,-1.191339456E-3,8.140170574E-2,8.141074460E-2
2.088721417E0,1.567260362E-3,-1.446391456E-3,7.862742245E-2,7.865634059E-2
2.098677417E0,-1.712156110E-3,1.889217645E-3,7.614668459E-2,7.618935749E-2
2.108633417E0,-1.336592599E-3,-2.382356673E-3,7.216901332E-2,7.222069362E-2
2.118589417E0,6.123086205E-4,-7.596919313E-4,7.155995071E-2,7.156660254E-2
2.128545417E0,-1.521682832E-3,7.628807798E-4,7.634381205E-2,7.636278638E-2
2.138501417E0,-1.736866310E-3,8.121486753E-4,7.728497684E-2,7.730875717E-2
2.148457417E0,-1.556180650E-4,-1.120222732E-3,8.115012199E-2,8.115800278E-2
2.158413417E0,1.109642908E-4,-9.561721236E-4,8.217304200E-2,8.217867978E-2
2.168369417E0,-6.403754232E-4,-2.623153850E-4,7.945795357E-2,7.946096700E-2
2.178325417E0,1.585228252E-3,2.905568108E-4,7.402457297E-2,7.404211487E-2
2.188281417E0,1.324220328E-3,8.833846077E-4,7.156560570E-2,7.158330704E-2
2.198237417E0,-9.080413729E-4,9.795250371E-4,7.543224841E-2,7.544407272E-2
2.208193417E0,2.262684982E-3,2.169525251E-4,7.816644013E-2,7.819948321E-2
2.218149417E0,9.433925152E-5,1.115236431E-3,8.075290173E-2,8.076065744E-2
2.228104417E0,-8.121533319E-4,3.184191883E-6,8.349949867E-2,8.350344832E-2
2.238060417E0,-1.482737251E-3,5.312887952E-4,7.736650854E-2,7.738253951E-2
2.248016417E0,-2.103430452E-3,-9.085480124E-4,7.717906684E-2,7.721307038E-2
2.257972417E0,1.490711002E-4,-2.310406417E-4,7.427088916E-2,7.427139812E-2
2.267928417E0,-1.161398599E-3,4.880456254E-4,7.283270359E-2,7.284359785E-2
2.277884417E0,8.924313006E-4,-3.553181887E-5,7.045450062E-2,7.046016146E-2
2.287840417E0,-2.524913754E-3,-9.782519192E-5,7.576296479E-2,7.580508949E-2
2.297796417E0,-2.882576548E-3,-4.269741476E-5,8.117104322E-2,8.122222188E-2
2.307752417E0,-1.601570169E-3,6.412407383E-4,8.155522496E-2,8.157346955E-2
2.317708417E0,5.172407255E-4,-1.328433864E-3,7.836368680E-2,7.837665267E-2
2.327664417E0,-2.149478532E-4,1.274289563E-3,7.297261804E-2,7.298405991E-2
2.337620417E0,-3.118868917E-4,1.396528445E-3,7.186687738E-2,7.188112151E-2
2.347576417E0,5.213287659E-4,2.851337194E-5,7.633361220E-2,7.633539774E-2
2.357532417E0,-5.364767276E-5,-3.714933991E-4,7.726438344E-2,7.726529514E-2
2.367488417E0,-3.195508383E-3,-1.413715072E-3,8.073733747E-2,8.081291683E-2
2.377444417E0,-1.622379175E-3,-1.361966133E-4,7.850135118E-2,7.851823228E-2
2.387400417E0,-4.528572317E-4,2.389539964E-3,7.446030527E-2,7.450001371E-2
2.397356417E0,-1.415057341E-3,2.629224677E-3,7.148022950E-2,7.154256368E-2
2.407312417E0,-4.926339025E-4,1.757247373E-4,7.252355665E-2,7.252544268E-2
2.417268417E0,-3.826454049E-4,-7.571810856E-4,7.810394466E-2,7.810855211E-2
2.427224417E0,-1.545000239E-3,1.171707176E-3,8.173847944E-2,8.176147592E-2
2.437180417E0,-1.227018773E-3,2.390686423E-4,8.123487979E-2,8.124449781E-2
2.447135417E0,-2.408004366E-3,1.180079766E-3,7.955093682E-2,7.959612190E-2
2.457091417E0,1.293256879E-3,-1.700395718E-3,7.695089281E-2,7.698054145E-2
2.467047417E0,-1.968093449E-3,1.485300250E-3,7.276217639E-2,7.280394098E-2
2.477003417E0,-1.626942307E-3,5.084527656E-4,7.451001555E-2,7.452951014E-2
2.486959417E0,-1.049736398E-3,3.150012344E-5,7.864697278E-2,7.865398442E-2
2.496915417E0,-2.372528426E-3,-1.944565214E-3,7.880196720E-2,7.886165266E-2
2.506871417E0,-4.296965199E-4,3.867037594E-4,7.921074331E-2,7.921285271E-2
2.516827417E0,1.655200031E-4,-3.898739815E-4,7.809967548E-2,7.810082399E-2
2.526783417E0,1.141078887E-3,5.225846544E-4,7.239616662E-2,7.240704453E-2
2.536739417E0,4.795496934E-4,-2.548039891E-3,7.302254438E-2,7.306856002E-2
2.546695417E0,7.983688265E-4,-8.511766791E-4,7.352466136E-2,7.353392226E-2
2.556651417E0,4.367115907E-4,-2.106865868E-4,7.556011528E-2,7.556167102E-2
2.566607417E0,-8.359187050E-4,-4.279362038E-4,7.780439407E-2,7.781006121E-2
2.576563417E0,-1.499045757E-3,1.249589026E-3,7.888270915E-2,7.890684643E-2
2.586519417E0,1.231926493E-3,-2.277937718E-3,8.011724055E-2,8.015908480E-2
2.596475417E0,-1.545750536E-3,2.351701260E-3,7.692730427E-2,7.697876321E-2
2.606431417E0,-5.167782074E-4,8.631404489E-4,7.411041856E-2,7.411724637E-2
2.616387417E0,7.923727389E-5,-1.107332297E-3,7.522308826E-2,7.523127987E-2
2.626343417E0,1.678604167E-3,8.892016485E-4,7.558386773E-2,7.560773408E-2
2.636299417E0,5.700532347E-5,-9.790053591E-4,7.574871927E-2,7.575506698E-2
2.646255417E0,-9.309869492E-4,9.463354945E-5,7.834742963E-2,7.835301795E-2
2.656211417E0,2.801166847E-3,1.172681339E-3,7.906328142E-2,7.912157851E-2
2.666167417E0,-1.008275431E-4,1.022658311E-3,7.762973756E-2,7.763653875E-2
2.676122417E0,2.302033827E-4,-4.609879106E-4,7.329517603E-2,7.329698720E-2
2.686078417E0,-1.585370163E-3,5.976138636E-4,7.565452158E-2,7.567349058E-2
2.696034417E0,-2.887655981E-3,-1.587234437E-4,7.330401242E-2,7.336103862E-2
2.705990417E0,1.301860902E-5,7.578171790E-5,7.666064799E-2,7.666068655E-2
2.715946417E0,-4.423933569E-5,-1.363391057E-3,7.800395042E-2,7.801587706E-2
2.725902417E0,-7.691408973E-5,7.365457714E-5,7.787349075E-2,7.787356357E-2
2.735858417E0,2.184305340E-4,1.881940290E-3,7.710703462E-2,7.713030662E-2
2.745814417E0,-3.962096525E-4,1.609344035E-4,7.384292036E-2,7.384415867E-2
2.755770417E0,-5.585770123E-5,5.023516715E-4,7.663844526E-2,7.664011201E-2
2.765726417E0,-1.863411395E-3,1.334285364E-3,7.253914326E-2,7.257533965E-2
2.775682417E0,-5.464782007E-4,9.023211896E-4,7.356046140E-2,7.356802501E-2
2.785638417E0,-2.018103609E-3,-2.152380534E-3,7.542435825E-2,7.548204622E-2
2.795594417E0,-1.260167919E-3,1.211458817E-3,7.835517079E-2,7.837466711E-2
2.805550417E0,-2.801005729E-3,-8.951881900E-4,8.099502325E-2,8.104838546E-2
2.815506417E0,-3.359840484E-4,-2.582566813E-3,8.163737506E-2,8.167890513E-2
2.825462417E0,-1.768788905E-3,1.522221602E-3,7.492425293E-2,7.496058597E-2
2.835418417E0,-3.476141486E-3,1.353111118E-3,6.927808374E-2,6.937843582E-2
2.845374417E0,-2.746224403E-3,-2.371855080E-4,7.248085737E-2,7.253325231E-2
2.855330417E0,1.294323592E-3,3.226101398E-4,7.588224858E-2,7.589397210E-2
2.865286417E0,1.921301591E-3,3.566406667E-5,8.083611727E-2,8.085895452E-2
2.875242417E0,-2.462261356E-3,-3.038896248E-4,7.812581956E-2,7.816520174E-2
2.885198417E0,5.337081966E-4,9.967479855E-4,8.119768649E-2,8.120555796E-2
2.895153417E0,-1.580042765E-3,8.141901344E-5,7.579040527E-2,7.580691720E-2
2.905109417E0,-4.133792827E-4,-1.964885741E-4,7.533732802E-2,7.533871835E-2
2.915065417E0,-3.106634133E-3,1.544419676E-3,7.149358839E-2,7.157771712E-2
2.925021417E0,-2.684111241E-4,1.563246362E-3,7.808529586E-2,7.810140340E-2
2.934977417E0,-1.523558982E-3,5.089007318E-4,7.770445943E-2,7.772106038E-2
2.944933417E0,4.239588743E-4,-9.784074500E-4,7.949703187E-2,7.950418290E-2
2.954889417E0,8.444720879E-4,7.883338258E-4,7.860647142E-2,7.861496011E-2
2.964845417E0,-1.198945916E-3,1.599964686E-3,7.860647887E-2,7.863190115E-2
2.974801417E0,-2.999775112E-3,-1.502642408E-4,7.830554247E-2,7.836312405E-2
2.984757417E0,-1.015745103E-3,5.925316364E-4,7.514078170E-2,7.514998274E-2
2.994713417E0,-1.868222840E-3,2.182172611E-3,7.641483843E-2,7.646881499E-2
3.004669417E0,-8.361355867E-4,1.152635552E-3,7.633506507E-2,7.634834543E-2
3.014625417E0,1.153778401E-3,4.658056423E-4,7.897052914E-2,7.898033079E-2
3.024581417E0,2.057445468E-3,-4.241894931E-4,7.842355967E-2,7.845169042E-2
3.034537417E0,-2.767403377E-3,-4.023718648E-3,7.665309310E-2,7.680849898E-2
3.044493417E0,-7.064620731E-4,1.778975129E-4,7.826213539E-2,7.826552607E-2
3.054450000E0,-1.786906389E-3,1.129977405E-3,7.649565488E-2,7.652486589E-2
3.064406000E0,-4.111551680E-4,1.738049090E-3,7.639764994E-2,7.641852380E-2
3.074362000E0,-3.610877320E-4,-2.434591763E-3,7.356511056E-2,7.360627089E-2
3.084318000E0,-6.293047918E-4,-1.215487719E-4,7.598042488E-2,7.598312815E-2
3.094274000E0,-3.749729367E-4,-1.260759309E-4,7.587736100E-2,7.587839226E-2
3.104230000E0,-1.718841959E-4,-1.565261744E-3,7.443543524E-2,7.445208934E-2
3.114185000E0,-1.525569009E-3,-1.436897554E-3,7.716038078E-2,7.718883596E-2
3.124141000E0,6.646333495E-4,1.414569095E-3,7.623206079E-2,7.624808086E-2
3.134097000E0,-1.098645735E-3,-1.109574921E-3,7.518011332E-2,7.519632715E-2
3.144053000E0,-2.382038627E-3,-5.104206502E-4,7.816826552E-2,7.820621696E-2
3.154009000E0,8.337282343E-4,1.435818151E-3,7.714001834E-2,7.715788428E-2
3.163965000E0,-7.863860810E-4,2.571465448E-4,7.955611497E-2,7.956041702E-2
3.173921000E0,-3.032885725E-4,2.377051860E-4,7.692091912E-2,7.692188431E-2
3.183877000E0,-1.918096095E-3,1.022375189E-3,7.738132775E-2,7.741184811E-2
3.193833000E0,-1.483201748E-3,1.352873631E-3,7.928974926E-2,7.931515929E-2
3.203789000E0,8.792121080E-4,-8.894596249E-5,7.740107179E-2,7.740611629E-2
3.213745000E0,1.127684955E-3,-3.248639405E-5,7.466494292E-2,7.467346537E-2
3.223701000E0,-6.515100831E-4,3.034044057E-4,7.594567537E-2,7.594907588E-2
3.233657000E0,-1.028081053E-3,-2.659792081E-4,7.715235651E-2,7.715966440E-2
3.243613000E0,-3.409588709E-3,1.159189269E-3,7.895858586E-2,7.904066862E-2
3.253569000E0,-2.305733506E-4,2.694768365E-3,7.795697451E-2,7.800387692E-2
3.263525000E0,-1.539168414E-3,2.409106120E-3,7.741400599E-2,7.746677453E-2
3.273481000E0,-2.450768603E-3,9.193336591E-4,7.880204916E-2,7.884550966E-2
3.283437000E0,1.200238476E-3,1.090236008E-3,7.395444810E-2,7.397222169E-2
3.293393000E0,-1.486358349E-3,1.658527181E-4,7.408015430E-2,7.409524971E-2
3.303349000E0,5.009749439E-4,-1.300945878E-4,7.567533106E-2,7.567710110E-2
3.313305000E0,-2.918790327E-3,-2.520671114E-4,7.705831528E-2,7.711398594E-2
3.323260000E0,-2.217163797E-3,-5.159284920E-4,8.054527640E-2,8.057743821E-2
3.333216000E0,3.631731961E-4,-1.345236786E-3,7.849197835E-2,7.850434524E-2
3.343172000E0,2.407140564E-4,4.630265757E-4,7.712049782E-2,7.712226346E-2
3.353128000E0,2.487035235E-4,-1.832618378E-3,7.251083106E-2,7.253441228E-2
3.363084000E0,-7.108924910E-5,7.337424904E-4,7.605607063E-2,7.605964311E-2
3.373040000E0,1.845587743E-3,4.375996068E-4,7.806330174E-2,7.808634174E-2
3.382996000E0,1.298242598E-3,-9.276140481E-4,7.581675798E-2,7.583354595E-2
3.392952000E0,1.175737125E-3,8.551059291E-4,7.871986926E-2,7.873329270E-2
3.402908000E0,6.600702181E-4,3.350777552E-4,7.722325623E-2,7.722680411E-2
3.412864000E0,1.849437947E-3,6.730332971E-4,7.465463877E-2,7.468057635E-2
3.422820000E0,1.284655882E-4,1.236366108E-3,7.257539034E-2,7.258603438E-2
3.432776000E0,-3.162822686E-4,-9.000217542E-4,7.346168905E-2,7.346788300E-2
3.442732000E0,-7.120458176E-4,2.313936129E-3,7.447215170E-2,7.451149366E-2
3.452688000E0,-1.128297881E-3,2.170391381E-3,7.688283920E-2,7.692174347E-2
3.462644000E0,4.656190285E-4,2.414612100E-4,8.068580180E-2,8.068750658E-2
3.472600000E0,2.460060408E-3,-8.429782465E-4,8.011109382E-2,8.015328978E-2
3.482556000E0,1.200333238E-3,9.274128824E-4,7.796144485E-2,7.797620008E-2
3.492512000E0,-8.226038190E-4,9.118020535E-5,7.605515420E-2,7.605965732E-2
3.502468000E0,-5.155267427E-4,2.569798380E-5,7.549889386E-2,7.550065829E-2
3.512424000E0,-1.009809435E-3,8.443538100E-4,7.342162728E-2,7.343342564E-2
3.522380000E0,-5.318468902E-4,1.248423941E-3,7.575555891E-2,7.576771165E-2
3.532336000E0,1.533700852E-3,7.929652929E-5,7.446845621E-2,7.448429027E-2
3.542291000E0,-2.619280014E-3,2.428842708E-4,7.748122513E-2,7.752586580E-2
3.552247000E0,-2.434742637E-4,2.735108137E-4,7.716483623E-2,7.716570506E-2
3.562203000E0,3.421229776E-3,-7.128175348E-4,7.313397527E-2,7.321742457E-2
3.572159000E0,1.951164799E-3,1.105588861E-3,7.400935888E-2,7.404332902E-2
3.582115000E0,-4.602567060E-4,-4.957253113E-4,7.691991329E-2,7.692288763E-2
3.592071000E0,-1.591833658E-3,-1.464850269E-3,8.019320667E-2,8.022237915E-2
3.602027000E0,-9.378251852E-4,-1.544243656E-3,8.133203536E-2,8.135210004E-2
3.611983000E0,-9.838977130E-4,-1.178058796E-3,7.957941294E-2,7.959421361E-2
3.621939000E0,-3.038096009E-3,-3.335885704E-4,7.639084756E-2,7.645196466E-2
3.631895000E0,-1.807183260E-3,-4.797959700E-4,7.594290376E-2,7.596591832E-2
3.641851000E0,2.439156873E-3,-5.879802629E-4,7.578700036E-2,7.582852122E-2
3.651807000E0,-2.197431168E-4,-4.753284156E-4,7.717237622E-2,7.717415289E-2
3.661763000E0,4.850839032E-4,9.661354125E-5,7.664993405E-2,7.665152987E-2
3.671719000E0,-2.677153563E-3,1.135778613E-3,7.944571972E-2,7.949892783E-2
3.681675000E0,1.085238066E-3,-6.135562435E-4,7.761502266E-2,7.762503420E-2
3.691631000E0,-4.058658378E-4,5.521094427E-4,7.660248876E-2,7.660555356E-2
3.701587000E0,-1.839367091E-3,-2.785297111E-4,7.432505488E-2,7.434833309E-2
3.711543000E0,1.601343974E-4,1.503658481E-3,7.176735252E-2,7.178328162E-2
3.721499000E0,-4.152578767E-4,4.980238155E-4,7.104441524E-2,7.104737436E-2
3.731455000E0,-9.167310782E-4,-6.316890940E-4,7.367055118E-2,7.367896266E-2
3.741411000E0,1.729073934E-3,-9.637977928E-4,7.661902159E-2,7.664458933E-2
3.751367000E0,-1.087751472E-3,-4.996089265E-4,8.097488433E-2,8.098373111E-2
3.761322000E0,5.596305709E-5,-8.995160460E-4,7.990924269E-2,7.991432492E-2
3.771278000E0,-1.455380931E-3,-1.937784255E-4,7.800295204E-2,7.801676878E-2
3.781234000E0,-1.258611795E-3,5.254494026E-4,7.595336437E-2,7.596560906E-2
3.791190000E0,5.616587587E-4,5.254494026E-4,7.422231138E-2,7.422629631E-2
3.801146000E0,-5.175154656E-4,-1.567414030E-3,7.602687180E-2,7.604478841E-2
3.811102000E0,-3.886185586E-4,-2.127743326E-3,7.939310372E-2,7.942256124E-2
3.821058000E0,-3.695092630E-3,-1.699261367E-3,7.912904769E-2,7.923349915E-2
3.831014000E0,-1.548318542E-3,-1.112567261E-3,7.764566690E-2,7.766907161E-2
3.840970000E0,-9.479811415E-4,-4.813689739E-4,7.933233678E-2,7.933946082E-2
3.850926000E0,7.907967083E-4,-1.429188065E-3,7.451627403E-2,7.453417360E-2
3.860882000E0,-1.091293409E-3,2.450386062E-3,7.369434088E-2,7.374314335E-2
3.870838000E0,2.313558012E-3,-2.118799835E-3,7.605363429E-2,7.611831023E-2
3.880794000E0,8.407916757E-4,-1.018512994E-3,7.808950543E-2,7.810067323E-2
3.890750000E0,1.156642567E-3,8.792560548E-4,7.890709490E-2,7.892046970E-2
3.900706000E0,-1.081025461E-3,2.221940085E-4,8.087756485E-2,8.088509431E-2
3.910662000E0,-2.395295538E-3,-7.248260081E-4,8.043228090E-2,8.047120369E-2
3.920618000E0,5.843932740E-5,1.944840886E-3,7.577209920E-2,7.579707671E-2
3.930574000E0,6.430031499E-4,-5.582636222E-4,7.300215214E-2,7.300711835E-2
3.940530000E0,-2.453567926E-3,1.212821342E-3,7.666698843E-2,7.671582657E-2
3.950486000E0,2.345714718E-3,-6.735976785E-5,7.815596461E-2,7.819118697E-2
3.960442000E0,1.497969148E-3,-3.549363464E-5,7.991722971E-2,7.993127533E-2
3.970397000E0,1.834592666E-3,-1.525266096E-3,7.946209610E-2,7.949790490E-2
3.980353000E0,-3.763193963E-4,-5.913274363E-4,7.738736272E-2,7.739053684E-2
3.990309000E0,1.928912825E-3,-1.609720290E-3,7.373750210E-2,7.378028951E-2
4.000265000E0,1.296888571E-3,7.311766967E-4,7.454482466E-2,7.455969034E-2
4.010221000E0,2.425269922E-3,-1.180706546E-3,7.231894881E-2,7.236923627E-2
4.020177000E0,2.286008094E-4,6.683822721E-5,7.336045802E-2,7.336084464E-2
4.030133000E0,-8.318697801E-4,9.675184265E-4,7.591976225E-2,7.593048400E-2
4.040089000E0,1.028623665E-3,-1.399815083E-3,7.857214659E-2,7.859134666E-2
4.050044625E0,1.183619723E-3,-1.089805737E-4,7.686745375E-2,7.687664326E-2
4.060000625E0,-9.666968836E-4,1.060397364E-3,7.804796845E-2,7.806115759E-2
4.069956625E0,-2.961129649E-4,1.113394275E-3,7.686606050E-2,7.687469405E-2
4.079912625E0,-1.387626631E-3,-3.800569102E-4,7.582350075E-2,7.583714932E-2
4.089868625E0,2.779143397E-4,-2.427761443E-3,7.301599532E-2,7.305687398E-2
4.099824625E0,7.434853469E-4,2.052197233E-3,7.272649556E-2,7.275924299E-2
4.109780625E0,-2.662431216E-3,-3.995094448E-4,7.541815192E-2,7.546618969E-2
4.119736625E0,-1.462716493E-3,1.350343227E-3,7.750581950E-2,7.753138089E-2
4.129692625E0,2.044932917E-3,-1.063013449E-3,7.752286643E-2,7.755711810E-2
4.139648625E0,8.181971498E-5,5.927756429E-4,7.689906657E-2,7.690139476E-2
4.149604625E0,-8.865055861E-4,1.555241644E-3,7.520610094E-2,7.522740383E-2
4.159560625E0,-3.586069215E-4,-2.186571248E-3,7.496215403E-2,7.499489469E-2
4.169516625E0,-1.014543464E-3,6.933715194E-4,7.660878450E-2,7.661863954E-2
4.179471625E0,-3.884174395E-3,1.141958870E-3,7.646384090E-2,7.657094649E-2
4.189427625E0,-1.570952474E-3,-8.841743693E-4,7.751179487E-2,7.753275436E-2
4.199383625E0,1.350860693E-3,-4.503699020E-4,7.614724338E-2,7.616055628E-2
4.209339625E0,2.235989086E-6,7.629655302E-4,7.358421385E-2,7.358816922E-2
4.219295625E0,3.296423238E-4,-8.645849302E-4,7.382208109E-2,7.382787974E-2
4.229251625E0,-2.753499430E-3,-1.146383584E-4,7.504393905E-2,7.509452503E-2
4.239207625E0,1.253983472E-3,-1.254958101E-3,7.650543749E-2,7.652600447E-2
4.249163625E0,-3.535978030E-3,-1.774007455E-3,7.559890300E-2,7.570234064E-2
4.259119625E0,-3.658802016E-4,1.088833436E-3,7.728657126E-2,7.729510673E-2
4.269075625E0,-2.843874972E-4,-2.970760688E-4,7.717365026E-2,7.717474604E-2
4.279031625E0,-8.494054200E-4,-1.240897924E-3,7.350178808E-2,7.351716921E-2
4.288987625E0,-1.112259575E-3,1.172991470E-3,7.444135100E-2,7.445889986E-2
4.298943625E0,-1.104871975E-3,1.496744342E-3,7.373649627E-2,7.375996114E-2
4.308899625E0,-3.608776256E-3,1.523641869E-3,7.386992127E-2,7.397371167E-2
4.318855625E0,-8.218261646E-4,3.141351044E-4,7.446129620E-2,7.446649388E-2
4.328811625E0,3.835204989E-4,-9.716395289E-4,7.810050249E-2,7.810748787E-2
4.338767625E0,-2.126768697E-3,8.682413027E-4,7.961497456E-2,7.964810834E-2
4.348723625E0,-1.671900740E-3,-3.645017743E-3,7.995958626E-2,8.006008270E-2
4.358679625E0,-1.468522591E-3,6.598560140E-4,7.685342431E-2,7.687028553E-2
4.368635625E0,-6.096531870E-4,-1.429127529E-3,7.582677901E-2,7.584269574E-2
4.378591625E0,-2.658402314E-3,-1.190789044E-4,7.323678583E-2,7.328511500E-2
4.388546625E0,8.116965182E-4,2.300403081E-3,7.792661339E-2,7.796478551E-2
4.398502625E0,2.405520063E-4,8.027069271E-5,8.244975656E-2,8.245014655E-2
4.408458625E0,-1.674443483E-4,-8.518351242E-4,7.803423703E-2,7.803906592E-2
4.418414625E0,-2.170482418E-3,-2.045726404E-3,7.744067162E-2,7.749808779E-2
4.428370625E0,-8.908335585E-4,1.764148474E-4,7.459055632E-2,7.459608434E-2
4.438326625E0,1.554883784E-3,-2.886978909E-4,7.302232832E-2,7.303945128E-2
4.448282625E0,-5.367628764E-4,-9.230626747E-4,7.433234155E-2,7.434001049E-2
4.458238625E0,-1.379182562E-3,9.358581156E-5,7.815919816E-2,7.817142164E-2
4.468194625E0,-2.339518396E-3,-9.517045692E-4,8.163648844E-2,8.167554917E-2
4.478150625E0,-5.209260853E-4,-1.450354233E-3,7.844807953E-2,7.846321477E-2
4.488106625E0,1.989369513E-3,2.570220269E-3,7.297208905E-2,7.304443445E-2
4.498062625E0,-2.517508576E-3,2.177963033E-4,7.387529314E-2,7.391849715E-2
4.508018625E0,1.072432613E-3,3.541503102E-4,7.608891279E-2,7.609729419E-2
4.517974625E0,-2.878641244E-4,-9.670844302E-4,8.057607710E-2,8.058239460E-2
4.527930625E0,3.038903233E-4,-1.465650275E-4,8.218755573E-2,8.218824823E-2
4.537886625E0,-7.542981766E-4,5.348436534E-4,7.860408723E-2,7.860952584E-2
4.547842625E0,3.205535468E-4,2.464232966E-4,7.516914606E-2,7.517023346E-2
4.557798625E0,-2.951332135E-4,1.555145718E-3,7.637892663E-2,7.639532718E-2
4.567754625E0,4.566770513E-4,-2.576748841E-3,7.069201022E-2,7.074043043E-2
4.577710625E0,1.303100609E-3,3.325752914E-4,7.395618409E-2,7.396841111E-2
4.587666625E0,-2.564874478E-3,-1.849619672E-3,7.506725192E-2,7.513382717E-2
4.597622625E0,-7.039153716E-4,-3.593973815E-4,7.562080026E-2,7.562493038E-2
4.607577625E0,-1.632293337E-3,-1.615248621E-4,7.824081928E-2,7.825801092E-2
4.617533625E0,-1.481268788E-3,-1.154970378E-4,7.774981856E-2,7.776401342E-2
4.627489625E0,-1.801913371E-3,-9.687738493E-4,7.644646615E-2,7.647383606E-2
4.637445625E0,8.792313747E-5,2.649801318E-3,7.323370874E-2,7.328168443E-2
4.647401625E0,1.388730016E-5,-3.248034976E-3,7.261931896E-2,7.269192122E-2
4.657357625E0,1.829430694E-4,3.484047018E-3,7.551174611E-2,7.559230022E-2
4.667313625E0,-1.159023843E-3,-1.171158627E-3,7.984790206E-2,7.986490100E-2
4.677269625E0,-1.990935300E-3,1.009366475E-3,8.283106983E-2,8.286114151E-2
4.687225625E0,1.415878069E-5,-2.106279135E-4,7.867121696E-2,7.867150020E-2
4.697181625E0,-5.198385334E-4,2.796584740E-4,7.603961229E-2,7.604190344E-2
4.707137625E0,1.331324689E-3,-9.435312822E-4,7.063206285E-2,7.065090926E-2
4.717093625E0,9.976741858E-4,2.251476049E-3,7.026914507E-2,7.031228376E-2
4.727049625E0,-1.229793765E-3,1.282084733E-3,7.444790751E-2,7.446910142E-2
4.737005625E0,-1.577084884E-3,-1.386270858E-3,8.014159650E-2,8.016909899E-2
4.746961625E0,6.422121078E-5,6.563737988E-4,7.996556163E-2,7.996828120E-2
4.756917625E0,-9.954198031E-4,1.955823973E-4,7.928366214E-2,7.929015194E-2
4.766873625E0,-1.403149799E-3,-2.921647392E-3,7.411713153E-2,7.418796425E-2
4.776829625E0,2.774061868E-4,3.295689821E-4,7.169907540E-2,7.170036948E-2
4.786785625E0,3.325336147E-4,9.293137118E-4,7.401549816E-2,7.402207894E-2
4.796741625E0,1.652843785E-4,4.476998001E-4,7.690802217E-2,7.690950284E-2
4.806697625E0,-1.289334148E-3,-1.501201652E-3,7.775810361E-2,7.778328012E-2
4.816653625E0,1.211743336E-3,-1.296414994E-3,8.020851016E-2,8.022813793E-2
4.826608625E0,1.194166485E-3,1.332124695E-3,8.067989349E-2,8.069972617E-2
4.836564625E0,-1.689625205E-4,3.361878917E-4,7.642960548E-2,7.643053163E-2
4.846520625E0,1.584995305E-3,-1.588184386E-5,7.188145816E-2,7.189893247E-2
4.856476625E0,-1.091903541E-3,1.766942441E-4,7.325985283E-2,7.326820259E-2
4.866432625E0,1.410935191E-3,-5.074711516E-4,7.532380521E-2,7.533872774E-2
4.876388625E0,3.013373585E-3,7.336400449E-5,7.574393600E-2,7.580388937E-2
4.886344625E0,-1.530511770E-3,5.516670644E-4,8.161194623E-2,8.162816040E-2
4.896300625E0,-7.312610978E-4,-1.084449701E-3,8.059313893E-2,8.060375188E-2
4.906256625E0,-1.569358050E-3,-2.238131128E-3,7.974332571E-2,7.979016300E-2
4.916212625E0,-1.138741150E-3,3.782352433E-4,7.556640357E-2,7.557592964E-2
4.926168625E0,-8.412939496E-5,1.329584047E-4,7.141506672E-2,7.141524004E-2
4.936124625E0,9.467085474E-4,9.327866137E-4,7.046233863E-2,7.047487150E-2
4.946080625E0,1.056697103E-3,1.058220863E-3,7.379794866E-2,7.381309956E-2
4.956036625E0,5.204031477E-4,-1.444550231E-3,7.923574001E-2,7.925061539E-2
4.965992625E0,-3.225865774E-3,5.208626390E-4,8.025226742E-2,8.031876452E-2
4.975948625E0,1.685122726E-3,8.143866435E-4,8.336443454E-2,8.338544124E-2
4.985904625E0,-3.554567229E-5,-3.664596006E-4,8.031991124E-2,8.032075509E-2
4.995860625E0,4.515682813E-4,-6.298534572E-5,7.413886487E-2,7.414026683E-2
5.005816625E0,1.969570061E-3,-1.017196104E-3,7.169514894E-2,7.172941012E-2
5.015772625E0,-1.752958051E-3,1.153136604E-3,7.232307643E-2,7.235350696E-2
5.025728625E0,-2.257627435E-3,-3.856383264E-4,7.734633237E-2,7.738023475E-2
5.035683625E0,-1.634241780E-4,-1.757563092E-3,8.213325590E-2,8.215222127E-2
5.045639625E0,-4.720846191E-4,-1.966841519E-4,8.158517629E-2,8.158677919E-2
5.055595042E0,1.605693018E-3,1.190412790E-3,7.850624621E-2,7.853168804E-2
5.065551042E0,-6.153833820E-4,-1.954967156E-4,7.429658622E-2,7.429939192E-2
5.075507042E0,-1.019987394E-3,-3.507230431E-4,7.232808322E-2,7.233612516E-2
5.085463042E0,-1.089495723E-3,1.421344467E-3,7.386898994E-2,7.389069560E-2
5.095419042E0,6.635984173E-4,2.182473429E-3,7.580932230E-2,7.584363454E-2
5.105375042E0,-5.880872486E-4,1.827059314E-4,7.434911281E-2,7.435166309E-2
5.115331042E0,-2.074108459E-3,4.811370745E-4,7.633204013E-2,7.636172974E-2
5.125287042E0,3.842554288E-4,6.515160203E-5,7.639888674E-2,7.639988084E-2
5.135243042E0,1.277960837E-3,-1.448021270E-3,7.529471815E-2,7.531948307E-2
5.145199042E0,-1.066952362E-3,-1.037362032E-3,7.561323047E-2,7.562787270E-2
5.155155042E0,-6.374180084E-4,-4.196371883E-4,7.208476961E-2,7.208880916E-2
5.165111042E0,1.311483211E-3,2.304408699E-4,7.413913310E-2,7.415108999E-2
5.175067042E0,1.446629642E-3,5.141235888E-4,7.684140652E-2,7.685674217E-2
5.185023042E0,1.118532382E-4,2.738662064E-3,7.934584469E-2,7.939317257E-2
5.194979042E0,7.729110075E-4,4.674196243E-4,7.759451866E-2,7.759977577E-2
5.204935042E0,2.192216925E-6,-1.091547310E-4,7.853274792E-2,7.853282381E-2
5.214891042E0,-8.303291397E-4,5.106199533E-4,7.512012124E-2,7.512644537E-2
5.224847042E0,-9.437798290E-4,-9.487923235E-4,7.742002606E-2,7.743159150E-2
5.234803042E0,-2.465917496E-3,-6.951810792E-4,7.573612779E-2,7.577945024E-2
5.244759042E0,-9.069028310E-4,-4.573604092E-4,7.729115337E-2,7.729782688E-2
5.254714042E0,-1.837318763E-3,-2.397336997E-3,7.840953022E-2,7.846768376E-2
5.264670042E0,1.626388519E-3,-2.473503351E-3,8.156963438E-2,8.162333374E-2
5.274626042E0,-1.207863330E-3,-1.704183407E-3,7.659447193E-2,7.662294895E-2
5.284582042E0,-1.451349817E-6,1.277757809E-3,7.818836719E-2,7.819880709E-2
5.294538042E0,4.261217546E-4,5.737980828E-4,7.644642889E-2,7.644976988E-2
5.304494042E0,-1.309726620E-3,1.133061945E-3,7.541152090E-2,7.543140392E-2
5.314450042E0,-2.037474420E-3,-1.740874723E-3,7.515421510E-2,7.520198132E-2
5.324406042E0,-6.265316624E-4,8.762134239E-4,7.556328177E-2,7.557095900E-2
5.334362042E0,-1.072886284E-3,1.654125750E-3,7.801168412E-2,7.803659447E-2
5.344318042E0,-2.515675733E-4,2.634168603E-3,7.726067305E-2,7.730597474E-2
5.354274042E0,-1.415184699E-3,-7.914779708E-4,7.637414336E-2,7.639135396E-2
5.364230042E0,8.104190929E-4,-7.166434079E-4,7.474269718E-2,7.475052601E-2
5.374186042E0,-2.246159129E-3,-2.428302541E-4,7.937832177E-2,7.941046634E-2
5.384142042E0,-1.403534785E-3,1.109256409E-3,7.684219629E-2,7.686301770E-2
5.394098042E0,-1.687805634E-3,2.558315173E-3,7.886721939E-2,7.892675059E-2
5.404054042E0,1.476448961E-4,1.486925408E-3,7.931277156E-2,7.932684589E-2
5.414010042E0,-1.731567667E-3,-1.714017242E-3,7.697293907E-2,7.701148961E-2
5.423966042E0,-1.296140836E-3,9.560678154E-4,7.545600086E-2,7.547318804E-2
5.433922042E0,-2.647716319E-4,6.234776229E-4,7.260207087E-2,7.260523068E-2
5.443878042E0,-3.256034106E-3,-1.971240155E-3,7.590892166E-2,7.600428891E-2
5.453834042E0,3.342870623E-4,9.536463767E-4,7.607541978E-2,7.608213118E-2
5.463790042E0,1.970000565E-3,-3.803307191E-4,7.485701889E-2,7.488390235E-2
5.473746042E0,2.738530748E-4,6.066011265E-4,7.783246785E-2,7.783531340E-2
5.483701042E0,1.813426497E-3,-5.737114698E-4,8.021972328E-2,8.024226856E-2
5.493657042E0,-1.058908063E-3,5.880361423E-4,7.782991976E-2,7.783934405E-2
5.503613042E0,3.431946971E-5,5.462244153E-4,7.343437523E-2,7.343641470E-2
5.513569042E0,-1.447459916E-3,-4.255678505E-4,7.369390130E-2,7.370934362E-2
5.523525042E0,3.182159271E-4,2.090632915E-4,7.274581492E-2,7.274681132E-2
5.533481042E0,5.423515104E-4,1.751986332E-3,7.611382008E-2,7.613591273E-2
5.543437042E0,-6.112072151E-5,-2.922564745E-4,7.835460454E-2,7.835517343E-2
5.553393042E0,1.128850272E-3,4.172725603E-4,8.241809905E-2,8.242688560E-2
5.563349042E0,1.032976550E-3,3.857072443E-5,7.685848325E-2,7.686543421E-2
5.573305042E0,-1.405250514E-4,-7.796371356E-4,7.503585517E-2,7.504003693E-2
5.583261042E0,-2.478247508E-3,1.669139601E-3,6.934441626E-2,6.940875884E-2
5.593217042E0,-1.099382760E-3,1.784800552E-3,7.018839568E-2,7.021969128E-2
5.603173042E0,-3.259738907E-3,1.671882346E-3,7.180546969E-2,7.189886345E-2
5.613129042E0,-1.887525432E-4,4.542646930E-4,7.775720209E-2,7.775875810E-2
5.623085042E0,-3.149863333E-4,1.561340876E-3,7.930795848E-2,7.932395149E-2
5.633041042E0,1.654754509E-3,1.521294005E-3,7.820814848E-2,7.824044374E-2
5.642997042E0,-4.166521830E-4,1.297322102E-3,7.841374725E-2,7.842558512E-2
5.652953042E0,8.092024364E-4,-1.966179349E-3,7.607288659E-2,7.610259354E-2
5.662909042E0,-1.652623527E-3,-9.073065594E-4,7.402464747E-2,7.404865160E-2
5.672865042E0,-1.139272936E-3,1.411745325E-3,7.492136955E-2,7.494332914E-2
5.682821042E0,5.206752103E-4,-2.136117779E-3,7.569208741E-2,7.572401336E-2
5.692777042E0,2.034124918E-6,-2.150046639E-3,7.942662388E-2,7.945571903E-2
5.702732042E0,7.905961247E-4,3.228473477E-3,8.124876022E-2,8.131672104E-2
5.712688042E0,7.399909664E-4,-1.961189322E-3,8.282937855E-2,8.285589780E-2
5.722644042E0,-1.331682084E-3,2.709196415E-3,7.596747577E-2,7.602743253E-2
5.732600042E0,1.988291042E-4,1.293922774E-3,7.475613803E-2,7.476759955E-2
5.742556042E0,-9.806849994E-4,-2.147583291E-4,7.596708089E-2,7.597371416E-2
5.752512042E0,5.382248200E-4,1.317194663E-3,7.501990348E-2,7.503339660E-2
5.762468042E0,-1.795503311E-3,-1.258348115E-3,7.569608092E-2,7.572782804E-2
5.772424042E0,2.722418169E-3,3.803400323E-4,7.819597423E-2,7.824427522E-2
5.782380042E0,-1.480316278E-3,1.164209098E-4,7.585745305E-2,7.587198477E-2
5.792336042E0,1.460302155E-4,-6.629806012E-5,7.790723443E-2,7.790739950E-2
5.802292042E0,1.176140970E-3,9.961705655E-5,7.993603498E-2,7.994474916E-2
5.812248042E0,-1.958841458E-3,-2.672104165E-4,7.715798169E-2,7.718330519E-2
5.822204042E0,-1.153501333E-3,2.590296790E-4,7.623812556E-2,7.624729143E-2
5.832160042E0,2.862451365E-4,-8.562859148E-4,7.576154917E-2,7.576692877E-2
5.842116042E0,1.126070274E-4,2.129917033E-3,7.433170080E-2,7.436229536E-2
5.852072042E0,-7.482026704E-4,-1.231893897E-3,7.904315740E-2,7.905629704E-2
5.862028042E0,-2.355420263E-3,9.710732847E-4,7.809720933E-2,7.813875539E-2
5.871984042E0,-1.890638378E-4,-4.466325045E-4,7.831290364E-2,7.831440546E-2
5.881940042E0,2.599798376E-3,1.315400004E-4,7.453867048E-2,7.458411125E-2
5.891896042E0,-6.301653339E-4,-1.427615061E-3,7.448939979E-2,7.450574390E-2
5.901852042E0,9.693292086E-4,3.598984331E-4,7.589501888E-2,7.590206200E-2
5.911808042E0,1.118049957E-3,-9.291674942E-4,7.548737526E-2,7.550137225E-2
5.921763042E0,-1.349102356E-3,-3.563212231E-4,7.722082734E-2,7.723343329E-2
5.931719042E0,-2.277258318E-4,5.319062620E-5,7.830467820E-2,7.830502740E-2
5.941675042E0,1.678564819E-3,1.312214881E-4,7.895289361E-2,7.897084404E-2
5.951631042E0,-3.644597251E-3,5.475403741E-4,7.779233903E-2,7.787959233E-2
5.961587042E0,1.038305461E-3,-2.777725458E-4,7.819633931E-2,7.820372572E-2
5.971543042E0,1.476420905E-3,-6.043976173E-4,7.514183223E-2,7.515876573E-2
5.981499042E0,-4.378592130E-4,-6.451439112E-4,7.353354990E-2,7.353768349E-2
5.991455042E0,-2.473866567E-3,2.500984818E-3,7.462351769E-2,7.470638750E-2
6.001411042E0,-5.872834008E-4,-6.119841710E-4,7.675111294E-2,7.675579954E-2
6.011367042E0,-1.813520561E-3,8.262638003E-4,7.781507075E-2,7.784058584E-2
6.021323042E0,7.036991883E-4,-8.448697627E-4,7.963321358E-2,7.964080426E-2
6.031279042E0,9.334773640E-4,-1.172614284E-3,7.798758149E-2,7.800198248E-2
6.041235042E0,-8.391225711E-4,-7.297303528E-4,7.719182968E-2,7.719983940E-2
6.051191750E0,-1.294991467E-3,-2.658106387E-4,7.628699392E-2,7.629844756E-2
6.061147750E0,3.793379292E-4,1.413868740E-4,7.268080115E-2,7.268192859E-2
6.071103750E0,1.082224771E-4,-2.137385309E-6,7.231037319E-2,7.231045420E-2
6.081059750E0,6.001084112E-4,-7.254518569E-4,7.511334866E-2,7.511924892E-2
6.091015750E0,-3.449585754E-3,6.832852960E-4,7.713841647E-2,7.721853285E-2
6.100971750E0,1.050624065E-3,-1.289850101E-3,8.165540546E-2,8.167235007E-2
6.110927750E0,-8.104322478E-5,1.263717189E-3,8.149982244E-2,8.150965959E-2
6.120883750E0,-3.592953552E-3,3.396002576E-4,8.347295970E-2,8.355094041E-2
6.130839750E0,-4.076617770E-4,-4.284018651E-4,7.888359576E-2,7.888581239E-2
6.140795750E0,-1.032172935E-3,2.191881649E-3,7.452160865E-2,7.456098096E-2
6.150751750E0,1.000444870E-3,-5.554351956E-4,7.420136780E-2,7.421019055E-2
6.160706750E0,-2.928250236E-3,1.573761925E-3,7.456621528E-2,7.464028294E-2
6.170662750E0,8.036706131E-4,-2.491776831E-3,7.634722441E-2,7.639210374E-2
6.180618750E0,1.264930121E-3,1.973278821E-3,7.751448452E-2,7.754991418E-2
6.190574750E0,-1.112166792E-3,1.101534814E-3,7.743337750E-2,7.744919784E-2
6.200530750E0,5.349889398E-5,-5.155364051E-4,7.919266075E-2,7.919435685E-2
6.210486750E0,2.128745895E-3,1.463932917E-3,7.919717580E-2,7.923930410E-2
6.220442750E0,8.373791934E-4,6.910832599E-4,7.854416966E-2,7.855167336E-2
6.230398750E0,-3.322666744E-4,7.915999740E-4,7.822652906E-2,7.823123980E-2
6.240354750E0,1.056305598E-3,-7.740724832E-4,7.446800917E-2,7.447952309E-2
6.250310750E0,-1.260856632E-3,1.872170717E-3,7.434357703E-2,7.437783425E-2
6.260266750E0,-7.788056973E-5,3.398161847E-3,7.483439893E-2,7.491155339E-2
6.270222750E0,1.967521850E-3,-1.042850316E-3,7.573634386E-2,7.576907324E-2
6.280178750E0,-4.905756796E-4,-8.065067232E-5,7.898353785E-2,7.898510252E-2
6.290134750E0,-1.287773950E-3,1.742025837E-3,7.728005946E-2,7.731041719E-2
6.300090750E0,-2.158094896E-3,1.010721549E-3,7.815331221E-2,7.818963576E-2
6.310046750E0,-1.637328533E-3,4.098368809E-4,7.475553453E-2,7.477458628E-2
6.320002750E0,1.431431971E-3,-6.311926991E-4,7.542052865E-2,7.543675194E-2
6.329958750E0,-1.990404213E-3,3.258185461E-4,7.460787892E-2,7.463513559E-2
6.339914750E0,-1.552200411E-4,-2.749906853E-4,7.492852211E-2,7.492918750E-2
6.349870750E0,9.644089732E-5,-2.539950423E-3,7.574671507E-2,7.578934947E-2
6.359826750E0,1.090598991E-3,1.543208957E-3,7.932067662E-2,7.934318270E-2
6.369782750E0,-1.822437160E-3,2.970723435E-4,7.770700008E-2,7.772893535E-2
6.379738750E0,1.958186273E-3,1.713708043E-4,8.049506694E-2,8.051906397E-2
6.389693750E0,-1.291116350E-3,4.591904581E-4,7.830121368E-2,7.831320388E-2
6.399649750E0,1.712254016E-4,1.020608470E-4,7.540290058E-2,7.540316406E-2
6.409605750E0,1.445558271E-3,1.457321458E-3,7.657117397E-2,7.659868215E-2
6.419561750E0,-1.872257562E-4,-8.290018886E-4,7.447074354E-2,7.447559292E-2
6.429517750E0,-2.515673637E-3,-9.677167982E-4,7.550171763E-2,7.554981439E-2
6.439473750E0,9.237990598E-4,1.472005621E-3,7.800722122E-2,7.802657732E-2
6.449429750E0,-2.463816665E-3,1.590624452E-4,7.890006155E-2,7.893868130E-2
6.459385750E0,1.558626536E-5,2.195164561E-4,7.476923615E-2,7.476956001E-2
6.469341750E0,-7.334831171E-4,-2.825741656E-3,7.008376718E-2,7.014454530E-2
6.479297750E0,2.278818516E-3,9.679310024E-4,7.323668152E-2,7.327851953E-2
6.489253750E0,-5.271688569E-4,2.228161320E-4,7.544182986E-2,7.544400073E-2
6.499209750E0,-3.087265883E-3,-1.154038124E-3,7.643226534E-2,7.650329535E-2
6.509165750E0,-1.410330529E-3,-3.384402022E-3,7.960764319E-2,7.969203262E-2
6.519121750E0,1.787776127E-4,-3.529543988E-3,7.963614166E-2,7.971452001E-2
6.529077750E0,-1.903738710E-3,-3.325119615E-4,7.908886671E-2,7.911247451E-2
6.539033750E0,-2.000677865E-3,-7.815202698E-4,7.802785933E-2,7.805741680E-2
6.548989750E0,8.381964872E-4,-1.365258358E-3,7.459412515E-2,7.461132629E-2
6.558945750E0,1.639807946E-3,-1.904814504E-3,7.488174736E-2,7.492391725E-2
6.568901750E0,1.087207813E-3,1.103865914E-3,7.689236104E-2,7.690796921E-2
6.578857750E0,-7.935165195E-4,-1.539321616E-3,7.929266244E-2,7.931157227E-2
6.588813750E0,-9.997475427E-4,-1.875432208E-4,7.730924338E-2,7.731593484E-2
6.598769750E0,8.016428910E-5,-2.077056095E-3,7.703892887E-2,7.706696536E-2
6.608725750E0,-9.182479698E-4,-1.135256141E-3,7.607351243E-2,7.608752381E-2
6.618681750E0,1.654365566E-3,-1.163305715E-4,7.118235528E-2,7.120167247E-2
6.628636750E0,-1.430491800E-3,-4.150243476E-4,7.303628325E-2,7.305146969E-2
6.638592750E0,1.061427873E-3,-3.958493471E-4,7.679906487E-2,7.680741951E-2
6.648548750E0,4.078911152E-4,-1.747169532E-3,7.786993682E-2,7.789060301E-2
6.658504750E0,5.359891802E-4,-1.049688086E-3,8.118210733E-2,8.119066252E-2
6.668460750E0,1.077839872E-3,-8.009802550E-4,8.230920881E-2,8.232016256E-2
6.678416750E0,-2.133133356E-3,1.094657928E-3,8.145460486E-2,8.148988396E-2
6.688372750E0,1.685378840E-3,1.622172073E-3,8.041363955E-2,8.044765608E-2
6.698328750E0,-1.701363130E-3,1.101258211E-3,7.680612057E-2,7.683285472E-2
6.708284750E0,3.638397902E-3,5.067661405E-4,7.285036147E-2,7.294292232E-2
6.718240750E0,-1.419211272E-3,1.143794507E-3,7.408074290E-2,7.410316386E-2
6.728196750E0,1.005323720E-3,1.313009299E-3,7.639008015E-2,7.640797743E-2
6.738152750E0,1.320731826E-4,-1.133371145E-3,7.839224488E-2,7.840054866E-2
6.748108750E0,5.708336830E-4,-5.392963067E-4,7.735023648E-2,7.735422273E-2
6.758064750E0,-8.401089581E-4,1.922743395E-4,8.016199619E-2,8.016662887E-2
6.768020750E0,1.280393917E-5,1.037620008E-3,7.609473914E-2,7.610181433E-2
6.777976750E0,6.245321129E-4,-1.040711068E-3,7.602895796E-2,7.603864523E-2
6.787932750E0,-1.252021524E-3,1.000436023E-4,7.704177499E-2,7.705201269E-2
6.797888750E0,4.228405887E-4,-5.761329085E-4,7.409045845E-2,7.409390499E-2
6.807844750E0,3.801712301E-4,9.057018906E-5,7.668083161E-2,7.668182751E-2
6.817800750E0,5.404935218E-4,-7.176995277E-4,7.680227607E-2,7.680753112E-2
6.827756750E0,-2.233113162E-3,5.462486297E-5,7.773697376E-2,7.776906112E-2
6.837712750E0,-2.454155590E-3,1.230411232E-3,7.738278061E-2,7.743146342E-2
6.847668750E0,-1.558741555E-3,-1.592312008E-3,7.582982630E-2,7.586255788E-2
6.857624750E0,-7.771037053E-4,-2.306039445E-3,7.642903179E-2,7.646776189E-2
6.867579750E0,5.018032389E-4,-4.437658936E-4,7.528452575E-2,7.528750595E-2
6.877535750E0,-3.184011672E-3,-4.546847194E-4,7.673195004E-2,7.679932829E-2
6.887491750E0,1.105524134E-3,-1.381188631E-3,7.668659836E-2,7.670700251E-2
6.897447750E0,1.600872143E-3,-1.906363294E-3,7.608978450E-2,7.613049532E-2
6.907403750E0,-3.254333744E-3,-4.756655544E-4,7.639607787E-2,7.646684026E-2
6.917359750E0,-7.456359453E-4,1.803201623E-3,7.577875257E-2,7.580387094E-2
6.927315750E0,-1.965062227E-3,1.817921177E-3,7.355095446E-2,7.359965495E-2
6.937271750E0,6.719998783E-4,-1.070010476E-3,7.464019209E-2,7.465088601E-2
6.947227750E0,7.230625488E-4,1.304935664E-3,7.690220326E-2,7.691667272E-2
6.957183750E0,-6.157086464E-4,1.869525760E-3,7.762578875E-2,7.765073923E-2
6.967139750E0,4.459599731E-4,2.317999490E-3,7.747472078E-2,7.751067256E-2
6.977095750E0,-6.717687938E-4,1.449276693E-3,7.602915913E-2,7.604593818E-2
6.987051750E0,1.311143278E-3,-2.531409264E-4,7.522183657E-2,7.523368842E-2
6.997007750E0,-1.976795495E-3,1.591098495E-3,7.718964666E-2,7.723134640E-2
7.006963750E0,-1.416163985E-3,1.576309092E-3,7.853092998E-2,7.855951397E-2
7.016919750E0,3.005097387E-4,-4.977611825E-4,7.603448629E-2,7.603670941E-2
7.026875750E0,-1.802270766E-3,1.256198622E-3,7.565291971E-2,7.568481007E-2
7.036831750E0,-2.097003162E-4,2.170194872E-3,7.619726658E-2,7.622845370E-2
7.046787750E0,1.367322635E-3,-2.226978540E-4,7.502149791E-2,7.503428759E-2
7.056743500E0,-1.890287967E-4,6.164647639E-4,7.783832401E-2,7.784099463E-2
7.066699500E0,6.556651788E-4,-8.925702423E-5,7.916544378E-2,7.916820923E-2
7.076655500E0,-1.067666337E-3,1.692397520E-3,8.023683727E-2,8.026178527E-2
7.086611500E0,2.562466310E-3,3.559412435E-4,7.551034540E-2,7.555465035E-2
7.096567500E0,-1.001622295E-4,8.931383491E-6,7.650955766E-2,7.650962375E-2
7.106522500E0,8.997251280E-5,1.184685156E-3,7.617340237E-2,7.618266734E-2
7.116478500E0,2.313711913E-3,1.067506149E-3,7.449321449E-2,7.453678177E-2
7.126434500E0,-7.867719978E-5,1.895598136E-3,7.835847884E-2,7.838144353E-2
7.136390500E0,-2.754088724E-3,2.859130036E-3,7.741065323E-2,7.751237877E-2
7.146346500E0,3.782805288E-4,2.304355614E-3,7.713028789E-2,7.716563005E-2
7.156302500E0,-4.672730574E-4,2.316171303E-4,8.098734915E-2,8.098902835E-2
7.166258500E0,-1.808336470E-3,1.505198888E-3,7.900048792E-2,7.903551605E-2
7.176214500E0,7.043558871E-4,-6.714025512E-4,7.617114484E-2,7.617736019E-2
7.186170500E0,-1.110519515E-3,-2.107992768E-4,7.531682402E-2,7.532530564E-2
7.196126500E0,-2.780151553E-4,5.314238369E-4,7.464064658E-2,7.464305611E-2
7.206082500E0,-1.115851803E-3,-1.548812725E-3,7.510942221E-2,7.513367587E-2
7.216038500E0,-2.314274199E-3,-1.495549455E-3,7.377357781E-2,7.382501823E-2
7.225994500E0,-2.591607627E-4,2.549947239E-3,7.516992837E-2,7.521361264E-2
7.235950500E0,-1.351323212E-3,-1.396590844E-3,7.636941224E-2,7.639413372E-2
7.245906500E0,1.683706185E-3,8.355900645E-4,7.768245041E-2,7.770518760E-2
7.255862500E0,5.678110756E-5,1.398848370E-3,8.020818979E-2,8.022040706E-2
7.265818500E0,-6.439385470E-4,-1.542545855E-3,7.743816823E-2,7.745620700E-2
7.275774500E0,4.048143746E-4,-9.005796164E-5,7.960359007E-2,7.960467032E-2
7.285730500E0,-1.278838608E-3,3.780210391E-4,7.670605183E-2,7.671764279E-2
7.295686500E0,-1.932644518E-3,-3.151996061E-4,7.328148931E-2,7.330764722E-2
7.305642500E0,-5.565076135E-4,-6.750635803E-4,7.678421587E-2,7.678919988E-2
7.315598500E0,1.857153839E-4,-1.348576508E-3,7.549764216E-2,7.550991405E-2
7.325554500E0,-7.150159217E-5,-1.266188920E-4,7.254470140E-2,7.254484713E-2
7.335510500E0,4.432874266E-4,6.752554327E-5,7.613224536E-2,7.613356584E-2
7.345466500E0,7.314148825E-4,6.648441777E-4,7.720947266E-2,7.721579925E-2
7.355421500E0,6.078442093E-4,2.250490710E-3,7.823718339E-2,7.827190459E-2
7.365377500E0,-2.084369771E-5,-1.294604503E-3,7.809718698E-2,7.810791925E-2
7.375333500E0,-2.344185486E-3,-1.462384127E-3,7.941119373E-2,7.945924403E-2
7.385289500E0,8.394322358E-4,1.582875848E-5,7.611747831E-2,7.612210849E-2
7.395245500E0,1.632556086E-4,-2.989573404E-4,7.329106331E-2,7.329185486E-2
7.405201500E0,-1.387807075E-3,-1.948240213E-3,7.649041712E-2,7.652780906E-2
7.415157500E0,2.339819446E-3,1.573790796E-3,7.854344696E-2,7.859404960E-2
7.425113500E0,-7.739714347E-4,1.797734760E-3,7.696052641E-2,7.698541100E-2
7.435069500E0,-3.009695094E-3,-3.210339695E-3,7.482627034E-2,7.495555536E-2
7.445025500E0,1.001456985E-4,-4.163887352E-4,7.620351017E-2,7.620471357E-2
7.454981500E0,-9.326282889E-4,1.185236499E-3,7.689832896E-2,7.691311707E-2
7.464937500E0,-8.351856377E-4,1.022343524E-3,7.575245947E-2,7.576396133E-2
7.474893500E0,1.784832217E-3,8.329935372E-4,7.898553461E-2,7.901008911E-2
7.484849500E0,-6.816550158E-4,-5.095656961E-4,7.657326013E-2,7.657798951E-2
7.494805500E0,-6.664749235E-4,-7.292767987E-4,7.614156604E-2,7.614797510E-2
7.504761500E0,-2.078910824E-3,1.560232602E-3,7.561171055E-2,7.565637427E-2
7.514717500E0,-1.249069814E-3,-1.421175897E-3,7.586790621E-2,7.589149563E-2
7.524673500E0,1.552659436E-3,3.651548177E-4,7.784676552E-2,7.786310417E-2
7.534629500E0,2.674915595E-3,5.356501788E-5,7.687391341E-2,7.692045635E-2
7.544585500E0,-7.108910941E-4,9.269118309E-4,7.617796212E-2,7.618691781E-2
7.554541500E0,7.245527813E-4,2.086572349E-4,7.684135437E-2,7.684505356E-2
7.564497500E0,7.488174597E-4,1.060752198E-3,7.724659145E-2,7.725750328E-2
7.574453500E0,1.315005473E-3,1.457829960E-3,7.614031434E-2,7.616562201E-2
7.584409500E0,1.642663847E-3,-2.634823322E-4,7.746287435E-2,7.748073742E-2
7.594365500E0,-7.299464196E-4,1.591675915E-3,7.591264695E-2,7.593284020E-2
7.604320500E0,-5.547730252E-4,7.096920162E-4,7.824049890E-2,7.824568425E-2
7.614276500E0,1.181874424E-3,-1.339077950E-3,7.491394132E-2,7.493522911E-2
7.624232500E0,-3.346956801E-4,-6.426684558E-4,7.458960265E-2,7.459312212E-2
7.634188500E0,-2.303038025E-3,-6.056502461E-4,7.260102034E-2,7.264006436E-2
7.644144500E0,2.126056934E-3,1.421887428E-3,7.638898492E-2,7.643179246E-2
7.654100500E0,4.317539278E-4,-8.740238845E-4,7.558897138E-2,7.559525728E-2
7.664056500E0,1.236194279E-3,6.439127028E-4,7.762121409E-2,7.763372770E-2
7.674012500E0,2.764049685E-3,-3.643603995E-4,7.955493778E-2,7.960377412E-2
7.683968500E0,9.129685350E-4,-1.292236149E-3,7.553075999E-2,7.554733013E-2
7.693924500E0,-1.259306446E-4,-3.026053309E-4,7.476457208E-2,7.476529053E-2
7.703880500E0,1.198833808E-3,-2.858398482E-3,7.647964358E-2,7.654242959E-2
7.713836500E0,-7.916127797E-4,3.685541451E-4,7.473128289E-2,7.473638421E-2
7.723792500E0,-1.727417810E-3,1.596756279E-3,7.549382746E-2,7.553046794E-2
7.733748500E0,-1.152707729E-3,7.477402687E-4,7.677427679E-2,7.678657062E-2
7.743704500E0,1.152252778E-3,-1.548100263E-4,7.710510492E-2,7.711386943E-2
7.753660500E0,-1.329813385E-3,4.571843892E-4,7.550268620E-2,7.551578011E-2
7.763616500E0,8.076371159E-4,2.191456966E-3,7.452795655E-2,7.456454297E-2
7.773572500E0,3.101585899E-4,-1.495423727E-3,7.489760220E-2,7.491317178E-2
7.783528500E0,5.890789907E-4,-1.254392788E-3,7.487284392E-2,7.488566800E-2
7.793484500E0,-1.140377717E-3,-3.190906718E-4,7.385312021E-2,7.386261331E-2
7.803440500E0,-1.856446965E-3,9.651025757E-4,7.613826543E-2,7.616700914E-2
7.813396500E0,1.896597678E-4,9.445967153E-4,7.488898188E-2,7.489517902E-2
7.823352500E0,-1.036419999E-4,1.111043617E-3,7.379467785E-2,7.380311402E-2
7.833308500E0,-2.407946158E-4,5.120988935E-4,7.397045195E-2,7.397261648E-2
7.843264500E0,7.346541388E-4,1.370064914E-3,7.623896748E-2,7.625481596E-2
7.853220500E0,1.260362100E-3,-3.593973815E-6,7.835485041E-2,7.836498650E-2
7.863175500E0,1.865235739E-3,5.599725991E-4,7.823375612E-2,7.825799174E-2
7.873131500E0,-4.075060133E-4,-1.123145223E-3,7.916533202E-2,7.917434755E-2
7.883087500E0,4.996223142E-4,-1.314070076E-3,7.923900336E-2,7.925147353E-2
7.893043500E0,-1.045543700E-3,-2.386858687E-4,7.440216839E-2,7.440989715E-2
7.902999500E0,2.369793365E-4,-4.039499909E-4,7.292039692E-2,7.292190084E-2
7.912955500E0,-4.591709003E-4,-1.109154895E-3,7.301734388E-2,7.302721116E-2
7.922911500E0,1.014367794E-3,1.380465925E-3,7.280977815E-2,7.282992807E-2
7.932867500E0,-7.126922719E-4,1.251036301E-3,7.677895576E-2,7.679245451E-2
7.942823500E0,-1.217750832E-4,-1.956758089E-3,7.663824409E-2,7.666331710E-2
7.952779500E0,-1.313623507E-4,2.925479785E-4,7.795357704E-2,7.795423666E-2
7.962735500E0,1.649356564E-3,-1.326874830E-3,7.945391536E-2,7.948210893E-2
7.972691500E0,2.735676244E-4,-1.002768055E-3,7.787360251E-2,7.788053897E-2
7.982647500E0,4.591932520E-4,1.755850390E-4,7.485367358E-2,7.485528797E-2
7.992603500E0,5.169839133E-4,1.726550981E-4,7.353620231E-2,7.353822226E-2
8.002559500E0,-2.046049573E-3,1.687802374E-3,7.415262610E-2,7.420004685E-2
8.012515500E0,6.442755694E-4,2.480978146E-4,7.645200193E-2,7.645511914E-2
8.022471500E0,-1.657789107E-4,-1.581092365E-3,7.507447898E-2,7.509130929E-2
8.032427500E0,-1.845967025E-3,-4.135631025E-4,7.772379369E-2,7.774681173E-2
8.042383500E0,-2.112747170E-3,9.243628010E-4,7.875717431E-2,7.879093002E-2
8.052339250E0,8.569238707E-5,-2.055181190E-3,7.814437896E-2,7.817144668E-2
8.062295250E0,3.903405741E-6,-3.535486758E-4,7.528781891E-2,7.528864913E-2
8.072251250E0,1.305656624E-3,-2.367164940E-3,7.528275996E-2,7.533128272E-2
8.082207250E0,1.764155459E-4,1.012351364E-3,7.590425760E-2,7.591121326E-2
8.092163250E0,1.272839028E-3,-4.704967141E-4,7.585738599E-2,7.586952284E-2
8.102119250E0,5.234126002E-5,-7.710140198E-5,7.694458961E-2,7.694464605E-2
8.112075250E0,1.838789671E-3,4.344917834E-4,7.675151527E-2,7.677476816E-2
8.122031250E0,-2.555503976E-3,-4.700608552E-4,8.167037368E-2,8.171169742E-2
8.131987250E0,-6.028742064E-4,1.495618373E-3,7.922318578E-2,7.923959551E-2
8.141942250E0,1.768722432E-4,-2.654759213E-3,7.682909071E-2,7.687514690E-2
8.151898250E0,2.011523815E-3,4.315786064E-4,7.853803784E-2,7.856497868E-2
8.161854250E0,-4.485503305E-4,-1.437130384E-3,7.647174597E-2,7.648656400E-2
8.171810250E0,-4.336365964E-4,2.862010151E-4,7.506159693E-2,7.506339511E-2
8.181766250E0,1.435568556E-3,6.419885904E-5,7.610499859E-2,7.611856402E-2
8.191722250E0,-2.086670138E-4,-1.632767729E-3,7.526716590E-2,7.528516278E-2
8.201678250E0,-7.668712642E-4,1.450647600E-3,7.347080857E-2,7.348912968E-2
8.211634250E0,-2.855055965E-3,6.149476394E-4,7.426229864E-2,7.431970469E-2
8.221590250E0,-2.613627119E-3,1.128369011E-3,7.650955021E-2,7.656249432E-2
8.231546250E0,-6.846995093E-4,-1.019470394E-3,7.597851753E-2,7.598844162E-2
8.241502250E0,1.592465094E-3,-7.450515404E-4,7.460864633E-2,7.462935853E-2
8.251458250E0,1.387135359E-3,-9.381305426E-4,7.548136264E-2,7.549993602E-2
8.261414250E0,9.766509756E-4,1.640869305E-4,7.698398829E-2,7.699035799E-2
8.271370250E0,-1.210070681E-3,-9.576361626E-4,7.630168647E-2,7.631728962E-2
8.281326250E0,-1.926510595E-5,1.894782297E-3,7.263836265E-2,7.266307383E-2
8.291282250E0,-1.172946533E-3,-6.621191278E-4,7.633189857E-2,7.634378131E-2
8.301238250E0,-1.003937097E-3,1.106888056E-3,7.872125506E-2,7.873543732E-2
8.311194250E0,7.516186452E-4,-1.138689928E-3,7.807277143E-2,7.808469238E-2
8.321150250E0,-1.595159527E-3,4.117665812E-4,7.843667269E-2,7.845397191E-2
8.331106250E0,-7.365564816E-4,-2.520107664E-3,7.813520730E-2,7.817930722E-2
8.341062250E0,1.683631446E-3,1.091494225E-3,7.744884491E-2,7.747483173E-2
8.351018250E0,-1.967029646E-3,-4.114769399E-5,7.437528670E-2,7.440130490E-2
8.360974250E0,-3.059627488E-5,1.046369784E-3,7.580532134E-2,7.581254889E-2
8.370930250E0,-4.220809788E-4,-1.017047092E-3,7.583355159E-2,7.584154589E-2
8.380886250E0,1.730726915E-3,-6.137443706E-4,7.546466589E-2,7.548700481E-2
8.390842250E0,3.000522032E-3,1.790025271E-3,7.866179943E-2,7.873935492E-2
8.400798250E0,3.576653544E-4,9.611602873E-4,7.701215148E-2,7.701897967E-2
8.410753250E0,6.103994092E-4,3.888476640E-4,7.714691013E-2,7.715030481E-2
8.420709250E0,1.850434812E-3,-3.901785240E-4,7.748314738E-2,7.750622218E-2
8.430665250E0,-1.037928741E-4,-1.558195800E-4,7.830420136E-2,7.830442519E-2
8.440621250E0,4.633134231E-4,1.471593045E-3,7.430304587E-2,7.431906129E-2
8.450577250E0,-2.324604429E-5,6.553335115E-4,7.634462416E-2,7.634744030E-2
8.460533250E0,1.967773307E-3,1.156171784E-4,7.434453070E-2,7.437065782E-2
8.470489250E0,7.395234425E-4,1.351856627E-3,7.685402036E-2,7.686946635E-2
8.480445250E0,6.216015900E-4,-2.282792702E-4,7.783293724E-2,7.783575412E-2
8.490401250E0,2.109776018E-3,-2.827588469E-5,7.612159103E-2,7.615082781E-2
8.500357250E0,-2.547782613E-3,-8.219480515E-4,7.831634581E-2,7.836208787E-2
8.510313250E0,-3.075887216E-3,-2.278964035E-3,7.749395818E-2,7.758845477E-2
8.520269250E0,1.465002308E-3,-1.291880384E-3,7.584498078E-2,7.587012782E-2
8.530225250E0,-1.915081870E-3,-1.271639951E-3,7.616269588E-2,7.619738087E-2
8.540181250E0,-1.193792792E-3,2.799928188E-4,7.715789229E-2,7.716763492E-2
8.550137250E0,9.577750461E-4,-1.261179335E-3,7.669983059E-2,7.671617769E-2
8.560093250E0,1.596810995E-3,-7.584933192E-4,7.787632942E-2,7.789639146E-2
8.570049250E0,-1.330535626E-3,-7.778964937E-5,7.619480789E-2,7.620646380E-2
8.580005250E0,2.931960626E-4,-1.455991529E-3,7.515855134E-2,7.517322472E-2
8.589961250E0,-2.318565967E-3,-1.817915589E-3,7.607947290E-2,7.613650085E-2
8.599917250E0,-2.482161857E-3,1.787208021E-4,7.659441978E-2,7.663483679E-2
8.609873250E0,1.278487733E-3,-1.379229128E-3,7.366653532E-2,7.369053691E-2
8.619829250E0,2.691230504E-3,-1.021753997E-4,7.712727785E-2,7.717428425E-2
8.629785250E0,-1.418559812E-3,1.660045236E-4,7.528969646E-2,7.530324204E-2
8.639741250E0,-7.879545446E-4,-1.424049959E-3,7.529221475E-2,7.530980277E-2
8.649697250E0,1.252026879E-3,2.260166220E-3,7.463920861E-2,7.468391651E-2
8.659653250E0,1.470587682E-3,-4.589501768E-4,7.502862811E-2,7.504444216E-2
8.669609250E0,-1.132119680E-3,-2.054450102E-3,7.236733288E-2,7.240534046E-2
8.679564250E0,1.698184060E-4,-4.733102396E-4,7.499836385E-2,7.500004961E-2
8.689520250E0,-2.155387541E-3,-7.683886215E-4,7.678481191E-2,7.681890039E-2
8.699476250E0,1.839744044E-3,6.788279861E-4,7.608465850E-2,7.610992527E-2
8.709432250E0,-2.348076785E-3,9.038653225E-4,7.606921345E-2,7.611081179E-2
8.719388250E0,-2.061947947E-3,4.846742377E-4,7.541257143E-2,7.544231219E-2
8.729344250E0,-5.738670006E-5,2.485507168E-3,7.679075748E-2,7.683099292E-2
8.739300250E0,1.576350303E-3,-6.800554693E-4,7.618923485E-2,7.620857474E-2
8.749256250E0,-4.535112530E-4,1.724779606E-3,7.728485763E-2,7.730543161E-2
8.759212250E0,2.556976397E-3,-1.447089016E-4,7.597155869E-2,7.601471436E-2
8.769168250E0,-3.653101157E-4,1.750396565E-3,7.466208190E-2,7.468349090E-2
8.779124250E0,-1.756571000E-3,5.013628863E-3,7.791189849E-2,7.809280340E-2
8.789080250E0,1.004328136E-3,-7.736869156E-4,7.508015633E-2,7.509085923E-2
8.799036250E0,1.708549680E-3,-1.354126260E-3,7.546280324E-2,7.549428769E-2
8.808992250E0,-1.101085218E-3,5.521643907E-4,7.608571649E-2,7.609568665E-2
8.818948250E0,-4.890221171E-4,1.273662783E-3,7.723277807E-2,7.724482745E-2
8.828904250E0,1.011669054E-3,4.598014057E-4,7.720561326E-2,7.721361026E-2
8.838860250E0,-8.646582719E-4,4.213582724E-5,7.440098375E-2,7.440601987E-2
8.848816250E0,-1.126979478E-3,-1.467344351E-3,7.753445953E-2,7.755653162E-2
8.858772250E0,2.797108609E-3,-1.959314570E-3,7.758248597E-2,7.765761302E-2
8.868728250E0,-5.688606761E-4,4.399279132E-4,7.439627498E-2,7.439975047E-2
8.878684250E0,5.211172393E-4,-2.529312856E-3,7.723937184E-2,7.728253068E-2
8.888640250E0,1.768275630E-3,-2.637617290E-4,7.741460949E-2,7.743525122E-2
8.898596250E0,2.748156898E-3,1.931033097E-3,7.892882824E-2,7.900026065E-2
8.908552250E0,1.351328800E-3,-8.495729417E-4,7.673012465E-2,7.674672562E-2
8.918508250E0,9.686264675E-4,-1.029398292E-3,7.323310524E-2,7.324674465E-2
8.928464250E0,-1.602123026E-3,-1.076776534E-4,7.457587123E-2,7.459315627E-2
8.938420250E0,1.136411913E-3,-5.069300532E-4,7.522656769E-2,7.523685863E-2
8.948376250E0,2.421387006E-3,1.106413081E-3,7.560154051E-2,7.564839847E-2
8.958332250E0,-3.114230232E-3,2.059952356E-3,7.642427832E-2,7.651543733E-2
8.968288250E0,1.650697552E-3,5.376897752E-4,7.438402623E-2,7.440428261E-2
8.978243250E0,-1.989190001E-3,-6.212601438E-4,7.626329362E-2,7.629176099E-2
8.988199250E0,-6.893009413E-4,-1.089710742E-3,7.350745052E-2,7.351875874E-2
8.998155250E0,1.675943029E-3,-1.154216006E-4,7.411096990E-2,7.413000720E-2
9.008111250E0,-1.007724321E-3,-4.714867100E-4,7.408460230E-2,7.409295584E-2
9.018067250E0,-1.185855595E-3,-9.807385504E-4,7.508337498E-2,7.509914313E-2
9.028023250E0,-3.128098790E-3,-3.636842594E-4,7.335551828E-2,7.342308445E-2
9.037979250E0,-7.204124704E-4,4.481533542E-4,7.170852274E-2,7.171354174E-2
9.047935250E0,-1.111897174E-3,-5.936753005E-4,7.298204303E-2,7.299292685E-2
9.057891125E0,1.648201607E-3,-2.227058634E-3,7.388009131E-2,7.393202453E-2
9.067847125E0,-1.044254284E-3,2.251798287E-4,7.407955825E-2,7.408726020E-2
9.077803125E0,2.380070509E-3,5.196314305E-4,7.111474872E-2,7.115646308E-2
9.087759125E0,-1.924396493E-3,7.408484817E-5,7.198693603E-2,7.201269159E-2
9.097715125E0,-6.701748352E-4,1.705940813E-4,6.967149675E-2,6.967492875E-2
9.107671125E0,-1.792164519E-3,-4.946636036E-4,7.190215588E-2,7.192618831E-2
9.117627125E0,9.136795998E-4,1.509925351E-3,7.097832114E-2,7.100025885E-2
9.127583125E0,-1.837099670E-3,1.187415794E-3,7.493551075E-2,7.496743069E-2
9.137539125E0,-2.067326102E-3,1.807427034E-4,7.149456441E-2,7.152467578E-2
9.147495125E0,2.260044217E-3,-3.843791783E-4,7.017070055E-2,7.020813887E-2
9.157451125E0,-1.074205851E-3,4.377560690E-4,7.037798315E-2,7.038754195E-2
9.167407125E0,8.430037415E-4,3.077937290E-4,6.726181507E-2,6.726780180E-2
9.177363125E0,-3.183425404E-3,-2.262613736E-3,7.001386583E-2,7.012271406E-2
9.187319125E0,-3.428978380E-4,-2.092970535E-3,6.492589414E-2,6.496052520E-2
9.197275125E0,-3.019855358E-4,1.703722402E-3,6.590577960E-2,6.592848891E-2
9.207231125E0,-2.706021070E-3,8.158246055E-4,6.808717549E-2,6.814581121E-2
9.217187125E0,-1.090515172E-3,2.349144779E-3,6.386497617E-2,6.391746933E-2
9.227143125E0,6.450669607E-4,-2.523641102E-3,6.412756443E-2,6.418044403E-2
9.237099125E0,3.629251383E-3,-2.452312969E-3,6.270307302E-2,6.285587221E-2
9.247055125E0,-2.698826138E-4,1.831115223E-3,6.240905449E-2,6.243649495E-2
9.257011125E0,-6.179255433E-5,6.991438568E-5,5.838488787E-2,5.838496243E-2
9.266967125E0,-1.141704153E-3,-2.920096740E-4,5.917690694E-2,5.918863973E-2
9.276922125E0,4.499711795E-4,-2.669223584E-3,5.768617243E-2,5.774964691E-2
9.286878125E0,-1.365771983E-3,3.073913977E-4,5.280220136E-2,5.282075625E-2
9.296834125E0,2.645210363E-3,-6.711166352E-4,5.228573456E-2,5.235690570E-2
9.306790125E0,1.317624468E-3,-8.013453335E-4,5.286763608E-2,5.289012416E-2
9.316746125E0,4.384057829E-4,-1.084753312E-3,5.281303450E-2,5.282599268E-2
9.326702125E0,-2.095325850E-3,-1.315115951E-3,5.208945647E-2,5.214816771E-2
9.336658125E0,-1.878076699E-3,4.784390330E-5,5.085994676E-2,5.089463278E-2
9.346614125E0,2.131312154E-3,-2.009981312E-3,4.999095947E-2,5.007672658E-2
9.356570125E0,5.025481805E-4,8.742874488E-4,4.751346260E-2,4.752416293E-2
9.366526125E0,1.484455774E-3,2.713594586E-5,5.825612321E-2,5.827503957E-2
9.376482125E0,1.391239464E-3,5.468614399E-4,7.340117544E-2,7.341639572E-2
9.386438125E0,-1.850626664E-3,-9.796628729E-4,9.225369245E-2,9.227745298E-2
9.396394125E0,-4.759339150E-3,-1.179269515E-3,9.833862633E-2,9.846079125E-2
9.406350125E0,-5.550070200E-4,1.146202907E-3,9.770346433E-2,9.771176365E-2
9.416306125E0,-1.814770512E-4,-4.431679845E-4,8.832238615E-2,8.832368440E-2
9.426262125E0,-7.205009460E-4,-3.038840368E-4,8.798842132E-2,8.799189595E-2
9.436218125E0,-2.868603915E-4,-2.321423031E-3,8.126784861E-2,8.130150375E-2
9.446174125E0,1.203178195E-3,-1.608494669E-3,8.063694835E-2,8.066196335E-2
9.456130125E0,-1.508851070E-3,1.772856340E-4,7.448398322E-2,7.449947529E-2
9.466086125E0,-6.577046588E-4,9.819027036E-5,7.224319875E-2,7.224625930E-2
9.476042125E0,-6.712230388E-4,-1.449591480E-3,7.213329524E-2,7.215098154E-2
9.485998125E0,-8.682969492E-4,-8.240146562E-4,7.537329197E-2,7.538279699E-2
9.495954125E0,1.164658461E-4,-6.318157539E-4,7.018898427E-2,7.019192453E-2
9.505910125E0,3.452313831E-4,-8.193021640E-4,7.340395451E-2,7.340933849E-2
9.515866125E0,-5.826540291E-4,8.007269353E-4,7.501196861E-2,7.501850495E-2
9.525822125E0,-1.021542819E-3,1.444679685E-3,7.545192540E-2,7.547266853E-2
9.535778125E0,-5.981372669E-5,4.882216454E-4,7.543446124E-2,7.543606485E-2
9.545734125E0,5.686923396E-4,2.906145528E-4,7.647629082E-2,7.647895740E-2
9.555690125E0,-1.690089470E-3,-1.319434494E-3,7.595754415E-2,7.598780049E-2
9.565646125E0,-6.368092727E-4,1.932817511E-3,7.702573389E-2,7.705261183E-2
9.575602125E0,4.766096827E-4,-5.324892700E-4,7.493158430E-2,7.493499201E-2
9.585558125E0,-8.585001342E-5,-3.386599012E-3,7.694067061E-2,7.701521419E-2
9.595513125E0,1.760437852E-3,9.770756587E-4,7.539171726E-2,7.541859750E-2
9.605469125E0,-1.006852835E-3,-6.075762212E-5,7.595710456E-2,7.596380176E-2
9.615425125E0,-3.333544824E-3,-1.663057134E-3,7.971747220E-2,7.980447139E-2
9.625381125E0,-1.967343036E-3,-2.393828705E-3,8.071616292E-2,8.077561396E-2
9.635337125E0,2.695589792E-4,1.912652515E-3,8.258002251E-2,8.260260904E-2
9.645293125E0,5.070972256E-3,5.083670840E-4,8.263195306E-2,8.278896583E-2
9.655249125E0,-2.487339079E-4,1.716676168E-3,8.337078989E-2,8.338883290E-2
9.665205125E0,-7.059988566E-4,6.836354733E-4,8.490450680E-2,8.491019413E-2
9.675161125E0,2.530566417E-5,6.826967001E-5,8.133722097E-2,8.133725355E-2
9.685117125E0,-9.739124216E-4,1.318091527E-3,8.274470270E-2,8.276093097E-2
9.695073125E0,-8.280444890E-4,-1.763424836E-3,8.145416528E-2,8.147745925E-2
9.705029125E0,-9.870349895E-4,2.917367965E-4,8.146961033E-2,8.147611157E-2
9.714985125E0,3.493926488E-5,2.262406051E-3,7.695529610E-2,7.698855304E-2
9.724941125E0,-1.642319607E-3,2.485234290E-4,8.048558235E-2,8.050272010E-2
9.734897125E0,-2.539073816E-3,4.263250157E-4,7.965378463E-2,7.969538290E-2
9.744853125E0,2.438640688E-3,-1.067441888E-3,8.393667638E-2,8.397887855E-2
9.754809125E0,-3.608502448E-5,-2.147173509E-4,8.045694977E-2,8.045724437E-2
9.764765125E0,2.374217147E-4,7.903594524E-4,8.252862096E-2,8.253274692E-2
9.774721125E0,-1.074002124E-3,-4.651211202E-5,8.377260715E-2,8.377950437E-2
9.784677125E0,-2.331546973E-3,1.448053867E-3,8.571165800E-2,8.575559042E-2
9.794633125E0,5.486679729E-4,4.160217941E-6,8.533666283E-2,8.533842673E-2
9.804589125E0,-6.279165391E-4,9.783450514E-4,8.870130032E-2,8.870891791E-2
9.814545125E0,-1.025000121E-3,-2.574780956E-4,8.761598170E-2,8.762235542E-2
9.824501125E0,1.095408807E-3,1.474908553E-3,9.024931490E-2,9.026801270E-2
9.834457125E0,5.218860460E-4,1.680006273E-3,8.856148273E-2,8.857895353E-2
9.844413125E0,4.510459257E-4,2.266167663E-3,9.027016908E-2,9.029973634E-2
9.854369125E0,2.241126262E-3,4.821540788E-4,9.078156203E-2,9.081050118E-2
9.864325125E0,1.952860039E-4,1.611866988E-3,9.358054399E-2,9.359462840E-2
9.874281125E0,7.397587178E-4,7.952097803E-4,9.252535552E-2,9.253172978E-2
9.884237125E0,6.902238820E-4,4.348838702E-4,9.412591159E-2,9.412944686E-2
9.894193125E0,4.630049225E-4,9.388271719E-4,9.631942958E-2,9.632511762E-2
9.904149125E0,1.335719135E-4,2.384923398E-3,9.703315794E-2,9.706255427E-2
9.914105125E0,-1.830862835E-3,1.053689048E-3,9.867820144E-2,9.870080931E-2
9.924060125E0,2.743660007E-4,1.696575433E-3,1.002667770E-1,1.002815048E-1
9.934016125E0,-4.141337704E-4,5.994085222E-5,1.017902344E-1,1.017910945E-1
9.943972125E0,5.390114384E-4,1.161158085E-3,1.046818942E-1,1.046897215E-1
9.953928125E0,-8.529680781E-4,-7.671564817E-4,1.041659415E-1,1.041722585E-1
9.963884125E0,1.725504408E-3,1.386009157E-3,1.043411791E-1,1.043646494E-1
9.973840125E0,-3.289065557E-3,-7.799277082E-4,1.046869233E-1,1.047414825E-1
9.983796125E0,-4.209720530E-3,-1.790597104E-3,8.185697347E-2,8.198470644E-2
9.993752125E0,3.094314830E-3,1.545408741E-3,5.804440752E-2,5.814736724E-2
1.000370813E1,2.296431689E-3,8.652368560E-4,4.963866994E-2,4.969929362E-2
1.001366413E1,-2.067869296E-3,5.578622222E-5,5.443727598E-2,5.447656571E-2
1.002362013E1,9.541655891E-5,-1.028386876E-3,6.072552875E-2,6.073431094E-2
1.003357613E1,8.551357314E-5,-1.425203867E-3,6.262504309E-2,6.264131657E-2
1.004353213E1,-2.108961344E-4,-1.165012829E-3,6.804750860E-2,6.805780748E-2
1.005348813E1,1.385896467E-3,-1.535570249E-3,7.072564214E-2,7.075588415E-2
1.006344488E1,5.089176120E-4,3.789765760E-4,7.594943047E-2,7.595208100E-2
1.007340088E1,-2.089899499E-4,7.615787908E-4,8.033649623E-2,8.034037781E-2
1.008335688E1,1.879727235E-3,-5.755936727E-4,8.163478971E-2,8.165845684E-2
1.009331288E1,6.337651284E-4,1.411925070E-3,8.146262914E-2,8.147732898E-2
1.010326888E1,1.354682958E-3,1.562659629E-3,8.362431079E-2,8.364988001E-2
1.011322488E1,2.843055408E-4,8.761584759E-4,8.300086856E-2,8.300597969E-2
1.012318088E1,-9.223727975E-4,2.540900838E-3,8.425122499E-2,8.429457789E-2
1.013313687E1,5.837850040E-4,1.893139444E-3,8.535546064E-2,8.537844836E-2
1.014309288E1,1.267684740E-3,1.722052693E-4,8.667106181E-2,8.668050320E-2
1.015304887E1,-3.859773278E-5,-1.428046264E-3,8.669853956E-2,8.671030831E-2
1.016300488E1,1.783004496E-3,-1.785442233E-3,8.805035800E-2,8.808650551E-2
1.017296088E1,-1.371728955E-3,-5.228733644E-4,8.780305833E-2,8.781532946E-2
1.018291688E1,1.147887670E-3,-9.665554389E-4,8.529435843E-2,8.530755802E-2
1.019287288E1,-2.410358284E-4,-4.341918975E-4,7.329568267E-2,7.329736502E-2
1.020282888E1,1.377899665E-3,7.766764611E-5,6.784498692E-2,6.785902217E-2
1.021278488E1,7.637606468E-4,5.977405235E-4,6.486596167E-2,6.487321179E-2
1.022274088E1,-5.904566497E-4,-3.372952342E-4,7.056432962E-2,7.056760604E-2
1.023269688E1,1.853493741E-3,-3.529498354E-4,7.584962249E-2,7.587308643E-2
1.024265288E1,-1.011801418E-3,1.290487126E-3,7.992638648E-2,7.994320705E-2
1.025260888E1,-3.300434910E-4,1.065128483E-3,8.289545774E-2,8.290295738E-2
1.026256487E1,6.262976676E-4,-3.831359558E-3,8.396071941E-2,8.405042515E-2
1.027252088E1,2.402460668E-4,-2.243087627E-3,7.975815982E-2,7.979005713E-2
1.028247588E1,1.466365531E-3,-2.670213580E-4,7.792057842E-2,7.793483220E-2
1.029243188E1,-7.000286132E-4,5.996897817E-4,7.222756743E-2,7.223344908E-2
1.030238788E1,-6.180030759E-4,-1.833108254E-3,7.286939025E-2,7.289506327E-2
1.031234388E1,-1.685171854E-3,4.191957414E-4,7.730654627E-2,7.732604752E-2
1.032229988E1,-4.393451381E-4,2.503917553E-3,7.697365433E-2,7.701562236E-2
1.033225588E1,-2.100874204E-3,3.782780841E-4,7.840282470E-2,7.843187928E-2
1.034221188E1,4.464394879E-4,-1.468092203E-3,8.271714300E-2,8.273137463E-2
1.035216788E1,2.859814558E-3,-6.324611604E-6,7.948797941E-2,7.953940816E-2
1.036212388E1,-2.261178102E-3,1.101017930E-3,7.698886842E-2,7.702993591E-2
1.037207988E1,2.087987261E-3,-1.164246351E-3,7.407364249E-2,7.411221001E-2
1.038203588E1,9.553448763E-4,1.955114305E-3,7.568299025E-2,7.571426662E-2
1.039199187E1,-4.139025696E-4,5.642753094E-4,7.496388257E-2,7.496714888E-2
1.040194788E1,3.426908283E-3,-9.987344965E-4,7.621557266E-2,7.629911327E-2
1.041190387E1,1.302795601E-3,-2.033263445E-4,7.832670957E-2,7.833780728E-2
1.042185988E1,1.747010858E-3,-2.627335489E-3,7.677781582E-2,7.684261800E-2
1.043181588E1,1.025013160E-3,-1.559888944E-3,7.673034817E-2,7.675304708E-2
1.044177188E1,-3.848641645E-4,2.507823519E-3,7.483790815E-2,7.488090408E-2
1.045172788E1,3.001157194E-3,1.875086688E-3,7.785036415E-2,7.793075191E-2
1.046168388E1,-1.011960441E-3,-1.390481368E-3,7.891429961E-2,7.893303608E-2
1.047163988E1,-9.698646609E-4,7.389513776E-4,8.028575033E-2,8.029500852E-2
1.048159588E1,-1.295569353E-3,-4.296433181E-4,7.919065654E-2,7.920241901E-2
1.049155188E1,1.283841440E-3,5.362937227E-4,7.613462955E-2,7.614734188E-2
1.050150788E1,-1.925534103E-3,3.157835454E-4,7.382007688E-2,7.384586076E-2
1.051146388E1,2.146823099E-3,-4.836916924E-4,7.346396148E-2,7.349691452E-2
1.052141987E1,7.792898687E-4,1.839117147E-3,7.941452414E-2,7.943963928E-2
1.053137588E1,1.745318761E-3,1.500723884E-3,7.625063509E-2,7.628536990E-2
1.054133187E1,6.289216690E-4,-1.335276291E-3,7.590895146E-2,7.592329957E-2
1.055128788E1,-2.712127753E-4,-6.527733058E-5,7.687726617E-2,7.687777228E-2
1.056124387E1,-1.168165356E-3,-1.226415858E-3,7.519042492E-2,7.520949877E-2