"Time (s)","Gyroscope x (rad/s)","Gyroscope y (rad/s)","Gyroscope z (rad/s)","Absolute (rad/s)"
4.712666665E-3,-2.285327995E-3,-1.992236823E-3,6.321845576E-3,7.011238342E-3
1.466966667E-2,1.982516842E-3,2.990094945E-4,-1.549854875E-3,2.534132956E-3
2.462666667E-2,-9.821099229E-5,1.594591886E-4,1.317836344E-3,1.331076730E-3
3.458366667E-2,-6.674644537E-4,-3.689480945E-4,-8.073356003E-4,1.110595455E-3
4.453966667E-2,-1.112212427E-3,2.097139135E-3,3.637745976E-3,4.343754692E-3
5.449666667E-2,-3.305184655E-4,-2.212225460E-3,5.470566452E-3,5.910184535E-3
6.445366667E-2,1.059917849E-3,-1.020194031E-3,6.313990802E-3,6.483108942E-3
7.441066666E-2,-2.403369639E-3,1.758167520E-3,4.664383829E-3,5.533878852E-3
8.436766667E-2,-1.455284189E-3,8.111475036E-4,3.236129880E-3,3.639828148E-3
9.432466666E-2,-3.965171054E-4,-3.025004640E-3,1.593330875E-3,3.441886425E-3
1.042816667E-1,-1.535284799E-3,1.723145135E-3,3.901142627E-4,2.340623358E-3
1.142376667E-1,5.280050682E-4,1.781850122E-3,3.375172615E-3,3.852994860E-3
1.241946667E-1,9.231199510E-5,-1.051753759E-3,5.435127765E-3,5.536724781E-3
1.341516667E-1,9.452332743E-4,3.113392740E-4,5.607452244E-3,5.695078467E-3
1.441086667E-1,3.995515872E-4,7.563531399E-4,4.150968045E-3,4.238189148E-3
1.540656667E-1,1.015892718E-3,-3.937669098E-4,1.106437296E-3,1.552834145E-3
1.640226667E-1,-3.505751956E-4,-7.098838687E-4,-2.809740603E-3,2.919157469E-3
1.739796667E-1,9.541125037E-4,-2.380133606E-3,-4.742890596E-4,2.607741699E-3
1.839366667E-1,1.469434239E-3,7.964847609E-4,1.213621348E-3,2.065551194E-3
1.938926667E-1,-2.292694291E-3,3.001280129E-4,4.005527124E-3,4.625015835E-3
2.038496667E-1,-1.546210377E-3,1.563178375E-4,6.950451061E-3,7.122076365E-3
2.138066667E-1,-1.454470214E-3,1.747841947E-3,4.967113957E-3,5.462843228E-3
2.237636667E-1,5.359762581E-4,-1.059396192E-3,9.137820452E-4,1.498195070E-3
2.337206667E-1,6.907413481E-4,3.532860428E-4,1.054851338E-3,1.309444914E-3
2.436776667E-1,5.778233754E-4,8.518304676E-4,2.375282347E-4,1.056368620E-3
2.536346667E-1,-1.555164577E-3,1.180329360E-3,2.698166296E-3,3.330437752E-3
2.635906667E-1,-5.301139317E-4,6.311852485E-4,1.853412017E-3,2.028435778E-3
2.735476667E-1,-3.370046616E-4,1.175076701E-3,6.116602570E-3,6.237563979E-3
2.835046667E-1,7.026934763E-4,1.706111245E-3,1.294950023E-3,2.254215887E-3
2.934616667E-1,-1.452167984E-3,4.870723933E-5,3.548929468E-3,3.834848708E-3
3.034186667E-1,2.004881389E-3,-3.576911986E-4,-5.062650889E-4,2.098522509E-3
3.133756667E-1,3.220870160E-3,3.018379211E-4,-2.875030041E-4,3.247732854E-3
3.233326667E-1,-2.654063283E-3,-1.796199940E-3,1.829177141E-3,3.690023733E-3
3.332896667E-1,-1.437849132E-3,1.729594544E-3,3.715120256E-3,4.342928267E-3
3.432456667E-1,1.238284167E-4,-1.662206836E-3,5.075728521E-3,5.342404427E-3
3.532026667E-1,-1.254217001E-3,1.370599493E-4,3.382794559E-3,3.610421685E-3
3.631596667E-1,6.819011178E-4,5.152290687E-4,8.264258504E-4,1.188877544E-3
3.731166667E-1,-7.684472948E-4,-1.375033520E-3,7.063765079E-4,1.726324476E-3
3.830736667E-1,-1.820190810E-4,-3.241496161E-4,2.814268693E-3,2.838716646E-3
3.930306667E-1,7.619765820E-4,-4.457421601E-4,1.598702744E-3,1.826237895E-3
4.029876667E-1,4.200267140E-4,-1.820465550E-3,3.657326102E-3,4.106890731E-3
4.129436667E-1,8.202461759E-4,1.231453381E-3,2.347821370E-3,2.775166014E-3
4.229006667E-1,3.070550738E-4,-2.144902013E-3,1.884430647E-3,2.871579065E-3
4.328576667E-1,3.720630193E-4,5.865655839E-5,-4.562735558E-5,3.794118313E-4
4.428146667E-1,-2.248753794E-3,-9.703887627E-4,-1.103967428E-3,2.686501825E-3
4.527716667E-1,1.102228300E-3,-1.085241325E-3,6.103757769E-4,1.662893426E-3
4.627286667E-1,2.002156107E-4,-1.803495921E-3,2.956353128E-3,3.468819345E-3
4.726856667E-1,-3.545745276E-4,-1.089483500E-3,2.207621932E-3,2.487225761E-3
4.826426667E-1,-2.672323491E-3,1.291382127E-3,1.977259293E-3,3.566305505E-3
4.925986667E-1,6.267578574E-4,-1.866208389E-3,3.794236109E-3,4.274551066E-3
5.025556667E-1,2.026248956E-3,1.495233737E-3,1.220032573E-4,2.521169085E-3
5.125126667E-1,-1.040394651E-3,3.523007035E-5,-3.580749035E-5,1.041606626E-3
5.224696667E-1,4.270070931E-4,1.369630918E-4,1.697378233E-3,1.755615793E-3
5.324266667E-1,1.111975987E-3,-8.747745305E-4,-5.886349827E-4,1.532387751E-3
5.423836667E-1,1.939153881E-3,8.616065606E-4,3.266822547E-3,3.895486259E-3
5.523406667E-1,-1.206894172E-3,1.626145095E-4,3.709690645E-3,3.904464330E-3
5.622966667E-1,-9.600189514E-4,8.991081268E-5,1.955199987E-3,2.180029204E-3
5.722536667E-1,-1.612076769E-3,-7.228339091E-4,1.807561144E-3,2.527559625E-3
5.822106667E-1,-6.618609186E-4,-1.147075556E-3,1.652564853E-3,2.117737661E-3
5.921676667E-1,-6.214468740E-4,4.337988794E-4,5.715563893E-4,9.492388483E-4
6.021246667E-1,-1.815075520E-3,-1.043456607E-3,-9.680166841E-4,2.306589937E-3
6.120816667E-1,-4.770131782E-4,8.299853653E-4,4.678964615E-3,4.775890194E-3
6.220386667E-1,1.283070073E-3,-1.314125024E-3,2.149760723E-3,2.827483785E-3
6.319956667E-1,3.517832374E-4,-4.991851747E-4,2.991614863E-3,3.053309152E-3
6.419516667E-1,-5.408260040E-5,-1.689085737E-3,1.495184377E-3,2.256437873E-3
6.519086667E-1,8.537371177E-4,7.060086355E-4,-1.936301589E-3,2.230824758E-3
6.618656667E-1,-3.752999008E-3,-1.435439102E-3,1.710578799E-4,4.021784152E-3
6.718226667E-1,-2.578103449E-4,1.421589404E-3,2.247428522E-3,2.671763007E-3
6.817796667E-1,-5.780695938E-5,1.797573641E-4,1.046875492E-3,1.063768137E-3
6.917366667E-1,6.823352305E-4,5.293246359E-4,5.330750719E-3,5.400247139E-3
7.016936667E-1,2.102599014E-3,1.227606088E-3,4.872420803E-3,5.446872846E-3
7.116496667E-1,6.542447954E-5,3.755595535E-4,5.040371791E-3,5.054767366E-3
7.216066667E-1,6.949957460E-4,-1.409291290E-3,1.512482762E-3,2.180991777E-3
7.315636667E-1,4.750766093E-4,4.949020222E-4,9.787380695E-4,1.195221321E-3
7.415206667E-1,3.331301268E-4,-1.336047426E-4,2.530828118E-3,2.556152748E-3
7.514776667E-1,2.945425222E-3,5.789566785E-4,1.964144409E-3,3.587280841E-3
7.614342917E-1,5.142254522E-4,-1.983537339E-3,3.604384139E-3,4.146134732E-3
7.713912917E-1,3.418842098E-4,-3.362195566E-4,2.724150196E-3,2.766030132E-3
7.813472917E-1,1.333112828E-3,-6.107911468E-4,6.998814642E-4,1.624835285E-3
7.913042917E-1,2.885770286E-3,1.217181794E-3,-1.148078591E-3,3.335758701E-3
8.012612917E-1,-1.049316488E-3,-4.297160544E-3,1.659244299E-4,4.426531909E-3
8.112182917E-1,-1.602722099E-3,-3.992896527E-4,4.470674321E-3,4.766033911E-3
8.211752917E-1,1.822103048E-3,-1.534800977E-4,1.655979082E-3,2.466958122E-3
8.311322917E-1,-1.577726565E-3,6.097778678E-4,2.495644614E-3,3.014845303E-3
8.410892917E-1,3.357547102E-4,-1.462940127E-4,2.125198022E-3,2.156524935E-3
8.510462917E-1,-3.665076802E-3,2.206810750E-3,6.568934768E-4,4.328314994E-3
8.610022917E-1,-2.037086291E-3,4.595108330E-4,6.550289690E-4,2.188591719E-3
8.709592917E-1,-3.492957912E-4,-4.411358386E-4,1.786537468E-3,1.873052189E-3
8.809162917E-1,-1.525614178E-3,-1.617986709E-3,3.756478429E-3,4.365376249E-3
8.908732917E-1,8.202383760E-4,-1.064641401E-3,6.649680436E-4,1.499478178E-3
9.008302917E-1,-1.316948328E-3,8.600251749E-4,2.657545730E-3,3.088129775E-3
9.107872917E-1,-1.419546781E-3,-9.960895404E-4,8.759461343E-5,1.736369849E-3
9.207442917E-1,1.775508281E-4,-7.348330691E-4,2.292692661E-3,2.414113414E-3
9.307002917E-1,1.115936670E-3,1.321017742E-3,1.278433949E-3,2.150533861E-3
9.406572917E-1,1.193701057E-3,1.329272985E-3,2.295495942E-3,2.908812559E-3
9.506142917E-1,1.292409375E-3,3.365371376E-4,3.086257726E-3,3.362821136E-3
9.605712917E-1,1.280425116E-3,1.600740477E-3,3.451375291E-3,4.014206018E-3
9.705282917E-1,3.742955159E-4,1.638296992E-3,3.126900643E-3,3.549876307E-3
9.804852917E-1,7.007990498E-4,1.142948866E-3,5.662720650E-4,1.455374684E-3
9.904422917E-1,4.215717781E-4,3.663413227E-4,-3.273170441E-4,6.473524358E-4
1.000399292E0,6.495383568E-4,2.939030528E-4,2.804825082E-3,2.894015001E-3
1.010355292E0,3.951364197E-4,9.756786749E-4,5.106210709E-3,5.213585088E-3
1.020312292E0,5.185487680E-5,3.096219152E-4,3.867574036E-3,3.880294265E-3
1.030269292E0,-2.960405545E-3,1.433754340E-3,2.688506618E-3,4.248260860E-3
1.040226292E0,-8.259387687E-5,-1.375613734E-3,1.799277961E-3,2.266392745E-3
1.050183292E0,-1.113370992E-3,-7.057311013E-4,-4.640799016E-4,1.397505459E-3
1.060140292E0,1.048583305E-3,-1.560542732E-4,1.484554261E-3,1.824220720E-3
1.070097292E0,-1.361830160E-3,-1.000114717E-3,2.119168639E-4,1.702856303E-3
1.080053292E0,1.325299265E-3,-2.985767089E-3,1.910481602E-3,3.784331275E-3
1.090010292E0,6.340570981E-4,-5.508298054E-4,4.102010280E-3,4.187114784E-3
1.099967292E0,-2.551882295E-3,-1.119147986E-3,4.764072597E-3,5.519146961E-3
1.109924292E0,-4.261636641E-4,6.054686382E-4,4.293968901E-3,4.357335959E-3
1.119881292E0,1.062277122E-3,8.246470243E-4,1.131996512E-3,1.757808722E-3
1.129838292E0,1.413535560E-3,-3.012072295E-3,5.329754204E-4,3.369677297E-3
1.139795292E0,-8.795456961E-5,3.645494580E-4,-2.895109355E-5,3.761256166E-4
1.149752292E0,1.245606807E-3,-2.216622233E-4,2.985605970E-3,3.242609052E-3
1.159708292E0,8.453336777E-4,3.607710823E-4,1.568539068E-3,1.817982291E-3
1.169665292E0,-9.170619305E-4,7.298476994E-4,3.245173022E-3,3.450337403E-3
1.179622292E0,-8.241175674E-4,-4.651956260E-6,2.298418432E-3,2.441704056E-3
1.189579292E0,-1.190958545E-3,-1.002086326E-3,9.633339942E-4,1.830456677E-3
1.199536292E0,1.972344238E-3,-2.822335809E-4,-5.211122334E-4,2.059455158E-3
1.209493292E0,-2.954113996E-3,-1.248810440E-5,2.788621932E-3,4.062432490E-3
1.219450292E0,-1.783921150E-3,-3.514811397E-3,3.003273159E-3,4.955393374E-3
1.229406292E0,1.492958982E-4,4.218081012E-4,1.677758992E-4,4.778703714E-4
1.239363292E0,-6.989210378E-4,1.329147257E-3,2.567550167E-3,2.974464138E-3
1.249320292E0,2.117793774E-3,9.935013950E-4,9.812787175E-4,2.536730852E-3
1.259277292E0,9.095175192E-4,1.290709712E-3,9.844750166E-4,1.860737686E-3
1.269234292E0,-1.678111730E-3,-1.145303249E-4,1.122299582E-3,2.022061454E-3
1.279191292E0,8.124766173E-4,-3.707259893E-4,2.558009699E-3,2.709422380E-3
1.289148292E0,-1.796758035E-3,-1.410549507E-3,4.590008408E-3,5.127003660E-3
1.299104292E0,6.264523836E-4,-2.349313349E-3,3.451507539E-3,4.221921374E-3
1.309061292E0,2.645746339E-3,-1.094784588E-3,2.266611904E-3,3.651856584E-3
1.319018292E0,5.016353680E-4,-1.020749100E-3,3.280743957E-3,3.472297176E-3
1.328975292E0,1.134752529E-3,-1.103046350E-3,-6.021335721E-4,1.693203883E-3
1.338932292E0,9.882786544E-4,1.181412488E-3,-1.211669296E-4,1.545028023E-3
1.348889292E0,7.768722717E-4,-6.011696532E-4,2.134181559E-3,2.349397030E-3
1.358846292E0,-1.001053955E-3,2.529062331E-4,2.493707463E-3,2.699008614E-3
1.368803292E0,1.836848794E-3,4.085283726E-4,3.210442141E-3,3.721269631E-3
1.378759292E0,-1.980725210E-4,-1.888191327E-4,2.651443705E-3,2.665527923E-3
1.388716292E0,-4.522425588E-4,5.269944668E-4,3.720114008E-3,3.784375078E-3
1.398673292E0,-1.285279403E-3,-1.507128589E-3,-1.584369689E-3,2.536455605E-3
1.408630292E0,7.637757808E-4,7.799752057E-4,5.133617669E-4,1.206339533E-3
1.418587292E0,4.274185048E-4,-7.151234895E-4,2.694757655E-3,2.820604014E-3
1.428544292E0,-5.967689212E-4,-6.712637842E-4,1.943171024E-3,2.140710593E-3
1.438501292E0,-3.698675428E-4,1.086689532E-3,3.187667578E-3,3.388055597E-3
1.448457292E0,1.119449735E-4,1.619472168E-3,5.021654069E-3,5.277521329E-3
1.458414292E0,2.755317837E-6,1.205083914E-3,1.701226458E-3,2.084803658E-3
1.468371292E0,-1.554581570E-3,-1.080750488E-3,1.854499802E-3,2.650266966E-3
1.478328292E0,-5.076928064E-4,1.541571692E-4,-3.276932985E-4,6.236179250E-4
1.488285292E0,-6.863099989E-4,-1.114793122E-6,1.943554729E-3,2.061171425E-3
1.498242292E0,-1.244508661E-3,-1.463456079E-3,2.029309049E-3,2.794387361E-3
1.508199292E0,-2.038274659E-3,-3.119967878E-4,2.997634932E-3,3.638367872E-3
1.518155292E0,-2.193355467E-4,-2.376949415E-4,3.842657432E-3,3.856244690E-3
1.528112292E0,1.204744913E-4,3.500469029E-4,3.351802006E-3,3.372183807E-3
1.538069292E0,-6.600979250E-4,-7.069623098E-4,1.665221527E-3,1.925743418E-3
1.548026292E0,-7.864099462E-4,5.280422047E-4,3.104731441E-4,9.968263372E-4
1.557983292E0,-5.488561001E-4,-1.497025602E-3,2.898532897E-3,3.308144741E-3
1.567940292E0,-7.712524384E-4,5.489625037E-4,4.361700267E-3,4.463252107E-3
1.577897292E0,-3.540673526E-3,1.188919879E-3,4.435736686E-3,5.798763613E-3
1.587853292E0,-4.639856052E-4,-2.235915512E-3,1.747880131E-3,2.875706134E-3
1.597810292E0,-3.798795864E-3,7.064826787E-5,8.104480803E-4,3.884928221E-3
1.607767292E0,-7.157716900E-4,-1.204952598E-3,3.491973504E-3,3.762727579E-3
1.617724292E0,1.814231393E-3,1.575120725E-3,1.718308777E-3,2.953815481E-3
1.627681292E0,2.248298842E-3,-1.148559153E-3,1.401241869E-3,2.887475470E-3
1.637638292E0,1.495689619E-3,-6.675925106E-4,-8.651092649E-4,1.852344794E-3
1.647595292E0,-1.876287861E-3,1.769538037E-3,9.554047137E-4,2.750367097E-3
1.657552292E0,-1.470156014E-3,3.878902644E-4,-8.195918053E-4,1.727295079E-3
1.667508292E0,-1.177012222E-3,8.659148589E-4,1.707592979E-3,2.247451912E-3
1.677465292E0,-1.855171286E-4,2.349029295E-3,1.776834950E-3,2.951185808E-3
1.687422292E0,-1.458034385E-3,-1.065964811E-3,1.987917349E-3,2.685881723E-3
1.697379292E0,5.507878959E-4,-2.582368441E-3,1.262472942E-3,2.926744266E-3
1.707336292E0,-1.659791451E-3,-8.683744818E-4,1.943215728E-3,2.699086747E-3
1.717293292E0,3.112138947E-4,-1.505935565E-3,1.988448203E-4,1.550559665E-3
1.727250292E0,5.210413365E-4,-8.938815445E-4,-3.353767097E-4,1.087651519E-3
1.737206292E0,-5.442230031E-4,-5.993358791E-4,2.380032092E-4,8.438173384E-4
1.747163292E0,2.675915603E-3,-1.487403177E-3,8.775182068E-4,3.184796811E-3
1.757120292E0,4.023751244E-4,-1.108701341E-3,8.098743856E-4,1.430741390E-3
1.767077375E0,-1.660482958E-4,-2.650116570E-3,1.679176465E-3,3.141707095E-3
1.777034375E0,-5.311677232E-4,-9.451610968E-4,1.432301477E-3,1.796373059E-3
1.786991375E0,-3.306141589E-4,7.126899436E-4,9.308252484E-4,1.218059244E-3
1.796948375E0,-4.112860188E-5,3.033615649E-4,-6.886422634E-4,7.536232267E-4
1.806904375E0,-2.246887190E-3,-1.879259944E-4,-1.804688945E-3,2.888030543E-3
1.816861375E0,6.146961823E-6,5.215397105E-4,-1.318397000E-3,1.417819490E-3
1.826818375E0,-1.067841426E-3,3.751125187E-4,2.859327942E-4,1.167369811E-3
1.836775375E0,-4.774187692E-4,5.040094256E-4,3.941653296E-3,4.002322437E-3
1.846732375E0,1.386255026E-4,-2.348260954E-3,3.031652421E-3,3.837246791E-3
1.856689375E0,2.517481335E-5,3.127697855E-4,3.829801455E-3,3.842634239E-3
1.866646375E0,1.313862973E-3,2.614706755E-4,3.050699830E-3,3.331872188E-3
1.876602375E0,-2.412964590E-3,-2.282114699E-3,3.181993961E-3,4.599514233E-3
1.886559375E0,-5.304093938E-4,-2.302153036E-3,1.495871693E-4,2.367196453E-3
1.896516375E0,9.092955152E-4,5.210638046E-4,2.856690437E-3,3.042861494E-3
1.906473375E0,-7.539025974E-4,6.262967363E-4,-3.412999213E-4,1.037835423E-3
1.916430375E0,-1.896665199E-3,-1.325800084E-3,8.328873664E-4,2.459428003E-3
1.926387375E0,-1.558869844E-3,-2.863593400E-4,2.514028922E-3,2.971938472E-3
1.936344375E0,1.690719277E-3,1.283573918E-3,-2.662651241E-5,2.122923137E-3
1.946300375E0,1.428418327E-4,-3.006224521E-3,3.005778417E-3,4.253527189E-3
1.956257375E0,-1.996406354E-4,-7.526576519E-4,4.263855517E-3,4.334375825E-3
1.966214375E0,1.006412786E-4,1.024236903E-3,1.889653504E-3,2.151738893E-3
1.976171375E0,-8.756737225E-4,1.358197071E-3,2.268621698E-3,2.785345250E-3
1.986128375E0,9.348692838E-4,9.862249717E-4,-2.261176705E-4,1.377588282E-3
1.996085375E0,-9.064401966E-4,8.815629408E-4,-6.663389504E-4,1.429263672E-3
2.006042375E0,1.497683115E-5,-2.128072083E-4,1.645106822E-4,2.693974349E-4
2.015999375E0,3.038730007E-3,1.304736361E-4,1.815935597E-3,3.542389803E-3
2.025955375E0,-9.486058261E-4,-3.569107503E-5,1.394998282E-3,1.687349126E-3
2.035912375E0,-2.098025987E-3,-1.036012545E-4,5.011571571E-3,5.433994468E-3
2.045869375E0,8.442874532E-4,-1.226107590E-3,1.286337152E-3,1.967441078E-3
2.055826375E0,-1.742174616E-3,-1.557404175E-3,2.322306857E-3,3.294508961E-3
2.065783375E0,-6.192463916E-4,-4.654349759E-4,3.192866221E-3,3.285496997E-3
2.075740375E0,1.321665244E-3,-1.958935522E-3,1.939581707E-3,3.057156292E-3
2.085697375E0,-1.385940472E-3,9.152470157E-4,1.220280305E-3,2.060968732E-3
2.095653375E0,9.272813331E-4,7.764967158E-4,1.514825970E-3,1.938426047E-3
2.105610375E0,1.108092489E-3,2.070296556E-3,-2.681836486E-5,2.348343249E-3
2.115567375E0,-1.588624436E-3,1.549915411E-3,1.135386527E-3,2.493003800E-3
2.125524375E0,-9.897979908E-5,-1.972090453E-3,1.648699865E-3,2.572381970E-3
2.135481375E0,4.253967199E-4,5.888054147E-4,2.180799842E-3,2.298595688E-3
2.145438375E0,1.044131932E-3,-2.379128709E-4,4.259776324E-4,1.152506385E-3
2.155395375E0,-8.003734984E-4,-1.430742443E-3,1.115202904E-3,1.982750411E-3
2.165351375E0,1.382246148E-3,-1.066797413E-3,9.903945029E-4,2.007372015E-3
2.175308375E0,2.195309149E-3,1.029642299E-3,6.282031536E-4,2.504832275E-3
2.185265375E0,-2.215717919E-3,-8.817203343E-4,2.760197967E-4,2.400629828E-3
2.195222375E0,-2.639693208E-3,-7.759928703E-4,1.273639500E-3,3.031881057E-3
2.205179375E0,-1.722892979E-3,-8.993353695E-4,5.933064967E-4,2.032037628E-3
2.215136375E0,2.965069376E-3,-1.033824869E-3,2.247394994E-3,3.861504179E-3
2.225093375E0,-1.628210302E-4,2.697361633E-4,-9.828079492E-4,1.032075458E-3
2.235049375E0,-3.925035708E-5,6.212731823E-4,4.894256592E-3,4.933687115E-3
2.245006375E0,-2.027445007E-4,1.232620329E-3,8.179638535E-4,1.493158757E-3
2.254963375E0,-8.336473256E-4,-9.816139936E-5,2.919729799E-3,3.037996976E-3
2.264920375E0,-1.188785071E-3,1.491488889E-3,3.985799849E-4,1.948490455E-3
2.274877375E0,-1.888663974E-3,-4.148017615E-4,1.994347200E-3,2.777864802E-3
2.284834375E0,-1.348912716E-3,3.082929179E-3,2.784308046E-3,4.367652589E-3
2.294791375E0,3.220257349E-5,6.687734276E-4,5.413945764E-4,8.610476123E-4
2.304747375E0,1.248973422E-5,-2.539074048E-4,6.511602551E-4,6.990240636E-4
2.314704375E0,8.838996291E-5,1.278475858E-3,-3.531184047E-4,1.329287747E-3
2.324661375E0,-7.711595390E-4,-3.090010956E-3,1.044023782E-3,3.351542988E-3
2.334618375E0,-8.398690261E-4,-2.250316553E-3,-2.041999251E-4,2.410602036E-3
2.344575375E0,6.340122782E-4,-4.384722561E-4,1.188777387E-3,1.416834911E-3
2.354532375E0,-1.219547819E-3,5.604792386E-4,2.383736894E-3,2.735623409E-3
2.364489375E0,-1.647294499E-3,1.924717799E-4,1.745009795E-3,2.407422634E-3
2.374445375E0,-9.183874354E-4,-1.004757360E-4,2.088824287E-3,2.284013519E-3
2.384402375E0,-1.578066498E-3,1.193294302E-3,2.782868221E-3,3.414469315E-3
2.394359375E0,8.294708095E-5,-1.463208348E-3,2.448640764E-3,2.853716958E-3
2.404316375E0,2.317497274E-3,9.898133576E-4,6.216932088E-4,2.595578268E-3
2.414273375E0,-1.038884511E-3,1.289152540E-3,1.114377752E-3,1.995753761E-3
2.424230375E0,-5.600855220E-4,-2.645077184E-4,-1.010024920E-3,1.184825078E-3
2.434187375E0,-2.335819881E-4,1.195437275E-3,-1.454772428E-3,1.897364920E-3
2.444144375E0,3.145525232E-3,-4.927497357E-4,-1.735612750E-4,3.188613304E-3
2.454100375E0,2.242447343E-3,-2.800378948E-3,5.590729415E-4,3.630875224E-3
2.464057375E0,-5.298415199E-4,-1.520384103E-3,4.793029279E-3,5.056226807E-3
2.474014375E0,-1.412945567E-3,-2.954620868E-5,-8.006747812E-4,1.624305469E-3
2.483971375E0,6.459387951E-4,-1.061353832E-3,-1.192037016E-4,1.248166017E-3
2.493928375E0,1.668360783E-4,1.453468576E-3,-1.337865368E-3,1.982495629E-3
2.503885375E0,-5.935365334E-5,4.602409899E-5,-1.376699656E-4,1.568250404E-4
2.513842375E0,1.620568219E-3,1.190916635E-3,2.650003880E-4,2.028484407E-3
2.523798375E0,6.435159594E-5,1.061991788E-3,2.611801028E-4,1.095528518E-3
2.533755375E0,-9.234149475E-4,-4.506837577E-4,-2.338064834E-3,2.553890793E-3
2.543712375E0,-8.858784568E-4,-1.474361867E-3,-2.060309052E-4,1.732331460E-3
2.553669375E0,-2.075713128E-4,1.099583693E-3,3.020655364E-3,3.221262016E-3
2.563626375E0,-7.892812137E-4,-6.638411433E-4,3.072524443E-3,3.240996197E-3
2.573583375E0,-7.874984294E-5,-1.995155588E-3,1.150786877E-3,2.304594930E-3
2.583540375E0,-1.176188700E-3,-1.438964158E-3,1.356331632E-3,2.300798383E-3
2.593496375E0,8.978812257E-4,-4.157777876E-4,-3.297161311E-4,1.042964329E-3
2.603453375E0,-1.680984627E-3,3.931205720E-4,-1.457002014E-3,2.259005970E-3
2.613410375E0,1.035173424E-3,-8.074324578E-4,-3.893412650E-4,1.369349412E-3
2.623367375E0,9.950764943E-4,-1.807829365E-3,3.514476120E-4,2.093308307E-3
2.633324375E0,-1.626805635E-3,-1.627951860E-4,4.007967189E-3,4.328602527E-3
2.643281375E0,8.445411222E-4,-1.183719374E-3,-7.830336690E-4,1.651539582E-3
2.653238375E0,-1.413819380E-3,-2.532107756E-4,-2.757012844E-4,1.462536199E-3
2.663194375E0,-1.679607201E-3,9.151650593E-4,4.792653024E-3,5.160245193E-3
2.673151375E0,3.006224521E-3,1.255516894E-3,2.074630931E-3,3.862357057E-3
2.683108375E0,2.542530186E-3,1.144951209E-3,6.975438446E-4,2.874359135E-3
2.693065375E0,6.183963269E-4,-3.488166258E-4,3.256842494E-3,3.333333180E-3
2.703022375E0,2.290595789E-3,1.589572057E-3,1.946249977E-3,3.400214311E-3
2.712979375E0,-1.358101144E-4,1.290232874E-3,2.097517252E-3,2.466317879E-3
2.722936375E0,-8.479794487E-4,-3.954228014E-4,-1.800695434E-3,2.029268928E-3
2.732892375E0,6.705549313E-4,4.823552445E-4,-2.004694194E-3,2.168204166E-3
2.742849375E0,-1.786123030E-4,-9.279185906E-4,3.738077357E-3,3.855665649E-3
2.752806375E0,-1.238017809E-3,-1.415276900E-3,1.068258658E-3,2.162607999E-3
2.762763375E0,-5.974504165E-5,1.007677056E-3,1.458354294E-3,1.773634620E-3
2.772720375E0,1.162912231E-3,-2.025662921E-3,2.858644351E-3,3.691547461E-3
2.782677375E0,2.487254096E-4,-1.305434853E-4,-7.869098336E-4,8.355435459E-4
2.792634375E0,1.914266380E-3,4.842132330E-5,-1.030055806E-3,2.174344812E-3
2.802590375E0,-9.236605838E-4,-1.651561819E-3,1.381821930E-3,2.343125512E-3
2.812547375E0,2.136577852E-3,6.351433694E-5,8.390694857E-4,2.296309341E-3
2.822504375E0,-8.852686733E-5,-1.046257094E-3,1.419970766E-3,1.766014691E-3
2.832461375E0,-2.663803520E-3,-7.067034021E-4,5.900738761E-3,6.512602922E-3
2.842418375E0,1.528274268E-3,-2.440588549E-3,1.368816942E-3,3.188378040E-3
2.852375375E0,-1.730103279E-3,-1.014999114E-3,-6.900727749E-4,2.121245151E-3
2.862332375E0,1.720879693E-3,-1.119845547E-3,3.843493760E-4,2.088828717E-3
2.872288375E0,-2.766013844E-3,1.558084041E-4,-1.327263191E-3,3.071927151E-3
2.882245375E0,-8.363220841E-4,1.026819460E-3,3.274481744E-3,3.532141492E-3
2.892202375E0,-7.790641394E-4,3.450503573E-4,1.720527187E-3,1.919951688E-3
2.902159375E0,8.235099958E-4,-1.262221485E-5,2.528097481E-3,2.658872864E-3
2.912116375E0,1.010463806E-3,6.185462698E-4,1.266824082E-3,1.734497000E-3
2.922073375E0,5.255995784E-4,4.392666742E-4,1.606622711E-3,1.746552794E-3
2.932030375E0,7.114883047E-4,-9.741634130E-6,7.432252169E-4,1.028928681E-3
2.941986375E0,-8.428213187E-5,5.604438484E-4,-5.709975958E-4,8.045116776E-4
2.951943375E0,8.861736860E-4,1.252333634E-3,5.704332143E-4,1.636776522E-3
2.961900375E0,2.306788228E-3,-6.086798385E-4,-2.199430019E-4,2.395858510E-3
2.971857375E0,-2.971064299E-3,3.258232027E-4,3.044560552E-3,4.266466077E-3
2.981814375E0,-2.348666079E-3,-3.134040162E-4,1.987213269E-3,3.092486218E-3
2.991771375E0,-9.803341236E-4,-3.773197532E-4,-3.353755921E-3,3.514413745E-3
3.001728375E0,-1.013907604E-3,2.531521022E-5,4.779174924E-4,1.121184471E-3
3.011684375E0,-1.378760673E-3,7.257265970E-4,1.868344843E-4,1.569256898E-3
3.021641375E0,-4.278873093E-4,1.245469786E-3,-3.808680922E-4,1.370891331E-3
3.031598375E0,7.098150672E-4,8.180327713E-4,2.969056368E-4,1.123017365E-3
3.041555375E0,-1.709746430E-3,-1.272218302E-3,1.843970269E-3,2.818155179E-3
3.051512375E0,3.920202143E-4,-1.022947021E-3,6.636567414E-4,1.280835948E-3
3.061469375E0,-4.213959910E-4,-9.344061837E-4,1.453533769E-4,1.035286000E-3
3.071426375E0,-5.604131147E-4,1.653387211E-3,-1.516459510E-3,2.312444934E-3
3.081383375E0,5.309702829E-6,1.768776216E-3,1.218009740E-3,2.147590562E-3
3.091339375E0,-3.952295519E-4,2.454472706E-4,1.379664987E-3,1.455996648E-3
3.101296375E0,-1.571592176E-3,2.024062909E-3,1.383507624E-3,2.912185773E-3
3.111253375E0,-2.119404497E-3,-2.345119603E-3,1.129135489E-4,3.162943383E-3
3.121210375E0,2.326516202E-3,-8.816253394E-4,-5.772504956E-4,2.554047574E-3
3.131167375E0,-1.709961798E-4,-1.043546014E-3,-1.269405708E-3,1.652155812E-3
3.141124375E0,-5.017747171E-4,1.683528535E-3,-3.353741020E-3,3.785977420E-3
3.151080375E0,-1.338273752E-3,9.149396792E-4,-8.809957653E-4,1.845059563E-3
3.161037375E0,-1.447511138E-3,-3.325818107E-4,9.999051690E-5,1.488589016E-3
3.170994375E0,1.195942517E-3,1.598209143E-3,9.069293737E-4,2.192503559E-3
3.180951375E0,-5.039377138E-4,-1.351144165E-3,9.630657732E-4,1.734081733E-3
3.190908375E0,-2.619286766E-3,-9.791003540E-4,-1.351222396E-3,3.105656554E-3
3.200865375E0,3.584048245E-4,1.011120155E-3,1.261569560E-4,1.080154417E-3
3.210822375E0,-1.320451964E-3,1.264177263E-4,-8.392389864E-4,1.569680511E-3
3.220779375E0,8.802991360E-4,-2.460595220E-3,-2.104155719E-3,3.355134379E-3
3.230735375E0,4.400786711E-4,-1.969774254E-3,9.941663593E-4,2.249899242E-3
3.240692375E0,1.313788118E-3,-1.725871116E-4,2.528410405E-3,2.854590112E-3
3.250649375E0,5.784893874E-4,5.858810619E-4,1.233847812E-3,1.483336446E-3
3.260606375E0,-1.517875120E-3,-1.493837684E-3,-5.346424878E-4,2.195754653E-3
3.270563375E0,1.191625022E-3,-9.106053039E-4,-1.654768363E-3,2.233255594E-3
3.280520375E0,-2.743572230E-3,-1.594675705E-4,-2.162357792E-3,3.496914312E-3
3.290477375E0,-2.262066118E-5,1.467959955E-4,-1.668075100E-3,1.674674684E-3
3.300433375E0,4.025197122E-4,-4.729954526E-4,-1.420397311E-4,6.371201630E-4
3.310390375E0,-1.486993162E-3,-1.828811131E-3,2.704612911E-3,3.587566001E-3
3.320347375E0,-9.725247510E-4,-1.061558723E-4,2.830225974E-3,2.994537114E-3
3.330304375E0,-1.886787824E-3,-1.334938221E-3,2.059506252E-3,3.095738095E-3
3.340261375E0,4.954121541E-4,1.281193458E-3,1.531738788E-3,2.057453181E-3
3.350218375E0,-2.708636690E-3,-3.433348611E-4,-2.585241571E-3,3.760061904E-3
3.360175375E0,1.581894234E-3,-2.524686977E-3,-3.165641800E-3,4.347150987E-3
3.370131375E0,-4.093568306E-3,4.569878802E-4,-3.743823618E-4,4.135976493E-3
3.380088375E0,1.868507592E-3,1.367008314E-3,1.632736996E-3,2.832995314E-3
3.390045375E0,5.774070742E-4,1.210147515E-3,3.123413771E-4,1.376740017E-3
3.400002375E0,-5.097298417E-4,7.038181648E-4,6.486158818E-4,1.084383273E-3
3.409959375E0,4.440287594E-3,5.147336051E-4,9.441189468E-5,4.471019817E-3
3.419916375E0,-1.068356447E-3,8.558845147E-4,1.766888425E-3,2.235132771E-3
3.429873375E0,-2.652802505E-5,-4.583857954E-4,-4.150401801E-4,6.189342652E-4
3.439829375E0,-3.757236991E-4,-7.219603285E-4,-4.687979817E-4,9.392372233E-4
3.449786375E0,-9.214053862E-4,-2.343356609E-4,2.715606242E-4,9.887599609E-4
3.459743375E0,-3.620942589E-4,7.389299572E-5,9.464267641E-4,1.016019708E-3
3.469700375E0,-5.732828286E-4,-1.026258804E-3,7.355045527E-4,1.386660478E-3
3.479657375E0,1.151431352E-3,2.597454935E-3,1.492580399E-3,3.209417789E-3
3.489614375E0,-4.656400997E-4,8.906349540E-4,-1.122111455E-3,1.506381572E-3
3.499571375E0,1.391211408E-3,-3.478713334E-4,-2.442201599E-3,2.832107395E-3
3.509527375E0,-7.278658450E-4,2.404209226E-4,-2.778507769E-4,8.153477556E-4
3.519484375E0,6.146631204E-4,-5.057044327E-4,1.109277830E-3,1.365300343E-3
3.529441375E0,2.797922585E-3,-5.054380745E-4,8.935611695E-4,2.980317098E-3
3.539398375E0,9.241411462E-4,4.867659882E-4,1.108672470E-3,1.523198159E-3
3.549355375E0,1.720426255E-3,-3.915438429E-4,1.411473379E-3,2.259519900E-3
3.559312375E0,1.014239038E-3,1.180982217E-4,-1.497235149E-3,1.812275119E-3
3.569269375E0,-1.306705875E-3,-8.520912379E-4,-4.132432863E-3,4.417073815E-3
3.579225375E0,-1.530236797E-3,2.007503062E-4,1.669440418E-3,2.273533957E-3
3.589182375E0,1.568617532E-3,7.611420006E-5,6.965883076E-4,1.718019093E-3
3.599139375E0,7.369943196E-4,2.263219096E-3,3.760350868E-3,4.450343802E-3
3.609096375E0,-4.688850604E-4,1.619532704E-3,-2.445094287E-4,1.703679618E-3
3.619053375E0,1.875710441E-4,2.376332879E-3,-2.105776221E-4,2.393007268E-3
3.629010375E0,1.846415689E-4,1.469792798E-3,1.412352547E-3,2.046734740E-3
3.638967375E0,8.213288384E-4,-4.143510014E-4,-8.258000016E-4,1.236209309E-3
3.648924375E0,1.595332287E-4,6.019109860E-4,-4.608554766E-3,4.650432745E-3
3.658880375E0,-1.314292662E-3,4.814397544E-4,4.957430065E-5,1.400573829E-3
3.668837375E0,1.802733168E-4,2.382928506E-4,-2.436487004E-3,2.454740490E-3
3.678794375E0,1.379701775E-3,5.241557956E-4,1.329431310E-3,1.986379595E-3
3.688751375E0,-2.706386382E-3,1.441221684E-4,6.050504744E-4,2.776937976E-3
3.698708375E0,-2.212354215E-3,8.571809158E-4,1.126755029E-3,2.626565664E-3
3.708665375E0,1.060670940E-3,-1.846459694E-3,-8.186846972E-4,2.281376970E-3
3.718622375E0,-8.485789876E-4,-5.078176036E-4,8.666124195E-4,1.314907640E-3
3.728578375E0,1.221433049E-4,-3.946339712E-4,-1.502003521E-3,1.557777113E-3
3.738535375E0,1.341018360E-3,1.134109683E-3,5.454719067E-4,1.839041766E-3
3.748492375E0,-1.820952632E-3,-9.210519493E-4,2.687703818E-4,2.058262058E-3
3.758449375E0,1.590828178E-4,1.149761491E-3,8.511673659E-4,1.439355659E-3
3.768406125E0,-3.104323987E-4,7.534828037E-4,1.721488312E-3,1.904632935E-3
3.778363125E0,-8.092811331E-4,-4.581324756E-4,1.320550218E-3,1.615139064E-3
3.788320125E0,-1.402948983E-4,8.753119037E-4,-2.009466290E-3,2.196316999E-3
3.798276125E0,-2.384290798E-3,2.873437479E-4,-1.086164266E-4,2.403998038E-3
3.808233125E0,-2.222636947E-3,-5.550142378E-4,4.154946655E-4,2.328259354E-3
3.818190125E0,-1.649256097E-3,-1.232793555E-3,-9.098332375E-4,2.251137966E-3
3.828147125E0,1.572369831E-3,-1.905241050E-3,1.511704177E-4,2.474902592E-3
3.838104125E0,1.138267573E-3,-6.146579981E-4,5.769822747E-4,1.416462519E-3
3.848061125E0,-3.115572035E-4,7.382277399E-4,-2.542510629E-5,8.016823081E-4
3.858018125E0,-8.355090395E-4,4.533948377E-4,6.252229214E-4,1.137781146E-3
3.867974125E0,-1.263092272E-4,-1.519475132E-3,4.270821810E-4,1.583400735E-3
3.877931125E0,2.371853217E-3,-9.449208155E-4,4.690587521E-4,2.595877336E-3
3.887888125E0,8.445302956E-4,-3.808634356E-4,1.979602501E-3,2.185661099E-3
3.897845125E0,5.409129662E-4,1.813230105E-3,1.928824931E-4,1.901997346E-3
3.907802125E0,-1.614915906E-3,-6.429851055E-5,-3.011338413E-4,1.644010119E-3
3.917759125E0,-1.655953005E-3,1.448997296E-3,-8.967854083E-4,2.376130802E-3
3.927716125E0,1.836250187E-3,1.034875400E-3,-1.590885222E-4,2.113785940E-3
3.937672125E0,2.303157700E-3,-2.226606011E-5,-1.458207145E-3,2.726059289E-3
3.947629125E0,-7.986261044E-4,-7.509076968E-4,-8.965469897E-4,1.416143541E-3
3.957586125E0,-7.850443944E-5,-1.130960882E-4,-4.912354052E-5,1.461738499E-4
3.967543125E0,1.891432330E-4,-9.922049940E-4,5.474239588E-4,1.148877236E-3
3.977500125E0,1.240282552E-3,5.378723145E-4,1.341942698E-4,1.358534335E-3
3.987457125E0,1.938829664E-3,2.536840737E-3,1.220498234E-3,3.418221369E-3
3.997414125E0,-6.255554035E-5,-3.863172606E-4,2.730509266E-3,2.758411694E-3
4.007370125E0,-1.120629488E-3,-4.273299128E-4,7.272791117E-4,1.402624757E-3
4.017327125E0,-2.012541052E-3,1.217836514E-3,-8.276607841E-4,2.493685953E-3
4.027284125E0,-5.267632660E-4,8.260859177E-4,-7.052347064E-5,9.822784949E-4
4.037241125E0,-2.994515002E-3,-2.257553861E-4,2.634648234E-3,3.994928899E-3
4.047198125E0,1.436718740E-3,-1.909139566E-3,7.169060409E-4,2.494579903E-3
4.057155125E0,-7.835202850E-4,1.405717805E-3,-1.018542796E-3,1.904567146E-3
4.067112125E0,-6.607484538E-4,-1.800728031E-3,-2.171957865E-3,2.897690620E-3
4.077068125E0,1.246768399E-3,2.351535484E-3,-4.334449768E-4,2.696669265E-3
4.087025125E0,-1.009195345E-3,-8.141640574E-4,-3.988239914E-4,1.356613037E-3
4.096982125E0,1.207292080E-3,-8.726473898E-4,-1.869330183E-3,2.390285122E-3
4.106939125E0,1.169208903E-3,-5.408180878E-4,4.532132298E-4,1.365626557E-3
4.116896125E0,-2.555161482E-3,-1.011261716E-3,-3.032339737E-3,4.092259124E-3
4.126853125E0,-2.227592515E-3,-3.832885996E-4,-1.239232719E-3,2.577746360E-3
4.136810125E0,1.806697692E-3,2.142572775E-4,-2.275558189E-3,2.913456332E-3
4.146766125E0,5.407142453E-5,1.677131280E-3,1.530632377E-3,2.271239424E-3
4.156723125E0,-3.826666856E-3,3.607049584E-4,-1.694792882E-3,4.200691634E-3
4.166680125E0,1.220289618E-3,-1.035856083E-3,-3.746636212E-4,1.643921350E-3
4.176637125E0,-3.988103010E-3,1.664657146E-3,6.632264704E-4,4.372175475E-3
4.186594125E0,-5.401081871E-4,-2.153783105E-3,-1.471562311E-3,2.663830729E-3
4.196551125E0,-5.817504134E-4,7.025049999E-4,-6.815232337E-4,1.138604732E-3
4.206508125E0,-5.830819719E-4,1.406911761E-3,2.789640799E-3,3.178282724E-3
4.216464125E0,-1.491728937E-3,1.073528081E-3,9.215436876E-5,1.840165805E-3
4.226421125E0,2.030834323E-3,-1.422120258E-3,1.258885488E-3,2.780558711E-3
4.236378125E0,-1.841065940E-3,-2.039053477E-3,6.187111139E-4,2.816037343E-3
4.246335125E0,3.260219470E-3,-7.809754461E-4,-1.545906067E-3,3.691717650E-3
4.256292125E0,4.939745413E-4,1.613687724E-3,-1.032426953E-3,1.978359000E-3
4.266249125E0,1.344321994E-3,3.934269771E-4,8.967667818E-4,1.663182813E-3
4.276206125E0,8.489683969E-4,2.018415369E-3,1.382630318E-3,2.589674601E-3
4.286162125E0,2.530221827E-3,1.291105524E-3,1.133358106E-3,3.058345397E-3
4.296119125E0,-1.609022729E-3,-1.449268311E-4,4.494562745E-4,1.676892624E-3
4.306076125E0,-8.873059414E-4,-9.164446965E-4,4.739575088E-4,1.360815357E-3
4.316033125E0,-7.162662223E-5,3.328463063E-4,-4.591125995E-3,4.603732718E-3
4.325990125E0,-6.535274442E-4,-1.148137264E-3,-1.694938168E-3,2.148984107E-3
4.335947125E0,-7.343990728E-4,1.094625331E-3,-4.448182881E-5,1.318910629E-3
4.345904125E0,2.681371290E-3,1.428117976E-4,1.564865932E-3,3.107885550E-3
4.355861125E0,8.291673148E-4,2.267118543E-5,5.451347679E-4,9.925745986E-4
4.365817125E0,-6.643333472E-4,-1.229280606E-3,-1.416932791E-4,1.404473777E-3
4.375774125E0,-1.206325600E-3,-6.408356130E-4,4.300996661E-4,1.432088495E-3
4.385731125E0,-3.767509479E-4,-2.384406514E-3,-1.181112602E-3,2.687445382E-3
4.395688125E0,1.138944295E-3,7.866695523E-4,-1.246090978E-3,1.862467669E-3
4.405645125E0,-1.698387554E-3,1.831976697E-4,-2.697514370E-3,3.192908619E-3
4.415602125E0,1.704224851E-4,2.087643370E-3,-1.172803342E-3,2.400576252E-3
4.425559125E0,-6.429068744E-4,1.035428606E-3,1.154532656E-3,1.678805320E-3
4.435515125E0,1.951813581E-3,-2.544606104E-4,-3.253128380E-4,1.995032556E-3
4.445472125E0,1.992559992E-3,-1.806550659E-3,1.341026276E-3,3.005373867E-3
4.455429125E0,7.065366954E-4,-1.244087704E-3,-9.206756949E-4,1.701350067E-3
4.465386125E0,-2.302036155E-3,6.845733151E-4,1.078827307E-3,2.632846262E-3
4.475343125E0,-5.496167578E-4,-1.777680591E-4,-8.577946573E-4,1.034162336E-3
4.485300125E0,-6.478873547E-4,-1.482184045E-3,-1.193085685E-3,2.009995279E-3
4.495257125E0,-6.692698225E-4,-6.033424288E-4,3.414228559E-4,9.635941823E-4
4.505213125E0,-1.132926205E-3,-8.539455011E-4,2.440793440E-3,2.823157332E-3
4.515170125E0,1.064609038E-3,-1.218850724E-3,-1.203229651E-3,2.016618726E-3
4.525127125E0,3.873670939E-4,3.785127774E-4,3.368761390E-4,6.378171534E-4
4.535084125E0,-1.947062323E-3,-1.613423228E-4,-1.330565661E-3,2.363786795E-3
4.545041125E0,-1.681278925E-3,2.290774137E-4,9.861178696E-4,1.962550315E-3
4.554998125E0,1.204385189E-3,-2.181716263E-4,1.007303596E-3,1.585182348E-3
4.564955125E0,-9.177532047E-5,1.659356058E-3,-8.858554065E-5,1.664251373E-3
4.574911125E0,4.928552080E-4,-2.654651180E-4,-5.202218890E-4,7.642046838E-4
4.584868125E0,6.502480246E-4,-9.166076779E-4,-1.617977396E-3,1.969985528E-3
4.594825125E0,-1.229011919E-3,1.148927957E-3,-4.371766001E-3,4.684318917E-3
4.604782125E0,-9.286075365E-4,8.479915559E-4,-1.143215224E-3,1.699512484E-3
4.614739125E0,-5.533748772E-4,-1.270549372E-3,4.628468305E-4,1.461077222E-3
4.624696125E0,-5.999803543E-4,1.415514387E-3,-4.538130015E-4,1.602998330E-3
4.634653125E0,-3.009483684E-3,-1.409687102E-4,2.615591511E-3,3.989759789E-3
4.644609125E0,2.137401607E-4,-1.358832233E-3,1.590007916E-3,2.102435508E-3
4.654566125E0,1.141158747E-3,-4.026787356E-4,-1.626573503E-4,1.221004040E-3
4.664523125E0,-6.540780887E-4,1.910276711E-3,1.416331157E-3,2.466367614E-3
4.674480125E0,2.457038499E-5,3.332113847E-4,1.063304022E-3,1.114562234E-3
4.684437125E0,3.358847927E-3,-8.518947288E-4,5.951207131E-4,3.515928425E-3
4.694394125E0,-1.655729720E-3,3.003505990E-4,-1.317858696E-4,1.687903701E-3
4.704351125E0,-2.823791932E-3,-1.187823713E-3,1.585153863E-3,3.449266417E-3
4.714307125E0,1.444329042E-3,1.691132784E-4,-9.070783854E-4,1.713906905E-3
4.724264125E0,-6.747483276E-4,-1.331325620E-5,-2.245102078E-4,7.112435460E-4
4.734221125E0,-6.987946108E-6,-2.856431529E-4,3.522112966E-4,4.535346068E-4
4.744178125E0,1.579989679E-3,4.579108208E-4,-2.637784928E-4,1.666021848E-3
4.754135125E0,-2.345119137E-3,-7.594572380E-4,1.000396907E-3,2.660291908E-3
4.764092042E0,-2.556041349E-3,8.898386732E-4,1.277364790E-3,2.992794856E-3
4.774049042E0,6.237304769E-4,8.482858539E-5,-2.641608939E-3,2.715572386E-3
4.784005042E0,-1.494547818E-3,-1.211864874E-3,2.804119140E-4,1.944458921E-3
4.793962042E0,-1.668834593E-4,1.273251139E-3,5.306359380E-4,1.389457826E-3
4.803919042E0,-9.950553067E-5,4.119854420E-4,2.355434000E-3,2.393261934E-3
4.813876042E0,6.996316370E-4,-2.919854596E-3,1.844651997E-3,3.523886531E-3
4.823833042E0,6.056220736E-4,-8.449861780E-4,7.924251258E-5,1.042621270E-3
4.833790042E0,-8.806826081E-4,-1.599444076E-4,-1.373603940E-3,1.639503539E-3
4.843747042E0,-1.202925108E-3,-3.620786592E-4,1.563064754E-3,2.005318228E-3
4.853704042E0,-1.770853996E-4,4.485761747E-4,-5.865097046E-5,4.858186489E-4
4.863660042E0,-3.161022905E-4,2.481367439E-3,-2.392139286E-4,2.512832730E-3
4.873617042E0,2.070375485E-4,-8.440613747E-4,-6.522126496E-4,1.086593526E-3
4.883574042E0,2.156471368E-3,1.537070610E-3,-6.189234555E-4,2.719562660E-3
4.893531042E0,-6.812848151E-4,-1.441061497E-3,1.838346943E-3,2.433172152E-3
4.903488042E0,1.548579894E-3,-1.108699478E-3,1.025283709E-3,2.162988882E-3
4.913445042E0,1.563208643E-4,4.045097157E-4,-1.467434689E-3,1.530172830E-3
4.923402042E0,-7.555454504E-4,-1.187793911E-3,2.678306773E-3,3.025728090E-3
4.933358042E0,1.038098009E-3,5.534589291E-4,-2.276169136E-3,2.562208071E-3
4.943315042E0,-2.532687504E-4,4.810206592E-4,-8.407253772E-4,1.001171861E-3
4.953272042E0,3.644981189E-4,9.925048798E-4,1.110749319E-3,1.533521720E-3
4.963229042E0,1.279027667E-3,9.166048840E-4,-8.733067662E-4,1.799650242E-3
4.973186042E0,1.647699857E-3,6.220620126E-4,1.360848546E-3,2.225709939E-3
4.983143042E0,5.110626807E-4,-9.835585952E-4,6.103701890E-4,1.265355421E-3
4.993099042E0,1.124038245E-3,-7.915599272E-4,-1.720711589E-3,2.202470764E-3
5.003056042E0,1.142147812E-3,2.350891009E-4,-9.039193392E-4,1.475411360E-3
5.013013042E0,-1.659565140E-3,-9.844936430E-4,3.830747679E-3,4.289290380E-3
5.022970042E0,1.521832310E-4,-4.436057061E-4,2.351628616E-3,2.397937219E-3
5.032927042E0,3.512612311E-4,-1.770714298E-4,2.597214654E-3,2.626835112E-3
5.042884042E0,-2.690601163E-3,2.092207782E-3,8.834712207E-4,3.520964274E-3
5.052841042E0,6.945910864E-4,-8.062589914E-4,-1.777675003E-3,2.071868421E-3
5.062798042E0,-3.421774600E-4,1.550106332E-3,-1.585662365E-3,2.243711254E-3
5.072754042E0,4.855128936E-4,-8.120220155E-4,-8.862242103E-4,1.296339413E-3
5.082711042E0,2.297793981E-3,-1.064223237E-3,-1.952819526E-3,3.197801179E-3
5.092668042E0,-2.567009069E-4,-1.265767030E-3,-2.811634913E-3,3.094083453E-3
5.102625042E0,-6.303424016E-4,2.157492563E-4,1.820232719E-4,6.906603770E-4
5.112582042E0,-5.065782461E-4,-2.279318869E-4,3.988146782E-4,6.838330294E-4
5.122539042E0,1.632065978E-4,-2.476971596E-3,6.337054074E-4,2.561953791E-3
5.132496042E0,-7.115034387E-4,2.796975896E-4,6.324555725E-4,9.922035759E-4
5.142452042E0,2.522945870E-4,3.974605352E-5,-1.112448052E-3,1.141390807E-3
5.152409042E0,-6.183891091E-4,-1.997873187E-4,-2.097982913E-3,2.196327017E-3
5.162366042E0,-3.512741532E-4,-1.109789126E-3,-5.203261971E-4,1.275054817E-3
5.172323042E0,-3.167521209E-5,-1.163581386E-3,3.395825624E-4,1.212535063E-3
5.182280042E0,-1.483217347E-4,-2.089828253E-3,2.431495115E-3,3.209602773E-3
5.192237042E0,-1.848042011E-3,-5.962699652E-4,1.058267429E-3,2.211498835E-3
5.202194042E0,1.711666118E-4,-2.625761554E-4,4.760995507E-4,5.700131828E-4
5.212150042E0,1.689018565E-3,2.440047450E-3,-1.605283469E-4,2.971932809E-3
5.222107042E0,-1.244453248E-3,1.686639152E-3,-8.449591696E-4,2.259949450E-3
5.232064042E0,2.264195355E-3,-2.114231698E-3,-2.269819379E-4,3.106135393E-3
5.242021042E0,1.341143856E-3,1.374706626E-4,-6.958842278E-5,1.349965768E-3
5.251978042E0,1.778281061E-3,1.575385220E-3,1.514839008E-3,2.817598152E-3
5.261935042E0,9.087589569E-4,1.709875651E-3,-1.324357465E-3,2.345941235E-3
5.271892042E0,4.974032054E-4,-8.008228615E-4,-6.425641477E-4,1.140883819E-3
5.281848042E0,-2.956860699E-4,-9.965654463E-4,6.703734398E-4,1.236920971E-3
5.291805042E0,-1.070906874E-4,-1.525701955E-4,1.702742651E-3,1.712915239E-3
5.301762042E0,1.776296878E-3,2.138281241E-3,5.874112248E-4,2.841219670E-3
5.311719042E0,9.849402122E-4,-2.039968967E-5,1.336373389E-3,1.660246127E-3
5.321676042E0,3.136241809E-3,-7.935147732E-4,1.341432333E-3,3.502159203E-3
5.331633042E0,-1.720145112E-3,-1.179850660E-3,-1.903999597E-3,2.824209845E-3
5.341590042E0,1.813517883E-4,-9.454926476E-4,-1.936489716E-3,2.162599648E-3
5.351547042E0,1.488722162E-3,9.415680543E-4,-5.038250238E-4,1.832125468E-3
5.361503042E0,-1.150204102E-3,-2.449168824E-3,-3.396283835E-3,4.342365863E-3
5.371460042E0,-8.452264592E-5,2.534402534E-3,-7.256958634E-4,2.637607774E-3
5.381417042E0,-6.389929913E-4,-7.958803326E-4,1.273805276E-3,1.632273698E-3
5.391374042E0,1.417278079E-3,-9.833090007E-5,1.432057470E-4,1.427884451E-3
5.401331042E0,-1.685570925E-3,2.843514085E-5,-3.043189645E-5,1.686085408E-3
5.411288042E0,1.214634161E-3,1.729436219E-3,-2.185571939E-4,2.124630092E-3
5.421245042E0,1.525655389E-4,-1.062806696E-4,-1.922180876E-3,1.931152802E-3
5.431201042E0,7.332280511E-4,1.405037008E-3,-1.902874559E-3,2.476425641E-3
5.441158042E0,4.432098940E-4,-3.273496404E-4,-7.918030024E-4,9.646474961E-4
5.451115042E0,-1.742882421E-3,-7.015792653E-4,1.611527056E-3,2.475251917E-3
5.461072042E0,-6.360728294E-4,2.526172437E-3,2.135103568E-3,3.368204725E-3
5.471029042E0,1.713066362E-3,5.572373047E-4,2.122202888E-3,2.783676503E-3
5.480986042E0,-1.060083276E-3,-2.465052530E-4,2.218076959E-3,2.470709774E-3
5.490943042E0,1.346547157E-3,5.984418094E-4,-1.319408417E-3,1.977918202E-3
5.500899042E0,-9.895777330E-4,-8.985204622E-4,-2.089593560E-3,2.480525016E-3
5.510856042E0,-1.484584063E-4,-4.586484283E-4,1.246389002E-3,1.336369643E-3
5.520813042E0,-1.959141577E-3,2.620033920E-4,-9.022504091E-4,2.172771800E-3
5.530770042E0,1.332168584E-3,-3.596022725E-5,-6.345715374E-4,1.476024156E-3
5.540727042E0,2.678130288E-3,-1.690315083E-3,1.895964146E-3,3.691101050E-3
5.550684042E0,-4.864672665E-4,8.645653725E-5,2.978000790E-3,3.018710625E-3
5.560641042E0,1.267490443E-3,-1.811312512E-3,-1.029524952E-3,2.438710041E-3
5.570597042E0,8.609378710E-5,1.280048862E-3,-1.417191699E-3,1.911640537E-3
5.580554042E0,1.108215074E-3,-2.268080600E-3,1.364964992E-4,2.528035117E-3
5.590511042E0,-1.405805815E-3,-1.252470538E-4,-4.233172163E-3,4.462255414E-3
5.600468042E0,1.054688706E-3,-1.484164968E-4,-5.260519683E-4,1.187908413E-3
5.610425042E0,3.973565763E-4,-6.054574624E-4,6.510149688E-4,9.738025863E-4
5.620382042E0,-2.069147304E-4,-2.127454616E-3,1.260079443E-3,2.481265212E-3
5.630339042E0,-6.507053040E-4,3.005852923E-4,4.318250343E-3,4.377334227E-3
5.640295042E0,1.597002498E-3,1.985868439E-4,1.479053870E-3,2.185738791E-3
5.650252042E0,1.037787530E-3,-2.498637885E-3,1.117784530E-3,2.927394147E-3
5.660209042E0,1.525146072E-3,-6.490722299E-4,-2.356575802E-3,2.881113467E-3
5.670166042E0,-5.783014931E-4,-7.820622995E-4,-1.820784062E-3,2.064293743E-3
5.680123042E0,-1.988010481E-4,-1.269420609E-3,-1.146206632E-3,1.721842090E-3
5.690080042E0,1.162040979E-3,-1.659886912E-3,1.266539097E-3,2.389494733E-3
5.700037042E0,-2.325101988E-3,-1.539511606E-3,1.785589382E-3,3.311272366E-3
5.709993042E0,1.063030330E-3,-4.755454138E-4,2.233574167E-3,2.518934394E-3
5.719950042E0,-7.372666150E-4,-9.189620614E-4,3.008553758E-3,3.231013626E-3
5.729907042E0,1.603887533E-3,-2.051045187E-3,1.763021573E-3,3.144437413E-3
5.739864042E0,-8.885648567E-4,1.580974087E-3,7.105395198E-4,1.947791821E-3
5.749821042E0,-7.942644879E-5,-2.014547586E-3,-3.752149642E-4,2.050730799E-3
5.759778042E0,-3.178014420E-3,1.068327576E-3,2.069510520E-4,3.359155876E-3
5.769735250E0,-5.703978240E-4,7.334956899E-4,1.465335488E-3,1.735101639E-3
5.779691250E0,4.618434468E-4,-2.007409930E-4,1.459743828E-3,1.544165910E-3
5.789648250E0,-6.961463951E-4,3.537253477E-3,1.500900835E-3,3.905058934E-3
5.799605250E0,-1.674325438E-3,1.427885145E-4,7.133930922E-6,1.680418140E-3
5.809562250E0,7.787451614E-4,1.433528028E-3,-8.512306958E-4,1.840119652E-3
5.819519250E0,1.329286024E-4,-2.780854702E-4,-6.086174399E-4,6.822145778E-4
5.829476250E0,-1.153480262E-3,1.563183963E-3,-1.284401864E-3,2.328894365E-3
5.839433250E0,2.603919711E-4,1.278758980E-3,-3.158114851E-4,1.342670996E-3
5.849390250E0,7.162553957E-4,7.435455918E-4,-1.057248563E-3,1.477719988E-3
5.859346250E0,-6.771103945E-4,1.553946175E-3,1.684742048E-3,2.389891832E-3
5.869303250E0,-1.362564275E-3,8.731866255E-4,3.114158288E-3,3.509560959E-3
5.879260250E0,1.796722645E-4,4.281289876E-5,-3.788452595E-4,4.214721789E-4
5.889217250E0,5.200884771E-4,7.340954617E-4,-8.162539452E-4,1.214766922E-3
5.899174250E0,-9.376998059E-5,6.930818781E-4,3.200024366E-6,6.994037026E-4
5.909131250E0,-5.267728120E-4,7.154894993E-4,1.255379990E-3,1.537983660E-3
5.919088250E0,1.904164674E-4,2.646281384E-3,9.983852506E-4,2.834755140E-3
5.929044250E0,1.801447477E-3,-7.084636018E-4,1.563860103E-3,2.488532120E-3
5.939001250E0,-9.501306340E-4,-1.303413883E-3,8.679758757E-4,1.831670847E-3
5.948958250E0,2.757163718E-3,1.414165832E-3,-1.986492425E-4,3.105040787E-3
5.958915250E0,-4.865664523E-4,-9.323460981E-4,2.458319068E-4,1.080022910E-3
5.968872250E0,-5.554961972E-4,-4.018386826E-4,-1.126624644E-3,1.318837913E-3
5.978829250E0,-9.155555163E-4,7.608970627E-4,-6.035808474E-4,1.334734462E-3
5.988786250E0,9.928593645E-4,-1.426315866E-3,2.510676160E-3,3.053463845E-3
5.998742250E0,-1.855924027E-3,-1.072381623E-3,-1.276604831E-3,2.494829901E-3
6.008699250E0,-7.286004256E-4,-7.019843906E-5,1.698691398E-3,1.849686153E-3
6.018656250E0,1.771308947E-3,-1.038257964E-3,-1.117866486E-3,2.337763989E-3
6.028613250E0,1.617803238E-3,1.284096390E-3,-9.337943047E-4,2.266751566E-3
6.038570250E0,-1.350289909E-3,-9.486982599E-4,-1.939937472E-3,2.546893917E-3
6.048527250E0,-5.503876600E-4,4.469295964E-4,-2.196293324E-3,2.307894496E-3
6.058484250E0,-3.479956649E-5,2.567604184E-3,-1.624247059E-3,3.038417477E-3
6.068440250E0,2.416220959E-3,-2.394402400E-4,1.349365339E-3,2.777812479E-3
6.078397250E0,-2.325589303E-4,2.275383100E-3,2.538200468E-3,3.416710922E-3
6.088354250E0,-3.084680066E-5,1.072522253E-3,2.178277820E-3,2.428198874E-3
6.098311250E0,-2.564166207E-4,2.967435867E-4,1.519678161E-3,1.569467410E-3
6.108268250E0,1.203829306E-3,9.706187993E-4,-4.360768944E-4,1.606695027E-3
6.118225250E0,9.902438615E-4,-3.606956452E-4,-9.287614375E-4,1.404735584E-3
6.128182250E0,2.892553341E-3,1.821330748E-3,1.033609733E-3,3.571058611E-3
6.138139250E0,1.485871617E-3,-3.030728549E-4,1.859989017E-3,2.399838903E-3
6.148095250E0,1.259340672E-3,1.293990761E-3,1.095544547E-3,2.112005888E-3
6.158052250E0,-1.781989122E-3,3.834562376E-4,3.534467891E-3,3.976806154E-3
6.168009250E0,2.383407438E-3,9.452542290E-4,8.698590100E-4,2.707543402E-3
6.177966250E0,3.602040233E-4,1.096521504E-3,-1.359207556E-3,1.783129700E-3
6.187923250E0,-2.280765679E-3,1.481555402E-3,-5.014576018E-4,2.765566527E-3
6.197880250E0,7.544390392E-4,1.602463424E-3,-1.778708771E-3,2.510153816E-3
6.207837250E0,1.562675345E-3,-1.717912965E-3,1.229569316E-4,2.325574680E-3
6.217793250E0,3.245717380E-4,9.316662326E-4,4.395199940E-3,4.504567825E-3
6.227750250E0,2.840210451E-3,3.914590925E-4,2.605207264E-4,2.878872466E-3
6.237707250E0,1.212486299E-3,-1.152641140E-3,-2.309430391E-3,2.851696574E-3
6.247664250E0,5.259910831E-4,1.573582180E-3,-2.259507775E-3,2.803248630E-3
6.257621250E0,9.136321023E-5,2.909690142E-3,-2.024084330E-3,3.545639763E-3
6.267578250E0,7.096491754E-5,-2.068138681E-3,-1.244934276E-3,2.414973080E-3
6.277535250E0,-2.338130493E-3,1.415275969E-3,-5.399957299E-4,2.785938918E-3
6.287491250E0,1.004304038E-3,1.045598648E-3,2.079296857E-3,2.534833043E-3
6.297448250E0,1.081002993E-3,8.473079652E-5,4.427673295E-3,4.558512651E-3
6.307405250E0,1.202364452E-3,7.169768214E-4,-1.053337008E-3,1.751928906E-3
6.317362250E0,4.694625968E-4,1.247212291E-3,-1.563331112E-3,2.054248718E-3
6.327319250E0,-1.264227554E-3,7.003173232E-4,-3.332568333E-3,3.632454728E-3
6.337276250E0,-2.416843781E-3,1.926703379E-3,-1.386404037E-4,3.093952316E-3
6.347233250E0,6.959324237E-4,-2.032084391E-3,1.377539709E-3,2.551725800E-3
6.357189250E0,9.132463019E-4,7.687322795E-5,2.063304186E-3,2.257687415E-3
6.367146250E0,-1.669639954E-3,-3.016134724E-4,2.241732553E-3,2.811411230E-3
6.377103250E0,5.338594783E-4,-1.990590245E-3,2.946138382E-3,3.595439727E-3
6.387060250E0,-6.907139905E-4,-2.284357324E-4,-2.931505442E-4,7.843506499E-4
6.397017250E0,-1.205236884E-3,8.525410667E-4,-3.267101943E-3,3.585160711E-3
6.406974250E0,1.856384217E-3,6.691217422E-4,3.485772759E-4,2.003844401E-3
6.416931250E0,-2.122378442E-3,-2.332527190E-3,-1.368628815E-3,3.437778088E-3
6.426887250E0,3.542768536E-4,5.763676018E-4,1.845303923E-3,1.965415546E-3
6.436844250E0,-7.288306952E-4,-2.236468717E-4,-2.154503018E-4,7.922316189E-4
6.446801250E0,-1.029223204E-3,1.268461347E-6,2.578843385E-3,2.776640995E-3
6.456758250E0,-1.360254129E-3,-8.261753246E-4,-2.284888178E-3,2.784523469E-3
6.466715250E0,7.058726624E-6,-1.210388727E-3,-1.480404288E-3,1.912246729E-3
6.476672250E0,2.122407546E-3,6.852494553E-4,-2.340450883E-4,2.242533770E-3
6.486629250E0,-2.965326421E-4,-1.802407205E-4,-1.171691343E-3,1.221997925E-3
6.496586250E0,-1.210263232E-3,-1.630331390E-3,2.763396129E-3,3.429150871E-3
6.506542250E0,2.634049859E-3,1.479182392E-3,1.148561016E-3,3.231933108E-3
6.516499250E0,1.447931863E-4,8.802376688E-4,1.582922414E-3,1.816982881E-3
6.526456250E0,-4.324328620E-4,2.287089825E-3,6.378386170E-4,2.413424154E-3
6.536413250E0,-2.609300893E-3,3.405567259E-5,-3.213359043E-3,4.139479107E-3
6.546370250E0,-1.724881353E-3,1.623543911E-3,-1.933105290E-3,3.057450993E-3
6.556327250E0,1.157457707E-3,-1.969924197E-4,-5.357451737E-4,1.290556953E-3
6.566284250E0,9.763049893E-4,-1.729968004E-3,1.971807331E-3,2.798925665E-3
6.576240250E0,7.136282511E-5,-2.309205011E-3,1.413876191E-3,2.708609665E-3
6.586197250E0,-8.919863030E-4,-2.268878743E-3,8.287765086E-4,2.574940935E-3
6.596154250E0,4.678237019E-4,-3.139199689E-3,5.342308432E-4,3.218514610E-3
6.606111250E0,-1.622369280E-3,-1.274128444E-3,-1.644287258E-3,2.638023116E-3
6.616068250E0,2.306326060E-3,-1.595039852E-3,-7.646456361E-4,2.906540034E-3
6.626025250E0,2.871409291E-3,2.841707319E-4,-2.497555688E-3,3.816219168E-3
6.635982250E0,-1.080189133E-3,-1.891632564E-3,4.769284278E-4,2.229919964E-3
6.645938250E0,1.925983233E-4,4.678061232E-4,9.560976177E-4,1.081692811E-3
6.655895250E0,1.849883469E-3,1.701914705E-3,-1.586955041E-3,2.972710684E-3
6.665852250E0,5.768927513E-4,1.157060266E-3,1.291954890E-3,1.827769444E-3
6.675809250E0,-5.108071491E-5,-1.249853522E-4,-8.383076638E-4,8.491114867E-4
6.685766250E0,1.568006119E-4,4.976149648E-4,-3.109637648E-3,3.153102185E-3
6.695723250E0,1.126990188E-3,3.916211426E-4,-4.513747990E-5,1.193947819E-3
6.705680250E0,-7.933781017E-4,-8.917124942E-4,4.855673760E-4,1.288555649E-3
6.715636250E0,-1.200661063E-5,1.783432439E-3,2.274146304E-3,2.890072116E-3
6.725593250E0,-6.522790063E-4,5.496852100E-4,2.013461664E-3,2.186698334E-3
6.735550250E0,8.358954219E-4,-7.038647309E-4,-2.502258867E-4,1.121052947E-3
6.745507250E0,-2.106981352E-3,-1.288705505E-3,1.684315503E-4,2.475581040E-3
6.755464250E0,-1.628411468E-3,-1.144628972E-3,-3.847070038E-4,2.027288552E-3
6.765421375E0,-2.464311197E-3,6.045177579E-4,-8.382834494E-4,2.672263187E-3
6.775378375E0,9.272244060E-4,1.681233756E-3,9.646769613E-4,2.148695810E-3
6.785335375E0,2.695630537E-3,-2.146607265E-3,2.809202299E-3,4.445892970E-3
6.795291375E0,-1.735070487E-3,-1.540305093E-4,5.990453064E-4,1.842023418E-3
6.805248375E0,-1.260410994E-3,2.115475014E-3,1.920130104E-3,3.122622299E-3
6.815205375E0,-1.534183975E-3,-9.788516909E-4,-1.439079642E-5,1.819911591E-3
6.825162375E0,5.618887953E-4,-1.790234819E-4,-1.692155376E-3,1.791970491E-3
6.835119375E0,-3.212154843E-4,1.277193427E-3,-1.240748912E-3,1.809381193E-3
6.845076375E0,3.195133759E-4,1.619444229E-3,-4.211440682E-6,1.650668393E-3
6.855033375E0,-7.084668614E-4,2.411735244E-3,-2.471730113E-5,2.513762743E-3
6.864989375E0,1.544845407E-3,-5.157152191E-4,-1.502944157E-3,2.216156731E-3
6.874946375E0,-2.326059388E-3,-1.090425067E-3,2.289097756E-4,2.579143034E-3
6.884903375E0,1.626580372E-3,-4.782294855E-4,6.971471012E-4,1.833161539E-3
6.894860375E0,-8.316896856E-5,5.281791091E-4,3.096122295E-3,3.141952182E-3
6.904817375E0,-2.311390592E-3,3.224834800E-4,4.215054214E-4,2.371537240E-3
6.914774375E0,-6.250767037E-4,2.543060109E-4,1.170918345E-3,1.351459287E-3
6.924731375E0,4.246034659E-4,-1.057188958E-3,1.358350739E-3,1.772865851E-3
6.934687375E0,-1.519708894E-4,-3.986153752E-5,-2.248102799E-3,2.253586095E-3
6.944644375E0,-1.238008263E-3,-2.246182412E-4,5.176141858E-4,1.360530139E-3
6.954601375E0,-6.742170081E-4,1.043312252E-3,4.275999963E-4,1.313739238E-3
6.964558375E0,8.608093485E-4,1.987069845E-3,9.001437575E-4,2.345143511E-3
6.974515375E0,-9.926036000E-5,-1.027627848E-3,-8.618030697E-4,1.344833129E-3
6.984472375E0,-1.171759330E-3,1.310748979E-3,-4.420988262E-5,1.758703309E-3
6.994429375E0,-8.625490591E-5,-1.385968179E-3,-1.973416656E-4,1.402601666E-3
7.004386375E0,8.435712662E-4,1.536475495E-3,4.475340247E-4,1.809048404E-3
7.014342375E0,-8.201054297E-4,-1.881085336E-5,-5.365032703E-4,9.801849433E-4
7.024299375E0,1.585591817E-4,2.263914794E-4,5.117859691E-4,5.816519528E-4
7.034256375E0,-1.029210631E-3,-1.063910313E-3,-7.766503841E-4,1.671635575E-3
7.044213375E0,-3.902728204E-4,-1.815759577E-3,-3.099199384E-4,1.882908942E-3
7.054170375E0,1.970086945E-3,-1.164350659E-3,1.461081207E-3,2.715089929E-3
7.064127375E0,-8.067125455E-4,-1.931287348E-3,9.832829237E-4,2.312466489E-3
7.074084375E0,3.901119344E-4,-1.028180122E-6,-1.219684258E-3,1.280553813E-3
7.084040375E0,-1.662007999E-4,-1.501720399E-3,-1.322878525E-3,2.008181877E-3
7.093997375E0,9.118468734E-4,1.671436243E-3,2.629784867E-3,3.246680194E-3
7.103954375E0,-1.735787606E-3,1.554936171E-3,-6.741452962E-4,2.425954861E-3
7.113911375E0,-7.347052451E-4,2.214917913E-4,-1.126881689E-3,1.363346160E-3
7.123868375E0,-3.810273483E-5,1.481870189E-3,1.346524805E-3,2.002628305E-3
7.133825375E0,-1.371281222E-3,5.987659097E-4,1.896470785E-4,1.508276771E-3
7.143782375E0,2.646348439E-4,2.557048574E-4,-3.489537165E-3,3.508886746E-3
7.153738375E0,1.024700934E-3,-1.312097535E-3,-1.841040328E-3,2.482144523E-3
7.163695375E0,-1.090137055E-3,-3.870092332E-4,-3.270387650E-3,3.468949455E-3
7.173652375E0,8.965810994E-4,-4.690345377E-4,-2.639442682E-4,1.045713939E-3
7.183609375E0,-3.331182525E-4,2.203294076E-3,3.959052265E-5,2.228685704E-3
7.193566375E0,1.224032021E-3,8.972799405E-4,9.163022041E-4,1.772843876E-3
7.203523375E0,-9.503469337E-4,4.539983347E-4,3.475580364E-3,3.631657012E-3
7.213480375E0,-1.055275556E-3,-6.691552699E-5,2.447599545E-3,2.666238496E-3
7.223436375E0,4.864020739E-4,5.066245794E-4,2.938099205E-4,7.613013276E-4
7.233393375E0,1.322017051E-4,1.566847786E-4,-1.602582633E-4,2.602116863E-4
7.243350375E0,9.823769797E-4,-3.551598638E-5,-1.783501357E-4,9.990669079E-4
7.253307375E0,-1.482644817E-3,1.620703377E-3,-4.211442545E-3,4.749859303E-3
7.263264375E0,2.389186062E-3,2.505571581E-3,3.220271319E-4,3.477039037E-3
7.273221375E0,1.701291534E-3,4.344312474E-4,3.364689648E-3,3.795294431E-3
7.283178375E0,-1.140055247E-4,2.259434201E-3,6.197635084E-4,2.345665572E-3
7.293135375E0,3.443243913E-4,1.500433311E-3,1.338018104E-3,2.039645032E-3
7.303091375E0,-1.732835080E-4,-4.471549764E-4,-2.033500001E-3,2.089281456E-3
7.313048375E0,8.975736564E-4,-1.010945998E-3,-2.268390730E-3,2.640690588E-3
7.323005375E0,-2.784396056E-3,1.938827336E-5,-1.217734069E-3,3.039097492E-3
7.332962375E0,-1.568929292E-3,5.102092400E-4,8.907914162E-5,1.652206914E-3
7.342919375E0,-1.162963221E-3,-2.095582895E-3,1.412104815E-3,2.781724489E-3
7.352876375E0,3.302710829E-4,-2.452180721E-3,4.688128829E-4,2.518343661E-3
7.362833375E0,9.862115839E-4,-1.115299761E-3,-1.543167979E-3,2.144265435E-3
7.372789375E0,-2.723571612E-3,-1.601858996E-3,-1.558614895E-3,3.523219402E-3
7.382746375E0,-1.647378551E-3,-2.932986245E-4,-1.846060157E-3,2.491549372E-3
7.392703375E0,-4.556139465E-4,-1.567887142E-3,-1.766165718E-3,2.405243336E-3
7.402660375E0,-2.965791384E-3,8.846698329E-4,-4.552230239E-4,3.128224296E-3
7.412617375E0,-6.664178800E-4,7.701534778E-4,1.663587987E-3,1.950583031E-3
7.422574375E0,-3.587983083E-4,-1.532072201E-4,1.851208508E-3,1.891872516E-3
7.432531375E0,2.846848685E-3,5.759662017E-4,-3.656074405E-4,2.927448258E-3
7.442487375E0,2.336617094E-3,1.231702976E-3,-3.618244082E-4,2.666043616E-3
7.452444375E0,3.225047607E-3,-1.309219748E-3,1.509312540E-3,3.793812431E-3
7.462401375E0,-2.586174756E-3,-6.159255281E-4,-7.607582957E-4,2.765215599E-3
7.472358375E0,-2.391308080E-4,-1.119263470E-3,-1.086728647E-3,1.578262783E-3
7.482315375E0,4.476367030E-4,-1.075988635E-3,2.621004358E-3,2.868413151E-3
7.492272375E0,3.099513706E-4,-6.786454469E-4,-1.428239048E-4,7.596236980E-4
7.502229375E0,-1.984264003E-3,6.078975275E-4,4.319883883E-4,2.119777584E-3
7.512186375E0,-1.983198570E-3,-1.439126208E-4,6.407797337E-4,2.089111313E-3
7.522142375E0,-1.804915955E-3,-2.911873162E-4,-9.956452996E-4,2.081783183E-3
7.532099375E0,-1.650718739E-3,5.049631000E-5,-1.104101539E-4,1.655177524E-3
7.542056375E0,2.078812569E-3,3.487309441E-4,1.509198919E-3,2.592442159E-3
7.552013375E0,1.074002008E-3,2.227324061E-3,8.388813585E-4,2.611163480E-3
7.561970375E0,-7.622998673E-4,-5.727671087E-4,2.664271742E-4,9.900235794E-4
7.571927375E0,5.149522331E-4,9.462144226E-5,-5.714036524E-4,7.750039701E-4
7.581884375E0,9.367626626E-4,-1.340285875E-3,-4.928018898E-4,1.707847831E-3
7.591840375E0,-1.715479419E-3,9.355973452E-5,-2.901898697E-3,3.372334371E-3
7.601797375E0,-2.667845692E-4,-5.313735455E-4,-1.415889710E-4,6.112113284E-4
7.611754375E0,1.939424546E-4,1.305408776E-3,5.122460425E-5,1.320730748E-3
7.621711375E0,-9.191050194E-4,1.709412783E-3,1.818602905E-3,2.659729803E-3
7.631668375E0,-5.382730160E-4,2.656131983E-5,9.115301073E-4,1.058928931E-3
7.641625375E0,-1.928997226E-3,4.768306389E-4,-7.648207247E-5,1.988528920E-3
7.651582375E0,-5.484144203E-4,1.348483376E-3,3.959611058E-4,1.508625530E-3
7.661538375E0,3.836189862E-4,-9.426027536E-4,3.534983844E-4,1.077322879E-3
7.671495375E0,-2.491529565E-3,-1.566049643E-3,-1.961054280E-3,3.536377377E-3
7.681452375E0,1.276076538E-3,8.700806648E-4,-1.125037670E-5,1.544518781E-3
7.691409375E0,-1.849409193E-3,-4.207529128E-4,2.015415579E-3,2.767534522E-3
7.701366375E0,1.398497494E-3,8.656391874E-4,1.465331763E-3,2.202799042E-3
7.711323375E0,2.434845082E-4,1.552201807E-3,6.195120513E-4,1.688908031E-3
7.721280375E0,-1.535825199E-3,-1.170907170E-3,-1.101408154E-3,2.223259445E-3
7.731237375E0,-1.551271416E-3,7.598847151E-4,-7.006023079E-4,1.864057773E-3
7.741193375E0,6.296795327E-4,6.831940264E-4,-3.197772428E-3,3.330014849E-3
7.751150375E0,2.478712238E-3,5.948171020E-5,-4.675028846E-3,5.291828336E-3
7.761107375E0,-1.326524653E-4,6.398232654E-4,-1.775734127E-4,6.771283514E-4
7.771064417E0,-1.401116140E-3,-9.463559836E-4,1.333771273E-3,2.153523136E-3
7.781021417E0,-1.155017642E-3,-9.367978200E-4,2.114430070E-3,2.585047472E-3
7.790978417E0,2.106513130E-4,8.491184562E-4,2.513637766E-3,2.661531692E-3
7.800935417E0,3.791344352E-5,-2.050818875E-3,-1.348085701E-3,2.454512283E-3
7.810891417E0,-8.246139623E-5,1.179062761E-3,-2.363281325E-3,2.642363998E-3
7.820848417E0,7.900507189E-4,1.765345223E-3,-4.437398165E-3,4.840570873E-3
7.830805417E0,-1.421970781E-3,1.766410656E-3,-2.456804737E-3,3.343366122E-3
7.840762417E0,6.010202924E-4,-1.673930325E-3,-2.783536911E-4,1.800208016E-3
7.850719417E0,-5.121810827E-4,5.322322249E-4,1.488385722E-3,1.661593410E-3
7.860676417E0,-1.829294488E-4,-3.722514957E-4,1.622989774E-3,1.675150789E-3
7.870633417E0,-4.676214885E-4,-6.958255544E-4,1.715663821E-4,8.557324828E-4
7.880590417E0,-4.215908702E-4,-1.597277820E-3,7.560309023E-4,1.816760309E-3
7.890546417E0,7.748557255E-5,1.457603648E-4,-1.077556983E-3,1.090128042E-3
7.900503417E0,5.890548928E-4,1.836225390E-3,2.900343388E-4,1.950084426E-3
7.910460417E0,1.392796868E-3,2.066322602E-3,-6.010588259E-4,2.563365742E-3
7.920417417E0,1.206064597E-3,-1.223066822E-3,5.186721683E-5,1.718480279E-3
7.930374417E0,1.990631921E-3,-2.294722944E-3,-1.417435706E-4,3.041128093E-3
7.940331417E0,1.351152081E-3,-8.529899642E-4,2.484701574E-3,2.954140439E-3
7.950288417E0,2.086450811E-3,-5.906689912E-4,1.110248268E-4,2.171288410E-3
7.960244417E0,2.465114463E-3,-3.508068621E-3,-1.431385055E-3,4.520198883E-3
7.970201417E0,1.342592179E-3,8.760271594E-4,-1.556819305E-3,2.234650686E-3
7.980158417E0,-1.455167541E-3,-6.175292656E-4,1.979023218E-4,1.593116536E-3
7.990115417E0,-2.756533213E-4,-5.903644487E-4,1.410705969E-3,1.553900340E-3
8.000072417E0,1.322420547E-3,-3.829887137E-3,-3.829039633E-5,4.051949869E-3
8.010029417E0,2.080356237E-3,1.114005223E-3,1.323383301E-3,2.705592924E-3
8.019986417E0,-1.404268434E-3,7.901731879E-4,-1.964773983E-4,1.623251943E-3
8.029943417E0,2.809797879E-4,5.701957271E-4,-1.173324883E-3,1.334452730E-3
8.039899417E0,-9.404383600E-4,1.528132707E-4,-1.759992912E-3,2.001337367E-3
8.049856417E0,-1.601168653E-3,-6.272271276E-4,-3.336051479E-3,3.753184567E-3
8.059813417E0,-8.014682680E-5,-3.517569043E-3,-4.350263625E-4,3.545273391E-3
8.069770417E0,-1.081495313E-3,-1.677324995E-3,-6.837658584E-4,2.109641439E-3
8.079727417E0,2.220140304E-4,-5.103554577E-4,1.675428823E-3,1.765450272E-3
8.089684417E0,3.282740945E-4,-8.483109996E-4,1.322027296E-3,1.604727891E-3
8.099641417E0,-1.171925338E-3,4.213200882E-4,6.760712713E-4,1.417036336E-3
8.109597417E0,1.435842132E-3,3.494145349E-4,2.518296242E-4,1.499050134E-3
8.119554417E0,9.812596254E-4,-1.519604586E-3,-1.387214288E-3,2.279568387E-3
8.129511417E0,1.335754059E-4,7.659196854E-4,-6.468966603E-5,7.801667170E-4
8.139468417E0,6.131050177E-4,-1.412588172E-3,-7.338952273E-4,1.705844457E-3
8.149425417E0,-7.159379311E-5,1.444716938E-3,1.053884625E-3,1.789694249E-3
8.159382417E0,-2.796461340E-4,1.100686379E-3,5.738548934E-4,1.272407915E-3
8.169339417E0,2.377655823E-3,6.197197363E-4,-1.466393471E-3,2.861399933E-3
8.179295417E0,-7.285792381E-4,1.882492565E-3,2.452880144E-3,3.176669162E-3
8.189252417E0,-1.670006663E-3,1.387943514E-3,1.065373421E-3,2.418745538E-3
8.199209417E0,-2.055638470E-4,-2.579949796E-5,-1.846292987E-3,1.857880487E-3
8.209166417E0,-1.643937314E-3,-6.508426741E-4,-1.254005358E-3,2.167638234E-3
8.219123417E0,-5.296187010E-4,-1.471266150E-4,3.757402301E-4,6.658249994E-4
8.229080417E0,6.440364523E-4,-1.467255875E-3,1.951798797E-3,2.525300239E-3
8.239037417E0,2.267048694E-3,5.270186812E-4,1.722617075E-3,2.895629130E-3
8.248994417E0,-2.586562419E-3,-3.646072000E-4,1.796118915E-3,3.170060996E-3
8.258950417E0,-1.484234119E-3,7.857438177E-4,1.263896003E-3,2.101850940E-3
8.268907417E0,1.613554778E-3,-2.150923945E-3,-1.274630427E-3,2.975687410E-3
8.278864417E0,-1.715896651E-4,-6.805527955E-4,-9.973160923E-5,7.089016254E-4
8.288821417E0,-2.709848573E-3,7.788594812E-4,-2.308024094E-3,3.643744859E-3
8.298778417E0,2.706981497E-3,-4.215808585E-4,-1.257363707E-3,3.014372694E-3
8.308735417E0,-1.347148558E-3,-1.013868488E-3,2.151215449E-3,2.733215406E-3
8.318692417E0,-4.041035660E-3,-9.274324402E-4,-9.763929993E-4,4.259512111E-3
8.328648417E0,1.511655282E-3,8.462322876E-4,-1.508127898E-4,1.738952350E-3
8.338605417E0,-2.229368780E-3,-1.403722912E-3,-8.622966707E-4,2.772017085E-3
8.348562417E0,-1.194198150E-3,-1.105715521E-3,7.803402841E-4,1.804895286E-3
8.358519417E0,2.329639625E-3,-1.489331014E-3,1.781988889E-3,3.289500274E-3
8.368476417E0,-1.093321247E-3,-5.609523505E-4,2.807658166E-4,1.260495273E-3
8.378433417E0,-8.885283023E-4,-5.669249222E-4,1.256981865E-3,1.640393190E-3
8.388390417E0,-2.459879033E-5,-8.289795369E-4,6.953198463E-4,1.082257761E-3
8.398347417E0,1.247616019E-3,3.601545468E-4,-7.964018732E-4,1.523323003E-3
8.408303417E0,1.237496035E-3,-8.787484840E-4,7.764808834E-5,1.519744900E-3
8.418260417E0,7.332928944E-4,-2.352803946E-3,6.159562618E-4,2.540237586E-3
8.428217417E0,8.265036158E-4,1.140730456E-3,-2.699147910E-3,3.044630296E-3
8.438174417E0,-2.968113171E-3,-5.039777607E-4,-2.117516473E-3,3.680701753E-3
8.448131417E0,-1.065284247E-3,2.411752939E-4,1.936079934E-3,2.222926351E-3
8.458088417E0,1.517827623E-4,2.278815955E-4,1.795725897E-3,1.816479982E-3
8.468045417E0,-3.916607238E-5,-5.031554028E-4,1.172812656E-3,1.276788497E-3
8.478001417E0,6.187823601E-4,2.132058144E-4,-7.384214550E-4,9.867190956E-4
8.487958417E0,-5.716506857E-4,-1.167599112E-4,3.408640623E-7,5.834530826E-4
8.497915417E0,8.237900911E-4,-1.397828571E-3,8.644592017E-4,1.838435351E-3
8.507872417E0,-1.490496797E-3,6.061997265E-4,-1.222128049E-3,2.020558284E-3
8.517829417E0,-1.616693800E-3,-1.264655031E-3,-3.089495003E-4,2.075692893E-3
8.527786417E0,-5.554873496E-5,1.470677555E-3,3.355292603E-3,3.663873167E-3
8.537743417E0,-6.909053773E-4,-4.639197141E-5,1.021260396E-3,1.233886239E-3
8.547700417E0,2.991713583E-3,-1.169446856E-3,8.422955871E-4,3.320755632E-3
8.557656417E0,-1.849585678E-3,3.525288776E-4,-4.818998277E-4,1.943571773E-3
8.567613417E0,1.261252677E-3,7.749060169E-4,-9.005479515E-4,1.732692778E-3
8.577570417E0,7.398634916E-4,-5.711782724E-4,-1.640023664E-3,1.887675879E-3
8.587527417E0,-4.380526952E-4,1.960955560E-3,1.926481724E-3,2.783625101E-3
8.597484417E0,-7.988256402E-4,-2.587961964E-3,1.247022301E-3,2.981733414E-3
8.607441417E0,-9.599467739E-4,2.605551854E-4,7.178522646E-4,1.226661603E-3
8.617398417E0,1.381555572E-3,1.748129725E-4,-3.352090716E-4,1.432347896E-3
8.627354417E0,1.866783481E-3,-5.208048970E-4,6.813183427E-4,2.054340038E-3
8.637311417E0,-1.686071279E-3,3.407504410E-4,-8.566621691E-4,1.921670443E-3
8.647268417E0,4.007816315E-4,-6.534075364E-4,-6.553269923E-4,1.008474487E-3
8.657225417E0,9.653193410E-4,-8.613206446E-4,-2.412321046E-3,2.737335842E-3
8.667182417E0,-1.005153637E-3,1.335786656E-3,3.132913262E-3,3.551028770E-3
8.677139417E0,-6.883153692E-4,1.482247375E-3,2.938456833E-3,3.362344999E-3
8.687096417E0,2.186833182E-3,6.092637777E-4,-8.413661271E-4,2.421020173E-3
8.697053417E0,1.753161661E-3,-5.839318037E-4,-2.114892006E-3,2.808437352E-3
8.707009417E0,-6.982779596E-4,3.295019269E-6,-1.139642671E-3,1.336558410E-3
8.716966417E0,9.723869152E-5,-3.241275437E-3,-1.874672249E-3,3.745626498E-3
8.726923417E0,-8.758460172E-5,-7.456270978E-4,5.325581878E-4,9.204613272E-4
8.736880417E0,1.246840227E-3,1.901602373E-4,1.440964639E-3,1.914980564E-3
8.746837417E0,-1.133226790E-3,-3.266090527E-3,-2.332467586E-3,4.170366330E-3
8.756794417E0,1.877722563E-3,5.570575595E-4,2.621524036E-4,1.976076677E-3
8.766751625E0,1.600753865E-3,-9.036855772E-4,-3.469469026E-3,3.926356566E-3
8.776707625E0,-1.629104605E-3,-9.248275310E-4,-1.551674679E-3,2.432484755E-3
8.786664625E0,3.049004124E-3,1.320750453E-3,-4.464630038E-4,3.352631373E-3
8.796621625E0,-2.146118786E-4,2.027571201E-3,1.466246322E-3,2.511370445E-3
8.806578625E0,5.854017800E-4,8.746888489E-4,3.336034715E-4,1.104113718E-3
8.816535625E0,1.587295556E-3,-2.228397876E-3,2.329783514E-3,3.593487929E-3
8.826492625E0,-3.398674540E-3,-3.833593801E-4,-1.349907368E-3,3.676982859E-3
8.836449625E0,1.572353067E-4,-1.368680969E-4,-2.344552428E-3,2.353801585E-3
8.846406625E0,-6.204077508E-4,-3.656335175E-4,2.362051979E-3,2.469389236E-3
8.856362625E0,4.445024533E-4,-4.365462810E-4,2.393871546E-4,6.674288698E-4
8.866319625E0,-1.293210080E-3,-4.501277581E-4,-1.917779446E-4,1.382673530E-3
8.876276625E0,-2.631628886E-4,-9.528063238E-4,1.084638759E-3,1.467493044E-3
8.886233625E0,4.308567150E-4,-9.959489107E-4,3.269687295E-4,1.133340325E-3
8.896190625E0,-8.634517435E-4,5.352096632E-4,-2.125993371E-3,2.356235580E-3
8.906147625E0,1.493179472E-3,8.587837219E-4,-2.875551581E-5,1.722765595E-3
8.916104625E0,-7.673294749E-4,2.484638244E-4,-2.147089690E-4,8.346428796E-4
8.926060625E0,-8.080760017E-4,-5.859052762E-4,2.542728558E-3,2.731618630E-3
8.936017625E0,1.660631620E-3,1.402148046E-3,1.047924161E-4,2.175936114E-3
8.945974625E0,7.088178536E-4,-3.968738019E-5,4.723090678E-4,8.526861634E-4
8.955931625E0,9.824987501E-6,-1.481845975E-4,5.603376776E-4,5.796839814E-4
8.965888625E0,-4.964419641E-4,-4.672314972E-4,-1.818854362E-4,7.055793418E-4
8.975845625E0,-4.437845200E-5,-8.977763355E-4,1.102274284E-3,1.422315152E-3
8.985802625E0,4.448443651E-4,4.055751488E-4,5.408786237E-4,8.092758467E-4
8.995759625E0,-1.392401755E-4,-1.149754971E-3,-3.050969914E-3,3.263394205E-3
9.005715625E0,-4.230113700E-5,-1.172391698E-3,2.460442483E-3,2.725815271E-3
9.015672625E0,4.223514115E-4,-1.127312891E-3,1.387279481E-4,1.211800525E-3
9.025629625E0,-7.579615340E-4,1.092255116E-5,1.400534064E-3,1.592520220E-3
9.035586625E0,-5.753298756E-4,2.187888138E-3,2.178449184E-3,3.140620928E-3
9.045543625E0,-4.126105923E-4,-1.339201815E-3,-6.032232195E-4,1.525643227E-3
9.055500625E0,-1.627996098E-3,-6.264112890E-4,5.311071873E-4,1.823413624E-3
9.065457625E0,4.221051931E-4,3.499034792E-4,3.177877516E-4,6.337146786E-4
9.075413625E0,-1.618261915E-3,-8.268281817E-6,2.241410315E-3,2.764554248E-3
9.085370625E0,-1.164991874E-3,1.027854159E-4,5.574934185E-4,1.295596318E-3
9.095327625E0,8.025256684E-4,1.620610245E-3,7.069967687E-4,1.941718168E-3
9.105284625E0,6.001254078E-4,5.188602954E-4,6.089918315E-4,1.000118774E-3
9.115241625E0,-1.564379083E-3,-1.162161119E-3,-3.248941153E-3,3.788603833E-3
9.125198625E0,-2.445164137E-4,3.942851909E-3,2.914667130E-4,3.961164260E-3
9.135155625E0,2.249043901E-3,-7.931459695E-4,-2.107620239E-3,3.182662732E-3
9.145112625E0,-3.608539701E-4,-3.947364166E-4,-8.838977665E-4,1.033105845E-3
9.155068625E0,-8.742567152E-4,-1.303194091E-3,6.883218884E-5,1.570788819E-3
9.165025625E0,-1.466011163E-3,1.567694359E-3,1.485632733E-3,2.610356096E-3
9.174982625E0,-5.131093785E-4,-1.572923735E-3,4.785772413E-3,5.063693109E-3
9.184939625E0,9.939734591E-4,1.558953896E-3,-2.348180860E-4,1.863722088E-3
9.194896625E0,-2.621063730E-3,1.302009448E-3,-1.614365727E-3,3.342361497E-3
9.204853625E0,2.215236658E-3,1.784307882E-3,-1.229539514E-3,3.098837764E-3
9.214810625E0,-2.009035554E-3,-3.261286765E-4,-1.731380820E-3,2.672127114E-3
9.224766625E0,-4.404338542E-4,4.166271538E-4,-6.330925971E-4,8.765651155E-4
9.234723625E0,5.021234974E-4,1.190407202E-4,6.254613400E-4,8.108640993E-4
9.244680625E0,1.356998226E-3,-1.225080341E-4,2.130413428E-3,2.528856219E-3
9.254637625E0,-8.222013712E-4,-7.933387533E-4,1.581210643E-3,1.950802032E-3
9.264594625E0,-6.882443558E-4,7.576867938E-4,-4.251860082E-5,1.024488849E-3
9.274551625E0,1.867571846E-4,-9.361756966E-4,-5.341302603E-4,1.093891364E-3
9.284508625E0,9.381282143E-5,1.416726969E-3,-6.955172867E-4,1.581031450E-3
9.294465625E0,-1.519674901E-3,-7.674293593E-4,1.872606575E-3,2.530813113E-3
9.304421625E0,2.328859176E-3,-9.565139189E-4,1.517873257E-3,2.939803253E-3
9.314378625E0,-1.229305053E-3,1.822039485E-3,1.005619764E-3,2.417082934E-3
9.324335625E0,1.794714481E-3,1.267036423E-3,1.644512638E-3,2.744230891E-3
9.334292625E0,2.550217323E-5,-5.910322070E-4,8.553154767E-4,1.039968266E-3
9.344249625E0,1.122458139E-3,-4.725214094E-4,-2.152992412E-3,2.473573343E-3
9.354206625E0,-3.507708898E-3,-2.296342514E-3,-1.515643671E-3,4.458069806E-3
9.364163625E0,1.983995317E-3,-1.343996264E-3,-1.349730417E-3,2.750333720E-3
9.374119625E0,2.149762120E-3,-1.055238768E-3,2.302339301E-3,3.322013288E-3
9.384076625E0,4.070966505E-3,1.104318537E-3,1.651462168E-3,4.529858166E-3
9.394033625E0,-1.647651661E-4,3.460487351E-4,-1.500135288E-3,1.548322695E-3
9.403990625E0,2.724886872E-5,1.808923669E-3,-7.765535265E-4,1.968751564E-3
9.413947625E0,2.052032156E-3,7.079001516E-4,8.107386529E-4,2.317165457E-3
9.423904625E0,3.394265193E-3,-2.675645985E-3,4.112645984E-4,4.341573011E-3
9.433861625E0,8.288840763E-5,1.111425459E-3,1.514479518E-3,1.880368381E-3
9.443818625E0,-2.614583354E-4,3.799087368E-3,9.679980576E-4,3.929178735E-3
9.453774625E0,-1.487376168E-3,2.818960696E-3,-1.548979431E-3,3.543750069E-3
9.463731625E0,4.186482402E-4,7.773814723E-4,-2.379618585E-3,2.538143596E-3
9.473688625E0,-1.561184414E-3,-2.218362875E-3,-8.592642844E-4,2.845481634E-3
9.483645625E0,2.404440893E-4,-1.268945634E-3,1.457419246E-3,1.947333367E-3
9.493602625E0,-1.002642559E-3,3.164182417E-3,1.927562058E-3,3.838337916E-3
9.503559625E0,-2.336353529E-3,-1.621050760E-4,1.756055281E-3,2.927209596E-3
9.513516625E0,-2.139371354E-4,1.737437211E-3,-1.142546535E-5,1.750596384E-3
9.523472625E0,-2.560981084E-3,-7.670838386E-5,-1.763252541E-3,3.110235974E-3
9.533429625E0,-2.334274817E-3,-1.972261816E-3,-3.103245050E-3,4.355316915E-3
9.543386625E0,-8.948361501E-4,-1.828984357E-3,-2.892056480E-3,3.536934577E-3
9.553343625E0,1.103055896E-3,-2.206831239E-3,-6.401911378E-6,2.467159787E-3
9.563300625E0,-4.018964246E-4,-1.958785579E-4,1.936107874E-3,1.987058843E-3
9.573257625E0,-5.351803266E-4,4.845326766E-4,7.018502802E-4,1.006868270E-3
9.583214625E0,1.793458359E-4,-6.670178846E-4,1.224095002E-3,1.405519961E-3
9.593171625E0,9.909424698E-4,-1.012003981E-3,-4.499312490E-4,1.486121517E-3
9.603127625E0,7.907603867E-5,1.386971213E-3,-2.899773419E-3,3.215373702E-3
9.613084625E0,4.210580373E-4,-4.170117900E-4,-4.180317745E-3,4.222113825E-3
9.623041625E0,-1.168582821E-3,1.920536160E-4,-1.158162951E-3,1.656445539E-3
9.632998625E0,9.245484835E-4,3.567636013E-4,-9.836703539E-4,1.396308537E-3
9.642955625E0,2.683566418E-3,-4.757409915E-4,4.629585892E-4,2.764450915E-3
9.652912625E0,4.323339090E-5,7.667113096E-4,3.803512082E-3,3.880260238E-3
9.662869625E0,1.774567645E-4,-1.848358661E-4,-1.219211146E-3,1.245845504E-3
9.672825625E0,1.310394844E-3,4.203068092E-4,-1.967728138E-3,2.401196886E-3
9.682782625E0,1.535698306E-3,-1.943248324E-3,-2.230849117E-3,3.333357334E-3
9.692739625E0,1.544752158E-4,-5.415147170E-4,-5.023553967E-4,7.546268785E-4
9.702696625E0,-3.645748366E-4,1.227357425E-3,-2.138867974E-3,2.492805101E-3
9.712653625E0,-6.750668399E-4,1.170571893E-3,1.557437703E-3,2.061932587E-3
9.722610625E0,-5.722688511E-4,-5.479659885E-4,2.621103078E-3,2.738236606E-3
9.732567625E0,9.666325059E-4,-6.810296327E-4,4.248693585E-6,1.182454149E-3
9.742524625E0,6.265467964E-4,-1.145759597E-4,-4.735216498E-4,7.936695103E-4
9.752480625E0,1.724837581E-3,-8.121458814E-4,-1.310089603E-3,2.313218619E-3
9.762437625E0,-8.669507224E-4,-1.982869580E-4,1.743225381E-3,1.956976239E-3
9.772394000E0,3.372204024E-3,-4.995707422E-4,-7.697287947E-4,3.494826652E-3
9.782351000E0,-2.586885355E-3,-2.465695143E-4,-2.458840609E-4,2.610216723E-3
9.792308000E0,-2.926305402E-3,1.643424854E-3,3.308478743E-3,4.712763536E-3
9.802265000E0,-4.905781243E-4,1.061790623E-3,2.111652866E-3,2.413947814E-3
9.812222000E0,-4.728569183E-4,-3.594495356E-4,-1.062087715E-3,1.216892743E-3
9.822179000E0,-1.314396504E-4,2.618230879E-3,-1.311093569E-3,2.931104854E-3
9.832135000E0,-1.078038709E-3,1.073149964E-3,2.785082906E-4,1.546410415E-3
9.842092000E0,1.358487178E-3,-1.794275828E-3,3.090273589E-3,3.822918259E-3
9.852049000E0,-1.197474776E-3,-1.211317256E-3,2.559581771E-3,3.074523407E-3
9.862006000E0,-1.631037332E-3,-1.832633279E-3,5.451664329E-4,2.513172090E-3
9.871963000E0,1.240189886E-3,1.740658656E-3,8.081570268E-4,2.284968553E-3
9.881920000E0,3.264592960E-4,9.086867794E-4,-1.162253320E-4,9.725202635E-4
9.891877000E0,2.689836547E-4,-1.980349422E-3,1.391492784E-3,2.435238840E-3
9.901833000E0,9.161699563E-5,-1.956114545E-3,-9.811185300E-4,2.190290245E-3
9.911790000E0,1.616078662E-4,3.359269351E-3,4.229489714E-4,3.389645041E-3
9.921747000E0,1.120730303E-4,-1.086983830E-4,2.344951034E-3,2.350142773E-3
9.931704000E0,-1.437816070E-3,5.411477759E-4,3.060193732E-3,3.424170213E-3
9.941661000E0,1.231736504E-3,-1.179846004E-4,-3.414619714E-4,1.283624345E-3
9.951618000E0,1.134976977E-3,1.637553796E-3,-1.471517608E-3,2.476917286E-3
9.961575000E0,-2.936197212E-3,1.573904417E-3,-1.808142290E-3,3.790489114E-3
9.971532000E0,1.201462932E-3,6.076814607E-4,-1.961896196E-3,2.379459312E-3
9.981488000E0,7.327466737E-4,6.339512765E-6,4.586521536E-4,8.644765325E-4
9.991445000E0,-9.106192738E-5,7.190480828E-4,-1.903064549E-5,7.250410923E-4
1.000140200E1,5.363788223E-4,-4.964191467E-4,-1.157037914E-4,7.399470099E-4
1.001135900E1,-2.244587755E-3,4.165573046E-4,2.671314403E-3,3.513917304E-3
1.002131600E1,-1.418741420E-3,1.740414649E-3,5.011036992E-4,2.300646710E-3
1.003127300E1,2.192428801E-3,-1.170811243E-3,-5.735270679E-5,2.486127983E-3
1.004123000E1,6.198323099E-4,-3.139685839E-3,-4.371181130E-4,3.229998685E-3
1.005118700E1,4.949371796E-4,5.982546136E-4,-3.462526947E-4,8.501542937E-4
1.006114300E1,4.649162292E-6,5.910638720E-4,1.144850627E-3,1.288433573E-3
1.007110000E1,3.127004951E-3,-2.773618326E-4,4.706401378E-4,3.174364770E-3
1.008105700E1,8.065926377E-4,-2.842518501E-3,1.992104575E-3,3.563563350E-3
1.009101400E1,9.258446516E-4,2.053838223E-3,1.697199419E-3,2.820625043E-3
1.010097100E1,1.841705758E-3,1.864302903E-4,1.624207944E-4,1.858229498E-3
1.011092800E1,-2.906525973E-3,-3.809984773E-4,-3.011764959E-3,4.202830146E-3
1.012088500E1,2.202914329E-4,-1.173289493E-3,-2.968354151E-3,3.199416027E-3
1.013084100E1,1.748064416E-3,3.018220887E-4,-1.687053591E-4,1.781933578E-3
1.014079800E1,2.260456560E-3,-1.229762100E-3,2.680344507E-3,3.715672935E-3
1.015075500E1,9.134318680E-5,2.415305004E-3,1.588232815E-3,2.892148909E-3
1.016071200E1,3.012004308E-4,-5.330806598E-4,3.131125122E-4,6.877035224E-4
1.017066900E1,5.625204649E-4,-5.769180134E-4,-6.037894636E-4,1.006888963E-3
1.018062600E1,4.602535628E-3,-2.361236140E-3,-9.188428521E-4,5.253859772E-3
1.019058300E1,-1.874784240E-3,-1.037639566E-3,-1.511659473E-3,2.622332202E-3
1.020054000E1,-6.779597607E-4,-3.306919709E-3,-4.183076322E-3,5.375265102E-3
1.021049600E1,-5.299991462E-4,9.512817487E-4,1.680731773E-3,2.002672054E-3
1.022045300E1,1.320897834E-3,-4.556663334E-4,1.007486135E-3,1.722623351E-3
1.023041000E1,2.135654213E-4,-5.479902029E-5,3.993548453E-4,4.561769550E-4
1.024036700E1,-1.994909253E-4,6.504058838E-4,-1.852080226E-3,1.973075165E-3
1.025032400E1,-6.155921146E-4,7.120091468E-4,-3.206349909E-3,3.341644867E-3
1.026028100E1,-1.619337359E-3,1.130634919E-4,-1.142667606E-3,1.985126217E-3
1.027023800E1,-7.080931682E-4,1.640558243E-3,1.324815676E-3,2.224401910E-3
1.028019500E1,-1.355507644E-3,9.020641446E-4,3.654548898E-3,4.000855951E-3
1.029015100E1,-6.653475575E-4,1.757202670E-3,2.817139030E-3,3.386254702E-3
1.030010800E1,2.058267128E-3,1.484495588E-3,1.687159762E-3,3.047408535E-3
1.031006500E1,1.836237614E-3,-1.073153690E-3,-3.850962967E-3,4.399243479E-3
1.032002200E1,1.231167465E-3,-6.521083415E-4,5.610957742E-4,1.501947764E-3
1.032997900E1,1.340520568E-3,-7.752804086E-4,-6.931647658E-4,1.696623853E-3
1.033993600E1,-2.269660821E-3,1.691604964E-3,4.293210804E-5,2.831029983E-3
1.034989300E1,2.003499540E-3,-2.344050445E-3,4.492513835E-4,3.116153029E-3
1.035985000E1,-5.544666201E-4,-2.622617409E-3,-8.626226336E-4,2.815967527E-3
1.036980600E1,1.841061516E-3,-6.247917190E-4,-1.205118373E-3,2.287396444E-3
1.037976300E1,-9.065219201E-4,-2.159969881E-4,6.095599383E-4,1.113552877E-3
1.038972000E1,-2.960044425E-3,-1.996208914E-3,-1.445723698E-3,3.851860594E-3
1.039967700E1,4.453394795E-4,-3.871275112E-4,-6.811302155E-4,9.011844053E-4
1.040963400E1,3.325657919E-3,1.170068048E-3,1.331141219E-3,3.768420992E-3
1.041959100E1,2.079564845E-3,2.065366134E-4,9.377915412E-4,2.290567679E-3
1.042954800E1,1.885208301E-3,1.922385767E-3,5.555432290E-4,2.749219099E-3
1.043950400E1,-1.720445463E-3,-6.318520755E-4,5.882997066E-4,1.924906798E-3
1.044946100E1,2.452555345E-4,4.594763741E-4,8.563883603E-5,5.278284056E-4
1.045941800E1,9.384764126E-4,9.281923994E-4,-7.679034024E-4,1.527073915E-3
1.046937500E1,1.647529542E-3,6.046975031E-4,-1.943383366E-3,2.618539969E-3
1.047933200E1,-1.253984403E-3,-8.776178584E-4,-9.673349559E-4,1.810642677E-3
1.048928900E1,1.642461866E-4,-1.307538711E-3,1.586796716E-3,2.062658020E-3
1.049924600E1,-2.039253479E-3,-1.163993962E-3,2.798002213E-3,3.652704899E-3
1.050920300E1,-2.957214601E-4,-1.850267872E-4,3.618089482E-3,3.634866929E-3
1.051915900E1,1.799190650E-4,1.392363571E-3,4.359520972E-5,1.404616576E-3
1.052911600E1,-1.781713217E-4,5.693193525E-4,1.856980845E-3,1.950448001E-3
1.053907300E1,-1.904698787E-3,1.406617463E-3,-3.257086501E-3,4.026793095E-3
1.054903000E1,-1.661850605E-3,-3.855070099E-4,-3.403749317E-3,3.807344547E-3
1.055898700E1,-6.189567503E-4,-6.310502067E-4,-1.322221011E-3,1.590471699E-3
1.056894400E1,2.041910775E-3,3.277705982E-4,7.110070437E-4,2.186861723E-3
1.057890100E1,-6.609314587E-4,-8.607981727E-4,-7.372200489E-4,1.311982198E-3
1.058885800E1,1.382151386E-4,-1.518758014E-3,-1.651642844E-3,2.248033232E-3
1.059881400E1,-2.672484843E-3,-9.043673053E-4,-1.149371266E-3,3.046491386E-3
1.060877100E1,1.185563160E-3,-1.335470937E-3,-1.261305064E-3,2.186305810E-3
1.061872800E1,-1.056019450E-3,3.244774416E-4,8.311402053E-4,1.382482090E-3
1.062868500E1,1.908365986E-3,-1.328268088E-3,-1.873152331E-3,2.985775696E-3
1.063864200E1,-2.995046321E-3,-6.052199751E-4,1.143675297E-3,3.262604308E-3
1.064859900E1,-1.872116234E-3,-3.353171051E-4,-1.664608717E-4,1.909179399E-3
1.065855600E1,2.267234726E-3,1.490280032E-3,-6.783213466E-4,2.796677980E-3
1.066851300E1,-6.487567443E-4,-2.631416544E-3,-1.128068194E-3,2.935604911E-3
1.067846900E1,-7.084114477E-4,-1.679070294E-3,-1.011528075E-4,1.825200187E-3
1.068842600E1,-7.510017604E-4,-3.858897835E-4,2.941358835E-4,8.941087669E-4
1.069838300E1,-7.456755266E-4,-1.017858274E-3,1.157000661E-3,1.711933990E-3
1.070834000E1,-1.056450652E-3,-3.004083410E-4,1.382559538E-3,1.765730451E-3
1.071829700E1,1.110563404E-3,-1.152619720E-3,3.145305440E-3,3.529140065E-3
1.072825400E1,-2.452363027E-3,-5.322201177E-4,-1.467678696E-3,2.907133197E-3
1.073821100E1,1.118669519E-3,-2.717636526E-4,-6.671324372E-4,1.330542245E-3
1.074816800E1,-8.763105143E-4,1.469640993E-3,-1.910567284E-3,2.564767457E-3
1.075812400E1,-1.682981849E-3,3.678919747E-4,1.432232559E-3,2.240326429E-3
1.076808100E1,-9.010022040E-4,-1.131768338E-3,-6.803404540E-4,1.598614299E-3
1.077803812E1,1.386958174E-4,1.290110871E-3,2.277366817E-3,2.621072721E-3
1.078799512E1,-1.360596390E-3,7.672943175E-4,1.854553819E-3,2.424733588E-3
1.079795212E1,-1.446350245E-3,-2.380488440E-4,5.003362894E-4,1.548848826E-3
1.080790913E1,-1.527826302E-3,5.981856957E-4,1.466901973E-3,2.200881808E-3
1.081786612E1,-1.301993616E-4,-1.602384262E-3,-2.090282738E-3,2.637018984E-3
1.082782313E1,-7.621222176E-4,-8.336966857E-4,-2.351177856E-3,2.608432048E-3
1.083777912E1,2.594663529E-4,1.087507233E-3,-2.413230017E-3,2.659637924E-3
1.084773613E1,-8.641027380E-4,6.154412404E-4,1.386985183E-3,1.746187092E-3
1.085769312E1,1.289861859E-3,-4.449021071E-5,2.178743482E-3,2.532320310E-3
1.086765012E1,-1.512737013E-3,-8.899280801E-4,1.273492351E-3,2.168439076E-3
1.087760712E1,-2.019291278E-4,-9.722197428E-4,-2.572111785E-3,2.757126337E-3
1.088756412E1,-2.199395094E-4,-9.889472276E-4,-2.844423056E-3,3.019458979E-3
1.089752112E1,-7.967802230E-4,2.142684534E-4,5.708150566E-4,1.003294335E-3
1.090747812E1,-2.422227990E-4,1.384249888E-3,4.178378731E-4,1.466085989E-3
1.091743412E1,-7.412990090E-4,-1.032303087E-3,-8.932370692E-4,1.553398322E-3
1.092739112E1,-2.870825818E-3,-6.668930873E-4,2.441095188E-3,3.826922129E-3
1.093734813E1,1.155873528E-3,5.626883358E-4,2.622455359E-3,2.920605054E-3
1.094730512E1,-1.701590372E-3,-1.148737036E-3,-8.943285793E-4,2.239381651E-3
1.095726213E1,1.268366817E-3,-1.219310798E-3,-1.379556954E-3,2.235766221E-3
1.096721912E1,-2.769901417E-3,1.504280604E-3,-1.619562507E-3,3.543754606E-3
1.097717612E1,-7.826504298E-4,4.909476265E-4,-7.393863052E-4,1.183327248E-3
1.098713212E1,1.516588964E-5,-1.330636442E-4,2.802219242E-4,3.105805280E-4
1.099708912E1,-3.850146197E-3,-1.180484891E-3,2.217404544E-3,4.597178834E-3
1.100704612E1,-5.328594707E-4,-1.034470275E-3,3.128539771E-3,3.337937846E-3
1.101700312E1,4.530426813E-4,-1.737011597E-3,1.259000972E-3,2.192610409E-3
1.102696013E1,1.304253587E-3,6.994325668E-4,3.017168492E-4,1.510402725E-3
1.103691712E1,-2.540285932E-3,-2.062798478E-3,-1.756640151E-3,3.714024070E-3
1.104687413E1,2.330070361E-3,9.451499209E-4,6.421115249E-4,2.595157697E-3
1.105683112E1,-7.067322731E-4,2.621077001E-3,-6.135702133E-4,2.783160714E-3
1.106678713E1,-8.774350863E-4,1.746481284E-4,-4.250127822E-4,9.904696686E-4
1.107674412E1,-1.071579522E-3,1.880935393E-3,9.339991957E-4,2.357658822E-3
1.108670112E1,2.333696466E-3,1.556091011E-4,9.529069066E-4,2.525546468E-3
1.109665812E1,-2.180894138E-3,-9.224377573E-4,1.639470458E-3,2.880113547E-3
1.110661512E1,-4.986515269E-4,8.306344971E-4,-3.225356340E-5,9.693540661E-4
1.111657212E1,-3.969189711E-4,-1.101222821E-3,-1.814173535E-3,2.159041913E-3
1.112652912E1,1.299720025E-3,2.616238780E-3,9.678117931E-4,3.077440034E-3
1.113648613E1,1.978826011E-3,-1.157726161E-3,9.427778423E-4,2.478893363E-3
1.114644212E1,1.168309362E-3,-1.357449219E-4,1.001520082E-3,1.544802875E-3
1.115639913E1,2.653554315E-3,-3.170950338E-3,-3.566909581E-4,4.150121081E-3
1.116635612E1,-1.156323124E-4,-1.029503532E-3,-4.844684154E-4,1.143659914E-3
1.117631313E1,3.506870707E-4,-2.414742485E-4,-2.115653828E-3,2.158073760E-3
1.118627012E1,2.416270319E-3,9.522410110E-4,-7.364898920E-6,2.597148329E-3
1.119622712E1,1.396279666E-3,5.289167166E-5,-1.536551863E-3,2.076869293E-3
1.120618412E1,-1.694054808E-3,1.213839278E-3,-6.153490394E-4,2.172989168E-3
1.121614112E1,-1.068108249E-4,-1.984350383E-4,4.473952577E-3,4.479624613E-3
1.122609712E1,1.623674762E-4,-1.453578472E-3,-5.607493222E-4,1.566426945E-3
1.123605412E1,7.767587667E-4,-3.597792238E-5,2.725552768E-4,8.239751037E-4
1.124601113E1,2.000731416E-3,-2.554561943E-4,1.050671563E-3,2.274223999E-3
1.125596812E1,4.134873161E-4,1.669476740E-3,-1.598108560E-3,2.347780934E-3
1.126592513E1,-2.509097103E-4,-4.355451092E-4,8.131396025E-4,9.559556674E-4
1.127588212E1,-1.017633593E-3,-1.596949995E-3,-2.411682159E-3,3.066274327E-3
1.128583912E1,2.770407591E-4,-1.133400016E-3,-6.817094982E-4,1.351323432E-3
1.129579612E1,-6.438803393E-4,1.650135964E-3,-1.603163779E-3,2.389071931E-3
1.130575212E1,1.229483169E-4,-1.034267247E-3,-9.678825736E-4,1.421837439E-3
1.131570912E1,-1.353774685E-3,1.769391820E-4,-1.610768959E-3,2.111537357E-3
1.132566612E1,-1.354371198E-3,1.060199924E-3,-1.311991364E-4,1.724980705E-3
1.133562312E1,-7.104189135E-4,-4.428885877E-4,-3.310747445E-3,3.414951533E-3
1.134558012E1,7.701324066E-4,-9.615486488E-4,1.364657655E-3,1.838469539E-3
1.135553713E1,7.592134643E-4,5.604512990E-5,1.777447760E-3,1.933614926E-3
1.136549412E1,3.477545921E-3,1.032482833E-4,6.918162107E-4,3.547195443E-3
1.137545013E1,1.621855190E-3,-1.385991462E-3,-1.510884613E-3,2.614222428E-3
1.138540712E1,8.775829338E-5,2.362281084E-4,-1.032087952E-3,1.062408009E-3
1.139536413E1,-8.169175126E-4,-1.155805774E-3,-2.368461341E-3,2.759139419E-3