"Time (s)","Gyroscope x (rad/s)","Gyroscope y (rad/s)","Gyroscope z (rad/s)","Absolute (rad/s)"
7.536041667E-3,-2.932867501E-3,-9.959377348E-5,-3.506455570E-2,3.518713824E-2
1.749204167E-2,1.795451739E-3,-1.801158302E-3,-3.478512168E-2,3.487796594E-2
2.744804167E-2,1.416483894E-3,-1.391830854E-3,-3.437899053E-2,3.443629785E-2
3.740404167E-2,5.098276888E-4,1.063696109E-3,-3.379528597E-2,3.381586503E-2
4.736004167E-2,-3.972449340E-4,-3.160876222E-3,-3.549411893E-2,3.563679869E-2
5.731604167E-2,3.003235674E-3,2.462789416E-5,-3.429133445E-2,3.442260376E-2
6.727204167E-2,3.488630173E-4,9.713824838E-4,-3.467429429E-2,3.468965226E-2
7.722804167E-2,1.598352916E-3,-1.012713648E-3,-3.449475393E-2,3.454661155E-2
8.718404167E-2,-2.386956476E-4,-5.991244689E-4,-3.550142795E-2,3.550728534E-2
9.714004167E-2,6.946531939E-4,8.526239544E-4,-3.541299701E-2,3.543007011E-2
1.070960417E-1,-7.559705991E-4,-1.679243520E-3,-3.483882174E-2,3.488745979E-2
1.170520417E-1,1.499972306E-3,-4.829112440E-4,-3.414985910E-2,3.418619600E-2
1.270080417E-1,1.139646629E-3,-1.903175376E-3,-3.302121162E-2,3.309563851E-2
1.369640417E-1,1.563465921E-3,-1.672688872E-3,-3.313330933E-2,3.321232454E-2
1.469200417E-1,2.291307785E-3,-6.958413869E-4,-3.498340771E-2,3.506526916E-2
1.568760417E-1,1.465624315E-3,-6.646476686E-5,-3.525776416E-2,3.528827576E-2
1.668320417E-1,1.142582856E-3,-1.546649262E-3,-3.457519412E-2,3.462862498E-2
1.767880417E-1,5.200079177E-4,-4.933951423E-4,-3.290334716E-2,3.291115467E-2
1.867440417E-1,4.073562450E-4,1.079468057E-3,-3.163674846E-2,3.165778014E-2
1.967000417E-1,-8.486538427E-4,5.170432851E-4,-3.166640922E-2,3.168199836E-2
2.066560417E-1,-1.617242233E-3,5.260976031E-4,-3.350345790E-2,3.354659361E-2
2.166120417E-1,-2.115618903E-3,-3.218920901E-4,-3.219934180E-2,3.227037450E-2
2.265680417E-1,2.023612615E-5,-1.889162697E-3,-3.471762687E-2,3.476899424E-2
2.365240417E-1,-8.592911763E-4,-4.242630675E-4,-3.286971897E-2,3.288368601E-2
2.464800417E-1,1.400134759E-3,-6.247991696E-4,-3.187236562E-2,3.190922189E-2
2.564370417E-1,2.184167970E-3,-1.940883696E-3,-3.068875521E-2,3.082754151E-2
2.663930417E-1,3.674206790E-3,-1.347797923E-3,-3.148557246E-2,3.172786831E-2
2.763490417E-1,7.319225697E-4,6.602061912E-4,-2.900934219E-2,2.902608340E-2
2.863050417E-1,6.325866561E-4,-1.198332757E-4,-3.361554816E-2,3.362171329E-2
2.962610417E-1,2.020499203E-3,-1.910350285E-3,-3.442360461E-2,3.453572657E-2
3.062170417E-1,-2.177175367E-3,8.279113099E-4,-3.409869969E-2,3.417816335E-2
3.161730417E-1,1.425745897E-3,4.530260339E-4,-3.264018893E-2,3.267445359E-2
3.261290417E-1,-8.555179229E-4,1.819760539E-3,-3.298213705E-2,3.304337761E-2
3.360850417E-1,1.843553036E-5,-1.361111179E-3,-3.067744523E-2,3.070763113E-2
3.460410417E-1,5.135171814E-4,1.150782220E-3,-3.122445568E-2,3.124987412E-2
3.559970417E-1,-1.059009344E-3,1.119184308E-3,-3.017967194E-2,3.021897869E-2
3.659530417E-1,1.421725145E-3,-1.623605378E-3,-3.232564777E-2,3.239760640E-2
3.759090417E-1,3.774180659E-4,-8.779549971E-4,-3.080737591E-2,3.082219427E-2
3.858650417E-1,-1.738197170E-3,-1.893950626E-3,-2.976368368E-2,2.987449153E-2
3.958210417E-1,5.930674961E-4,-1.343605109E-3,-2.877299488E-2,2.881045362E-2
4.057770417E-1,-9.294617921E-4,-2.011525445E-3,-3.128195927E-2,3.136034294E-2
4.157330417E-1,2.533370862E-3,5.077561364E-4,-2.917711064E-2,2.929128829E-2
4.256890417E-1,-7.337951101E-4,7.357224822E-4,-3.194546700E-2,3.196236231E-2
4.356450417E-1,-6.954162382E-4,2.219714224E-5,-2.917890996E-2,2.918720409E-2
4.456010417E-1,-1.038165065E-3,-1.420969144E-3,-3.092061728E-2,3.097065568E-2
4.555570417E-1,1.820575912E-3,-2.752710134E-4,-2.972962707E-2,2.978659089E-2
4.655130417E-1,1.222781138E-4,9.857350960E-4,-2.996638045E-2,2.998283814E-2
4.754693333E-1,2.384155989E-3,5.543362349E-4,-2.576952800E-2,2.588551838E-2
4.854253333E-1,6.070284871E-4,-1.293364912E-3,-2.773520723E-2,2.777198222E-2
4.953813333E-1,-1.582432189E-3,1.047272235E-5,-2.768781222E-2,2.773299744E-2
5.053373333E-1,-2.295893151E-3,-1.527769491E-3,-2.820632793E-2,2.834082109E-2
5.152933333E-1,1.202668762E-3,-9.727329016E-4,-3.101250157E-2,3.105105272E-2
5.252493333E-1,1.994426595E-3,1.012653112E-3,-2.989397198E-2,2.997753767E-2
5.352053333E-1,8.106837049E-5,-4.950882867E-4,-2.794142999E-2,2.794593341E-2
5.451623333E-1,1.780697843E-3,-4.937574267E-4,-2.655312605E-2,2.661734743E-2
5.551183333E-1,-5.331492284E-4,-1.124383882E-3,-2.886231244E-2,2.888912540E-2
5.650743333E-1,-1.595077338E-4,-6.878916174E-4,-2.809292451E-2,2.810179789E-2
5.750303333E-1,1.281666337E-3,1.127185300E-3,-2.956326865E-2,2.961249852E-2
5.849863333E-1,-8.533899672E-4,-4.339599982E-4,-2.733127214E-2,2.734803526E-2
5.949423333E-1,7.509164279E-4,-6.735967472E-4,-2.569765784E-2,2.571744984E-2
6.048983333E-1,-1.774615375E-4,1.042544842E-3,-2.570591308E-2,2.572765749E-2
6.148543333E-1,-1.736527309E-3,-1.630496234E-3,-2.851040475E-2,2.860974002E-2
6.248103333E-1,-7.690009661E-4,-1.965256408E-3,-2.945050038E-2,2.952601511E-2
6.347663333E-1,-1.531729940E-3,1.371296123E-3,-2.947365493E-2,2.954527008E-2
6.447223333E-1,2.315472579E-3,8.471859619E-4,-2.698200196E-2,2.709441948E-2
6.546783333E-1,4.746588529E-4,-8.454155177E-4,-2.622331306E-2,2.624123047E-2
6.646343333E-1,-2.758199116E-4,-2.658229321E-3,-2.570745721E-2,2.584599807E-2
6.745903333E-1,-8.693288546E-4,-9.569153190E-4,-2.559580468E-2,2.562843414E-2
6.845463333E-1,-3.212644486E-3,1.123812050E-3,-2.432281524E-2,2.455979192E-2
6.945023333E-1,1.973379171E-3,-4.496891052E-4,-2.854729630E-2,2.861895476E-2
7.044583333E-1,2.045074943E-4,-1.367414370E-3,-2.813663520E-2,2.817058547E-2
7.144143333E-1,5.237312871E-4,-1.610165462E-3,-2.704590932E-2,2.709885861E-2
7.243703333E-1,3.630042309E-3,-8.615506813E-4,-2.566985413E-2,2.593956222E-2
7.343263333E-1,1.750018680E-3,1.171676442E-3,-2.547459491E-2,2.556150185E-2
7.442823333E-1,-1.504131360E-4,2.189003862E-3,-2.718967013E-2,2.727805939E-2
7.542383333E-1,-8.662932087E-4,9.586028755E-4,-2.713912725E-2,2.716986587E-2
7.641943333E-1,2.009388059E-3,5.404874682E-4,-2.586773410E-2,2.595128966E-2
7.741503333E-1,-9.007143090E-4,-1.248003915E-3,-2.667945065E-2,2.672380749E-2
7.841063333E-1,2.528904472E-3,4.604132846E-4,-2.887176163E-2,2.898596140E-2
7.940623333E-1,3.465318005E-4,-1.544337720E-3,-2.581569180E-2,2.586416452E-2
8.040183333E-1,8.205744671E-4,-6.793430075E-4,-2.548439428E-2,2.550665014E-2
8.139743333E-1,-2.003610833E-3,-1.987022348E-3,-2.437357977E-2,2.453638329E-2
8.239303333E-1,-2.909319010E-4,5.435133353E-4,-2.583299205E-2,2.584034687E-2
8.338863333E-1,1.489183633E-3,1.132655889E-4,-3.013101034E-2,3.016800094E-2
8.438433333E-1,1.598106930E-3,1.324738376E-3,-2.963965572E-2,2.971225453E-2
8.537993333E-1,8.452878101E-4,5.894796923E-4,-2.799272723E-2,2.801168999E-2
8.637553333E-1,3.113240236E-4,2.037174068E-3,-2.637272514E-2,2.645312141E-2
8.737113333E-1,5.472815130E-3,-1.991726458E-4,-2.265697345E-2,2.330943631E-2
8.836673333E-1,-1.084153540E-3,-1.545933075E-3,-2.239624970E-2,2.247570463E-2
8.936233333E-1,-2.269024029E-3,1.257346943E-3,-2.297882363E-2,2.312478599E-2
9.035793333E-1,-9.630097775E-4,-9.518116713E-6,-2.669393457E-2,2.671130138E-2
9.135353333E-1,3.473836463E-3,-5.289576948E-4,-2.987896092E-2,3.008487397E-2
9.234913333E-1,-9.368907195E-4,8.404394612E-4,-3.079775162E-2,3.082345872E-2
9.334473333E-1,3.193237935E-4,-2.859028988E-3,-2.907395363E-2,2.921593391E-2
9.434033333E-1,-7.033300353E-4,3.636619076E-4,-2.472900599E-2,2.474167861E-2
9.533593333E-1,-8.250277024E-4,-6.672814488E-4,-2.355074510E-2,2.357463743E-2
9.633153333E-1,1.401017653E-4,-4.467722028E-4,-2.371319756E-2,2.371781972E-2
9.732713333E-1,4.351263633E-4,-3.067646176E-4,-2.791928127E-2,2.792435687E-2
9.832273333E-1,3.421861446E-3,3.166813403E-4,-3.019974753E-2,3.039464054E-2
9.931833333E-1,-2.075794619E-3,-1.034428366E-3,-2.972873114E-2,2.981906136E-2
1.003139333E0,-4.139819648E-4,-9.060641751E-4,-2.686636336E-2,2.688482497E-2
1.013095333E0,1.910424908E-3,-1.288340427E-3,-2.531560697E-2,2.542025768E-2
1.023051333E0,-1.364806667E-4,-1.438275911E-3,-2.236003056E-2,2.240665596E-2
1.033007333E0,2.844803385E-4,5.496293306E-5,-2.446741797E-2,2.446913346E-2
1.042963333E0,1.567857689E-3,6.009107456E-4,-2.663922869E-2,2.669209202E-2
1.052919333E0,-3.506561043E-4,-1.413705759E-3,-2.807990275E-2,2.811765393E-2
1.062875333E0,1.798456069E-4,8.867327124E-4,-3.008153476E-2,3.009513869E-2
1.072831333E0,-3.520105965E-4,1.265420578E-3,-2.901160344E-2,2.904132117E-2
1.082787333E0,-5.719877081E-4,-6.890725344E-4,-2.516626567E-2,2.518219447E-2
1.092743333E0,1.921354793E-3,1.939826645E-3,-2.475225180E-2,2.490237942E-2
1.102699333E0,-2.408435103E-5,-3.330968320E-5,-2.292399481E-2,2.292403166E-2
1.112655333E0,-1.803296269E-3,1.635041088E-3,-2.589263394E-2,2.600680160E-2
1.122611333E0,2.850577701E-3,5.436772481E-4,-2.856298536E-2,2.871002457E-2
1.132567333E0,2.242451534E-3,-7.915245369E-4,-2.974683978E-2,2.984174219E-2
1.142523333E0,3.326986916E-4,-3.859251738E-4,-3.026642092E-2,3.027070963E-2
1.152480333E0,-1.418500906E-4,1.255146228E-3,-2.956961654E-2,2.959658318E-2
1.162436333E0,-6.265453994E-4,1.150217839E-3,-2.520708926E-2,2.524109564E-2
1.172392333E0,1.205625013E-4,-8.097896352E-4,-2.390870452E-2,2.392271821E-2
1.182348333E0,5.799577921E-4,5.691945553E-4,-2.656813711E-2,2.658056137E-2
1.192304333E0,1.284978585E-3,-4.548430443E-4,-2.764247358E-2,2.767606182E-2
1.202260333E0,5.352987791E-4,-3.158254549E-4,-2.758548036E-2,2.759248117E-2
1.212216333E0,-1.397049055E-3,-1.494785771E-3,-2.838030830E-2,2.845396334E-2
1.222172333E0,1.621644013E-3,-1.227250323E-4,-2.831266448E-2,2.835933287E-2
1.232128333E0,2.960026730E-3,-2.786045894E-3,-2.971239015E-2,2.998916369E-2
1.242084333E0,-3.159384942E-3,-5.420669913E-4,-2.694643289E-2,2.713642930E-2
1.252040333E0,-1.142960158E-3,-1.213968731E-3,-2.538525499E-2,2.543995380E-2
1.261996333E0,-1.485359389E-4,-1.756987534E-3,-2.677862160E-2,2.683661012E-2
1.271952333E0,1.272617141E-3,-7.315287367E-4,-2.849281952E-2,2.853060554E-2
1.281908333E0,5.493025528E-4,8.828798309E-4,-2.696602792E-2,2.698606810E-2
1.291864333E0,-6.270428421E-4,-6.523383781E-4,-2.566433884E-2,2.568028458E-2
1.301820333E0,2.587244962E-4,2.846255898E-3,-2.657087706E-2,2.672413925E-2
1.311776333E0,1.795282355E-3,-1.958273351E-4,-2.724995464E-2,2.730973114E-2
1.321732333E0,-4.385772627E-4,-1.517022029E-3,-2.653542906E-2,2.658237576E-2
1.331688333E0,-1.113604056E-3,-1.401779242E-3,-2.540142089E-2,2.546443171E-2
1.341644333E0,-2.648547525E-4,-4.539610818E-4,-2.744779363E-2,2.745282506E-2
1.351600333E0,-1.027604216E-3,1.698033884E-4,-2.681382373E-2,2.683404454E-2
1.361556333E0,-1.530409208E-3,-3.721075132E-3,-2.769346535E-2,2.798422012E-2
1.371512333E0,-9.732292965E-4,-5.148015916E-4,-2.588419057E-2,2.590759575E-2
1.381468333E0,-1.030753599E-3,2.395766787E-3,-2.545515634E-2,2.558841800E-2
1.391424333E0,2.441346413E-3,4.472127184E-4,-2.936467715E-2,2.946938132E-2
1.401380333E0,-1.353924396E-3,2.581281587E-4,-2.816492133E-2,2.819862647E-2
1.411336333E0,-9.012215305E-4,2.791183069E-4,-2.615227550E-2,2.616928775E-2
1.421292333E0,-1.012790017E-5,1.391787082E-3,-2.783539519E-2,2.787017042E-2
1.431248333E0,2.946405904E-3,9.585265070E-5,-2.717007138E-2,2.732953117E-2
1.441204333E0,2.403679537E-4,1.275898889E-3,-2.451969497E-2,2.455404521E-2
1.451160333E0,-2.316542901E-3,6.608180702E-4,-2.269218862E-2,2.281969491E-2
1.461116333E0,-1.294688089E-3,-7.210960612E-4,-2.331936359E-2,2.336640570E-2
1.471072292E0,5.070311017E-3,4.210500047E-4,-2.666847594E-2,2.714945572E-2
1.481028292E0,1.869191183E-3,-5.440795794E-4,-2.824293636E-2,2.830995147E-2
1.490984292E0,5.405128468E-4,-6.674984470E-4,-2.840434201E-2,2.841732488E-2
1.500941292E0,7.338583237E-4,-1.086945646E-3,-2.602373995E-2,2.605676572E-2
1.510897292E0,3.697602078E-4,-2.062648535E-3,-2.475300618E-2,2.484154899E-2
1.520853292E0,-7.186736912E-4,-7.715485990E-4,-2.583158575E-2,2.585309655E-2
1.530809292E0,-9.165268857E-4,-5.623316392E-4,-2.371941693E-2,2.374377767E-2
1.540765292E0,-2.378868638E-3,3.535291180E-4,-2.299583517E-2,2.312125503E-2
1.550721292E0,1.097501954E-4,-1.031899825E-3,-2.283604071E-2,2.285960668E-2
1.560677292E0,4.378516460E-4,-4.866067320E-5,-2.656766027E-2,2.657131262E-2
1.570633292E0,2.219392452E-3,1.383831725E-3,-2.551328018E-2,2.564699122E-2
1.580589292E0,5.024776328E-5,3.678360954E-4,-2.478596941E-2,2.478874962E-2
1.590545292E0,-2.906586742E-3,-1.415414736E-4,-2.398615144E-2,2.416203099E-2
1.600501292E0,4.628446768E-4,1.900304109E-3,-2.160049044E-2,2.168885815E-2
1.610457292E0,-1.113606151E-3,4.997998476E-4,-2.090526745E-2,2.094087213E-2
1.620413292E0,3.908136277E-4,1.874524169E-3,-2.104188874E-2,2.112883475E-2
1.630369292E0,-3.011592198E-3,2.219565213E-3,-2.129569650E-2,2.162181414E-2
1.640325292E0,-1.348447870E-3,9.098229930E-4,-2.600602992E-2,2.605685479E-2
1.650281292E0,1.119235530E-4,-1.405312680E-3,-2.523556724E-2,2.527491414E-2
1.660237292E0,9.231224540E-4,2.836303785E-3,-2.659005299E-2,2.675682515E-2
1.670193292E0,9.480514564E-5,1.068485901E-3,-2.487755567E-2,2.490067120E-2
1.680149292E0,-1.516939839E-3,-5.358019844E-4,-2.331481501E-2,2.337025437E-2
1.690105292E0,4.892370198E-4,4.514874890E-3,-1.991850697E-2,2.042964434E-2
1.700061292E0,6.431677029E-4,-1.827176660E-3,-2.329885773E-2,2.337924316E-2
1.710017292E0,1.889836858E-3,-5.048206076E-4,-2.665744349E-2,2.672911560E-2
1.719973292E0,6.243027165E-4,-9.176414460E-5,-2.535649016E-2,2.536434048E-2
1.729929292E0,2.009886317E-3,1.100542955E-3,-2.311582491E-2,2.322912394E-2
1.739885292E0,1.501755207E-3,-6.771171466E-4,-2.338613570E-2,2.344408452E-2
1.749841292E0,2.213652246E-3,7.125027478E-4,-2.352342010E-2,2.363808811E-2
1.759797292E0,1.346793491E-3,-3.310202621E-3,-2.184855938E-2,2.213889882E-2
1.769753292E0,-2.105124295E-4,-9.470302612E-4,-2.597112954E-2,2.598924299E-2
1.779709292E0,4.187925369E-4,1.358734444E-3,-2.299371734E-2,2.303763407E-2
1.789665292E0,2.580251312E-4,-4.692478105E-4,-2.754254825E-2,2.754775372E-2
1.799621292E0,7.887930842E-4,-5.957474932E-4,-2.509536780E-2,2.511482819E-2
1.809577292E0,1.777960220E-3,-1.291439869E-3,-2.583570965E-2,2.592899636E-2
1.819533292E0,2.387824003E-3,6.372211501E-4,-2.369639091E-2,2.382491756E-2
1.829489292E0,3.924854682E-4,1.701662317E-3,-2.228372544E-2,2.235204955E-2
1.839445292E0,1.524328953E-3,1.391404308E-3,-2.122512087E-2,2.132522780E-2
1.849401292E0,-1.123074209E-3,-1.515237615E-3,-2.468773909E-2,2.475967896E-2
1.859358292E0,-2.281815512E-3,6.136931479E-4,-2.371941321E-2,2.383681741E-2
1.869314292E0,-1.235196949E-3,7.123332471E-4,-2.438274398E-2,2.442440039E-2
1.879270292E0,2.879919484E-3,-8.378922939E-4,-2.483414859E-2,2.501461444E-2
1.889226292E0,1.364964177E-3,5.120290443E-4,-2.063069120E-2,2.068213529E-2
1.899182292E0,-4.645257723E-3,-1.070154831E-3,-1.952894032E-2,2.010231730E-2
1.909138292E0,-2.422335092E-4,-1.120025292E-3,-1.936516911E-2,1.939904400E-2
1.919094292E0,-2.015366219E-3,-4.438487813E-4,-2.206428163E-2,2.216057821E-2
1.929050292E0,-5.146012409E-4,-2.558431588E-3,-2.113332972E-2,2.129384915E-2
1.939006292E0,1.148542855E-3,-5.251085386E-4,-2.266171575E-2,2.269687754E-2
1.948962292E0,-1.195794321E-3,-2.875933424E-4,-2.397945337E-2,2.401097286E-2
1.958918292E0,1.256178017E-3,1.315629110E-3,-2.473952062E-2,2.480630452E-2
1.968874292E0,-3.883102909E-4,-1.576364040E-3,-2.396762371E-2,2.402254555E-2
1.978830292E0,1.845282852E-3,-3.585005179E-4,-2.379025519E-2,2.386440515E-2
1.988786292E0,1.405565999E-3,8.665025234E-5,-2.083194628E-2,2.087949018E-2
1.998742292E0,3.456279519E-4,-2.030828968E-3,-2.419791743E-2,2.428544694E-2
2.008698292E0,-8.248826489E-4,1.115978695E-3,-2.120717056E-2,2.125252745E-2
2.018654292E0,-8.949236944E-4,1.073101535E-3,-2.309908159E-2,2.314130518E-2
2.028610292E0,2.747802529E-3,9.441301227E-4,-2.390178666E-2,2.407773257E-2
2.038566292E0,-1.292479225E-3,-3.560250625E-4,-2.174169570E-2,2.178298851E-2
2.048522292E0,-1.953070052E-3,-1.251379959E-3,-2.246408537E-2,2.258352421E-2
2.058478292E0,2.162312623E-3,1.076310873E-4,-2.389926463E-2,2.399712546E-2
2.068434292E0,-1.069306163E-3,-1.641592942E-3,-2.249876596E-2,2.258390384E-2
2.078390292E0,-1.050664112E-3,7.081963122E-5,-2.261141874E-2,2.263592649E-2
2.088346292E0,1.242173603E-4,-3.327354789E-4,-2.489087917E-2,2.489341296E-2
2.098302292E0,-8.484080900E-5,-3.609657288E-4,-2.335689776E-2,2.335984090E-2
2.108258292E0,2.822404029E-3,-1.369155943E-4,-2.151630819E-2,2.170106515E-2
2.118214292E0,1.132628415E-3,1.129683107E-3,-2.342526242E-2,2.347982007E-2
2.128170292E0,1.899364404E-3,7.109986618E-4,-2.148876712E-2,2.158425853E-2
2.138126292E0,-7.659271359E-4,-9.593926370E-5,-1.927461475E-2,1.929006538E-2
2.148082292E0,1.160412794E-3,-2.992842346E-4,-2.123010159E-2,2.126389763E-2
2.158038292E0,7.916940376E-5,1.257192343E-5,-2.395078540E-2,2.395091955E-2
2.167994292E0,1.290135435E-3,-5.617355928E-4,-2.492791042E-2,2.496759328E-2
2.177950292E0,1.261106925E-3,1.418720931E-4,-2.437051013E-2,2.440353012E-2
2.187906292E0,2.151289489E-3,-6.573209539E-4,-2.610909194E-2,2.620581613E-2
2.197862292E0,-2.279786859E-4,3.504185006E-4,-2.349173650E-2,2.349545597E-2
2.207818292E0,-7.944310782E-4,-4.111519083E-4,-1.941040158E-2,1.943100245E-2
2.217774292E0,-2.736141905E-3,-3.591272980E-5,-1.891425624E-2,1.911117086E-2
2.227730292E0,1.304546371E-3,2.524412237E-3,-2.108027413E-2,2.127092983E-2
2.237686292E0,1.555682393E-3,-1.068990678E-3,-2.099718153E-2,2.108185289E-2
2.247642292E0,1.421263441E-3,-1.565416344E-3,-2.231884748E-2,2.241877496E-2
2.257598292E0,-1.327917678E-3,-8.058836684E-4,-2.414710820E-2,2.419701734E-2
2.267554292E0,1.353699248E-3,1.005071215E-3,-2.297034115E-2,2.303213499E-2
2.277510292E0,3.936297144E-4,2.380814403E-4,-2.603644133E-2,2.604050507E-2
2.287467292E0,3.127909731E-4,-8.675269783E-5,-2.193485014E-2,2.193725176E-2
2.297423292E0,8.685927023E-4,-5.301693454E-4,-2.133936621E-2,2.136361587E-2
2.307379292E0,2.425540006E-3,-1.664576121E-3,-1.871538535E-2,1.894517634E-2
2.317335292E0,2.342183143E-3,-1.473734155E-4,-2.278336510E-2,2.290391377E-2
2.327291292E0,-1.544548548E-3,1.881755888E-4,-2.131981403E-2,2.137651773E-2
2.337247292E0,1.148706302E-3,-1.949277706E-3,-2.464476973E-2,2.474841176E-2
2.347203292E0,1.012273715E-4,5.455389619E-4,-2.098676376E-2,2.099409710E-2
2.357159292E0,3.542563878E-3,-1.564484090E-3,-2.236122079E-2,2.269408656E-2
2.367115292E0,1.209429465E-4,1.635421999E-3,-1.753524318E-2,1.761175703E-2
2.377071292E0,2.579839434E-3,3.009121865E-4,-1.918160915E-2,1.935665904E-2
2.387027292E0,-2.384472638E-3,1.234361902E-3,-2.000813559E-2,2.018749238E-2
2.396983292E0,-1.312816516E-3,1.359530725E-3,-2.505349368E-2,2.512467625E-2
2.406939292E0,-1.848614775E-4,-1.620323397E-3,-2.569732070E-2,2.574901771E-2
2.416895292E0,1.567764906E-3,-1.736436971E-3,-2.214866132E-2,2.227187236E-2
2.426851292E0,-2.486246172E-3,3.703292459E-4,-1.723350585E-2,1.741586310E-2
2.436807292E0,2.874359488E-4,6.837835535E-4,-1.846068725E-2,1.847558262E-2
2.446763292E0,-2.492321655E-4,1.505324617E-3,-1.813951880E-2,1.820357825E-2
2.456719292E0,-1.315204427E-4,3.495123237E-4,-2.064288966E-2,2.064626722E-2
2.466675292E0,-2.177397255E-5,-4.808111116E-4,-1.953004859E-2,1.953597839E-2
2.476631667E0,-1.950967941E-3,1.558370888E-3,-2.153887041E-2,2.168312095E-2
2.486587667E0,-7.918532938E-4,1.872641966E-3,-2.118880488E-2,2.128612862E-2
2.496543667E0,-1.673626015E-3,-2.506971359E-4,-2.207430638E-2,2.213908027E-2
2.506499667E0,1.645061187E-3,-7.731281221E-4,-2.245344780E-2,2.252690107E-2
2.516455667E0,1.432540943E-3,3.182357177E-4,-2.227607928E-2,2.232436238E-2
2.526411667E0,4.186989972E-4,-1.094648615E-4,-2.163049765E-2,2.163482655E-2
2.536367667E0,1.509796130E-3,-4.641972482E-4,-2.021183260E-2,2.027345901E-2
2.546323667E0,1.305082231E-3,-8.450262249E-5,-2.182952687E-2,2.186866763E-2
2.556279667E0,1.343431766E-3,-4.429640248E-4,-2.249052376E-2,2.253496583E-2
2.566235667E0,-1.852678368E-3,-1.464287750E-3,-2.278361842E-2,2.290567231E-2
2.576191667E0,3.654685570E-4,-2.159904689E-3,-2.282623202E-2,2.293110603E-2
2.586147667E0,3.173204605E-3,9.162444621E-5,-2.298412472E-2,2.320231910E-2
2.596103667E0,-1.974153332E-3,-5.874820054E-4,-2.137077972E-2,2.146980769E-2
2.606059667E0,-9.493425023E-4,3.484077752E-5,-2.125129290E-2,2.127251548E-2
2.616015667E0,6.991542177E-4,-1.204218715E-4,-2.179164626E-2,2.180319162E-2
2.625971667E0,1.099995920E-3,1.311236992E-4,-2.069294080E-2,2.072257184E-2
2.635927667E0,-5.061564734E-4,1.457706094E-4,-1.811846346E-2,1.812611821E-2
2.645883667E0,6.640620413E-4,-1.372869126E-3,-2.086215839E-2,2.091782495E-2
2.655839667E0,-2.533969237E-4,-1.819214784E-3,-2.092207968E-2,2.100255153E-2
2.665795667E0,1.488758717E-3,-9.315954521E-4,-1.844074950E-2,1.852418729E-2
2.675751667E0,1.312990091E-3,2.385973930E-4,-2.145358548E-2,2.149505063E-2
2.685707667E0,6.401056889E-4,1.245457679E-3,-2.128172666E-2,2.132774694E-2
2.695663667E0,9.434397798E-4,-7.564406842E-4,-2.029529214E-2,2.033128535E-2
2.705619667E0,1.080511138E-3,-9.765010327E-4,-2.087362111E-2,2.092436658E-2
2.715575667E0,-9.133976419E-4,-3.615766764E-4,-2.158441767E-2,2.160676096E-2
2.725531667E0,8.924974827E-5,3.374328837E-3,-1.874868944E-2,1.905012904E-2
2.735487667E0,-1.107308432E-3,-1.490467228E-3,-2.121584490E-2,2.129694108E-2
2.745443667E0,9.937834693E-4,2.034259960E-4,-2.229943871E-2,2.232249885E-2
2.755399667E0,-7.281254511E-5,-1.785955392E-3,-2.047810331E-2,2.055596394E-2
2.765355667E0,3.497176804E-3,9.277211502E-4,-1.859023422E-2,1.893905279E-2
2.775311667E0,-8.024740964E-5,-7.226392627E-4,-2.011968568E-2,2.013281895E-2
2.785267667E0,3.051813110E-4,6.377277896E-4,-2.075071074E-2,2.076275099E-2
2.795224667E0,1.203998225E-3,-1.698929816E-3,-1.917012595E-2,1.928288627E-2
2.805180667E0,3.269681707E-3,-6.441399455E-4,-1.901309937E-2,1.930294492E-2
2.815136667E0,1.076035784E-3,3.492189571E-4,-1.862321422E-2,1.865754310E-2
2.825092667E0,1.030552434E-3,1.194584183E-3,-2.085120417E-2,2.091080546E-2
2.835048667E0,6.569109391E-4,8.475743234E-4,-2.033135481E-2,2.035961450E-2
2.845004667E0,1.165257068E-3,-1.234836876E-3,-2.075206861E-2,2.082140720E-2
2.854960667E0,-8.981601568E-4,-1.129642129E-3,-2.337475121E-2,2.341926082E-2
2.864916667E0,-7.755563129E-4,-2.496596426E-5,-2.118544467E-2,2.119965039E-2
2.874872667E0,1.845132792E-4,1.964415424E-3,-1.859712042E-2,1.870149355E-2
2.884828667E0,6.165821105E-4,-5.651684478E-4,-1.731269807E-2,1.733289079E-2
2.894784667E0,5.148493801E-4,-6.109746173E-4,-2.049304545E-2,2.050861457E-2
2.904740667E0,-1.290989341E-3,1.277001575E-4,-2.340449393E-2,2.344042015E-2
2.914696667E0,-1.346447971E-4,7.215850055E-4,-2.298345044E-2,2.299516924E-2
2.924652667E0,-2.972325310E-4,1.205188222E-3,-1.873240434E-2,1.877348657E-2
2.934608667E0,1.688953023E-3,-3.109490499E-4,-2.119742520E-2,2.126687769E-2
2.944564667E0,3.063185140E-3,-4.795258865E-4,-1.772519574E-2,1.799432166E-2
2.954520667E0,7.591722533E-5,-1.198046841E-3,-1.448971964E-2,1.453936226E-2
2.964476667E0,-1.686573261E-3,-5.662227049E-4,-1.620494574E-2,1.630231284E-2
2.974432667E0,-1.226645196E-3,-3.188150004E-4,-1.869766787E-2,1.874057323E-2
2.984388667E0,1.856596791E-4,5.570556968E-4,-2.102451771E-2,2.103271560E-2
2.994344667E0,-1.528084511E-3,2.974923700E-5,-2.346929908E-2,2.351901202E-2
3.004300667E0,1.024069497E-4,1.147372648E-3,-2.112946659E-2,2.116084378E-2
3.014256667E0,-1.296285191E-3,1.655237749E-3,-1.580234617E-2,1.594159063E-2
3.024212667E0,6.206909893E-4,1.001257449E-3,-1.429913938E-2,1.434758380E-2
3.034168667E0,1.588217448E-3,-2.160447650E-3,-1.409567520E-2,1.434845037E-2
3.044124667E0,-8.602067828E-5,7.565133274E-5,-1.550415345E-2,1.550457664E-2
3.054080667E0,-2.932145726E-4,-7.043890655E-4,-1.912924834E-2,1.914445822E-2
3.064036667E0,9.218580090E-6,1.172302291E-3,-2.314592153E-2,2.317559192E-2
3.073992667E0,-2.493743086E-4,-4.168059677E-4,-2.513397112E-2,2.513866383E-2
3.083948667E0,5.035406793E-4,4.625329748E-4,-2.030069754E-2,2.031220841E-2
3.093904667E0,1.799701131E-3,-7.958114147E-4,-1.889135316E-2,1.899356376E-2
3.103860667E0,1.383986673E-3,1.894856803E-3,-1.528214104E-2,1.546123334E-2
3.113816667E0,1.715550199E-3,1.381666400E-3,-1.519239135E-2,1.535124977E-2
3.123772667E0,1.515300712E-3,-8.468898013E-4,-1.847717166E-2,1.855853526E-2
3.133728667E0,-5.651607644E-4,7.349811494E-5,-2.041462064E-2,2.042257438E-2
3.143684667E0,-1.209667302E-3,-9.487569332E-4,-1.771451905E-2,1.778110289E-2
3.153640667E0,1.519540208E-3,-1.186495647E-4,-2.019552141E-2,2.025295448E-2
3.163596667E0,-1.004152116E-3,-6.726114079E-4,-1.746701822E-2,1.750878217E-2
3.173552667E0,4.566600546E-5,-1.289932989E-3,-1.829765737E-2,1.834312617E-2
3.183508667E0,-3.580364631E-3,1.112554222E-3,-1.862004399E-2,1.899375756E-2
3.193464667E0,5.171752418E-4,-9.183725342E-4,-1.663758606E-2,1.667093723E-2
3.203420667E0,-7.694661617E-4,9.663198143E-4,-1.671545580E-2,1.676103561E-2
3.213376667E0,-1.730334712E-3,-3.544009291E-3,-1.668802276E-2,1.714771599E-2
3.223332667E0,5.028221058E-4,-1.568562351E-3,-1.888808981E-2,1.895977728E-2
3.233288667E0,-6.623108638E-4,-1.679083332E-3,-1.727448031E-2,1.736852459E-2
3.243244667E0,9.287480498E-4,9.719645604E-4,-1.603098214E-2,1.608725198E-2
3.253200667E0,-1.050246996E-3,3.791451454E-4,-1.567784697E-2,1.571755882E-2
3.263156667E0,-1.621966017E-3,-5.836952478E-4,-1.681994647E-2,1.690804758E-2
3.273112667E0,1.661445247E-3,6.984919310E-8,-1.997739077E-2,2.004635982E-2
3.283068667E0,1.116940519E-3,-3.425450996E-4,-1.928296685E-2,1.931832560E-2
3.293024667E0,2.657942823E-4,4.140594974E-4,-2.027446032E-2,2.028042980E-2
3.302980667E0,-7.436706219E-4,-1.295032911E-3,-1.828948036E-2,1.835034735E-2
3.312936667E0,1.027331455E-3,6.136540323E-4,-1.861438528E-2,1.865280999E-2
3.322892667E0,4.848103272E-4,2.635419369E-4,-1.563970931E-2,1.564944097E-2
3.332848667E0,-2.323789522E-4,2.838019282E-3,-1.528124698E-2,1.554428713E-2
3.342804667E0,1.342520234E-3,-1.287950203E-3,-1.819328964E-2,1.828816459E-2
3.352760667E0,1.041849377E-3,-3.818752244E-3,-1.784255356E-2,1.827635183E-2
3.362716667E0,-1.853015274E-4,2.639312297E-4,-1.842467114E-2,1.842749313E-2
3.372672667E0,-1.116608968E-3,-4.119789228E-4,-1.798871160E-2,1.802804169E-2
3.382628667E0,7.212183555E-4,3.277595155E-3,-1.940149069E-2,1.968960708E-2
3.392584667E0,-1.621521078E-4,-1.677748747E-3,-1.867498085E-2,1.875089448E-2
3.402540667E0,-9.230580181E-4,-2.652983181E-3,-1.769919693E-2,1.792071226E-2
3.412496667E0,1.667132368E-3,2.393706702E-3,-1.802809909E-2,1.826257153E-2
3.422452667E0,8.125555469E-4,-3.305133432E-4,-1.670032367E-2,1.672334585E-2
3.432408667E0,6.953359116E-5,-5.536861718E-4,-1.979784667E-2,1.980570969E-2
3.442365667E0,-2.165916841E-3,7.293345407E-4,-1.975511014E-2,1.988686756E-2
3.452320667E0,-1.493468648E-3,-7.130336016E-4,-1.850741729E-2,1.858126369E-2
3.462277667E0,-6.258778740E-5,8.340841159E-4,-2.126835287E-2,2.128479380E-2
3.472233542E0,1.118257758E-3,1.098269597E-3,-1.735137403E-2,1.742202277E-2
3.482189542E0,-7.221132983E-4,1.227805391E-3,-1.427019574E-2,1.434111014E-2
3.492145542E0,-1.210270682E-3,-1.575970091E-3,-1.447232999E-2,1.460810639E-2
3.502101542E0,-1.992013305E-3,-6.592227146E-4,-1.720601693E-2,1.733348523E-2
3.512057542E0,1.380880130E-3,9.101787582E-4,-1.928727701E-2,1.935805543E-2
3.522013542E0,4.936823389E-4,-1.559165306E-3,-2.333471179E-2,2.339195360E-2
3.531969542E0,9.501480963E-4,-3.903266042E-5,-2.232377604E-2,2.234402116E-2
3.541925542E0,-1.436654711E-4,1.674802974E-3,-2.169435844E-2,2.175938402E-2
3.551881542E0,-5.324870581E-4,-2.048565075E-4,-1.494324580E-2,1.495413333E-2
3.561837542E0,-3.376620589E-4,-6.748223677E-4,-1.593409106E-2,1.595194843E-2
3.571793542E0,1.123880735E-3,-1.429561526E-3,-1.583022624E-2,1.593432826E-2
3.581749542E0,5.235457793E-4,5.775205791E-4,-1.844239794E-2,1.845886432E-2
3.591705542E0,6.761448458E-4,-1.300008036E-3,-2.177987061E-2,2.182910801E-2
3.601661542E0,1.539349556E-3,-3.416165709E-4,-2.179402485E-2,2.185099124E-2
3.611617542E0,-1.114224084E-3,-3.232406452E-4,-2.102597058E-2,2.105795381E-2
3.621573542E0,-7.407639641E-4,1.293745823E-3,-1.748423278E-2,1.754767522E-2
3.631529542E0,2.755433787E-3,-1.194179058E-3,-1.802192628E-2,1.827042161E-2
3.641485542E0,1.811429858E-3,3.188268282E-3,-1.370746270E-2,1.418946322E-2
3.651441542E0,-2.301494824E-4,7.983483374E-4,-1.805667207E-2,1.807577758E-2
3.661397542E0,-1.208103728E-3,-2.514682710E-4,-2.033719048E-2,2.037459368E-2
3.671353542E0,-2.390280832E-3,-1.077314839E-3,-2.129353210E-2,2.145433660E-2
3.681309542E0,1.321849413E-5,4.459191114E-4,-1.856243797E-2,1.856779798E-2
3.691265542E0,-1.526965061E-4,-7.932502776E-4,-1.821622811E-2,1.823413088E-2
3.701221542E0,-3.233514726E-4,-5.568964407E-4,-2.082514018E-2,2.083509427E-2
3.711177542E0,-2.241425682E-5,9.557791054E-5,-1.668738574E-2,1.668767450E-2
3.721133542E0,-1.305832993E-4,-1.253436320E-3,-1.831718162E-2,1.836048194E-2
3.731089542E0,-2.805155236E-5,-2.192466520E-3,-1.890254766E-2,1.902929332E-2
3.741045542E0,1.161585562E-3,-5.653938279E-4,-2.019274980E-2,2.023403310E-2
3.751001542E0,-1.417153282E-3,8.647236973E-4,-2.171181887E-2,2.177519574E-2
3.760957542E0,-1.200301689E-3,3.746282309E-4,-2.182422206E-2,2.186041488E-2
3.770913542E0,-1.541186241E-3,-5.321772769E-4,-1.711415872E-2,1.719165194E-2
3.780869542E0,-3.122461494E-4,6.051342934E-4,-1.285874099E-2,1.287675832E-2
3.790825542E0,-1.691497280E-3,-8.340375498E-4,-1.445956714E-2,1.458203908E-2
3.800781542E0,2.046353417E-3,-7.237242535E-4,-2.128185518E-2,2.139225792E-2
3.810737542E0,-7.132141618E-4,1.129303128E-3,-1.787274145E-2,1.792258036E-2
3.820693542E0,-3.861093428E-4,-9.646192193E-4,-2.114993334E-2,2.117543980E-2
3.830649542E0,1.966527198E-3,-1.206967048E-3,-1.899836585E-2,1.913797021E-2
3.840605542E0,-4.758243449E-6,7.919427007E-4,-1.749382727E-2,1.751174430E-2
3.850561542E0,1.104714698E-3,-3.075499088E-3,-1.777346246E-2,1.807138780E-2
3.860517542E0,-8.739224868E-4,-1.223460771E-3,-1.537126116E-2,1.544461934E-2
3.870473542E0,2.390125301E-4,2.443445846E-3,-1.829168387E-2,1.845571059E-2
3.880429542E0,-2.606073860E-3,-4.085907713E-4,-1.909879781E-2,1.928011010E-2
3.890385542E0,5.479080137E-4,7.988866419E-4,-2.004155703E-2,2.006495530E-2
3.900341542E0,1.052358188E-3,6.995312870E-4,-2.041555941E-2,2.045462950E-2
3.910297542E0,-1.724253525E-3,1.527843997E-4,-1.856572926E-2,1.864625153E-2
3.920253542E0,-4.663837608E-3,1.090775244E-3,-1.860808581E-2,1.921463061E-2
3.930209542E0,1.686469652E-3,5.514854565E-4,-1.782911271E-2,1.791718661E-2
3.940165542E0,-8.519163821E-4,-1.590196043E-3,-1.910348982E-2,1.918848113E-2
3.950121542E0,3.326576552E-4,1.720180735E-4,-2.228090912E-2,2.228405624E-2
3.960077542E0,3.593607107E-4,-2.232585102E-4,-2.489516139E-2,2.489875590E-2
3.970033542E0,3.258049255E-4,-7.646791637E-4,-2.075820789E-2,2.077484242E-2
3.979989542E0,1.287420397E-3,-1.265012659E-3,-1.759316586E-2,1.768550800E-2
3.989945542E0,1.483428990E-3,-2.484207042E-3,-1.515717059E-2,1.543086733E-2
3.999901542E0,-4.385123029E-4,1.311628148E-3,-1.528604515E-2,1.534847998E-2
4.009857542E0,6.562401541E-5,5.116146058E-4,-1.452464797E-2,1.453380386E-2
4.019813542E0,-1.211777562E-3,1.045094803E-3,-2.065722644E-2,2.071911273E-2
4.029769542E0,-2.996450057E-4,1.915516332E-4,-2.090623230E-2,2.090925699E-2
4.039725542E0,6.429036148E-6,-8.008368313E-4,-2.131342888E-2,2.132846998E-2
4.049681542E0,-1.737675164E-3,1.251394860E-3,-1.582891494E-2,1.597310403E-2
4.059637542E0,1.826027525E-3,-1.578498632E-5,-1.470560022E-2,1.481854593E-2
4.069593542E0,-3.247413551E-4,-5.241818726E-4,-1.561267115E-2,1.562484317E-2
4.079549542E0,4.698347766E-3,-2.801492810E-4,-1.742116362E-2,1.804577228E-2
4.089505542E0,-1.608550199E-3,2.082607709E-3,-2.074532211E-2,2.091155370E-2
4.099461542E0,1.766194706E-3,2.041254193E-4,-2.204621211E-2,2.211778875E-2
4.109417542E0,5.016316660E-3,1.546092331E-3,-1.916307583E-2,1.986900374E-2
4.119373542E0,1.610561856E-3,-2.365278080E-3,-1.872476935E-2,1.894216031E-2
4.129329542E0,-3.521878971E-4,2.028937452E-3,-1.747734472E-2,1.759824429E-2
4.139285542E0,-1.054085325E-3,1.260225661E-3,-1.620084047E-2,1.628393370E-2
4.149241542E0,4.101206432E-4,1.685963944E-4,-1.791538298E-2,1.792086971E-2
4.159197542E0,1.019019168E-3,8.093472570E-4,-2.078019455E-2,2.082090124E-2
4.169153542E0,2.084017266E-3,9.002722800E-5,-2.226570621E-2,2.236320429E-2
4.179109542E0,1.764741144E-3,2.368493006E-4,-2.286406979E-2,2.293329667E-2
4.189065542E0,1.325319521E-3,3.183418885E-4,-1.909063756E-2,1.913923342E-2
4.199021542E0,9.968961822E-4,1.282342710E-3,-1.875146851E-2,1.882168367E-2
4.208977542E0,2.744195983E-3,-2.067914233E-3,-1.853202283E-2,1.884788453E-2
4.218933542E0,1.621014671E-3,1.816535369E-3,-2.085040137E-2,2.099206342E-2
4.228889542E0,1.292913221E-3,2.593379468E-3,-1.867406815E-2,1.889756765E-2
4.238845542E0,-1.284945756E-4,-9.371042252E-4,-1.859615743E-2,1.862019727E-2
4.248801542E0,-5.016033538E-4,-1.099258661E-4,-1.695671678E-2,1.696449037E-2
4.258757542E0,-8.106882451E-4,7.509421557E-4,-2.157440409E-2,2.160268598E-2
4.268713542E0,6.652356242E-4,-3.303010017E-4,-1.823133603E-2,1.824645858E-2
4.278670542E0,1.119680121E-3,8.315611631E-4,-1.739848591E-2,1.745429717E-2
4.288626542E0,7.785292109E-4,1.058494672E-4,-1.463252865E-2,1.465360729E-2
4.298582542E0,-7.200468099E-4,-6.988737732E-5,-1.825518534E-2,1.826951404E-2
4.308538542E0,6.642643129E-4,4.014922306E-4,-1.675129682E-2,1.676926916E-2
4.318494542E0,5.593901733E-4,1.021316275E-4,-2.067665011E-2,2.068446779E-2
4.328450542E0,1.031834981E-3,-1.996038482E-4,-2.079622820E-2,2.082276717E-2
4.338406542E0,2.266870579E-4,-1.114700921E-3,-1.895295084E-2,1.898705587E-2
4.348362542E0,7.907445543E-4,2.452337183E-3,-1.615317166E-2,1.635738944E-2
4.358318542E0,-2.204990014E-4,-3.187656403E-4,-1.644185372E-2,1.644642165E-2
4.368274542E0,-8.053290658E-4,1.104694791E-3,-1.480427384E-2,1.486726032E-2
4.378230542E0,2.025689930E-3,2.605162561E-3,-1.777651161E-2,1.808022834E-2
4.388186542E0,-1.189536415E-4,1.668528654E-3,-2.145220712E-2,2.151732623E-2
4.398142542E0,8.011485916E-4,8.273338899E-4,-2.108567953E-2,2.111710685E-2
4.408098542E0,5.169893266E-4,-3.499723971E-5,-2.098261565E-2,2.098901289E-2
4.418054542E0,1.142025343E-3,8.119549602E-5,-1.695035025E-2,1.698897255E-2
4.428010542E0,-1.117400476E-3,-1.102313399E-3,-1.463579945E-2,1.471972501E-2
4.437966542E0,-1.325514168E-4,-8.780667558E-4,-1.430404373E-2,1.433158184E-2
4.447922542E0,8.821129450E-4,9.129093960E-4,-1.825271361E-2,1.829680521E-2
4.457878542E0,3.598890966E-3,4.475461319E-4,-2.009937167E-2,2.042393339E-2
4.467834542E0,1.065425924E-3,-1.769652590E-4,-2.197609842E-2,2.200262145E-2
4.477790208E0,2.540702117E-4,-2.079643309E-6,-2.120545506E-2,2.120697717E-2
4.487746208E0,-3.067915095E-4,-2.532163635E-4,-1.959237829E-2,1.959641617E-2
4.497702208E0,3.916642163E-4,-2.871919423E-4,-1.577035338E-2,1.577783020E-2
4.507658208E0,-1.299176714E-3,-1.435813494E-3,-1.268747821E-2,1.283438834E-2
4.517614208E0,4.882363719E-4,-4.343623295E-4,-1.850389317E-2,1.851542891E-2
4.527570208E0,4.292828031E-3,-1.757694408E-4,-2.294977382E-2,2.334847716E-2
4.537526208E0,-2.944317646E-3,4.583355039E-4,-2.426113002E-2,2.444343486E-2
4.547482208E0,2.826219890E-3,6.945580244E-4,-2.096626721E-2,2.116729294E-2
4.557438208E0,3.702798858E-5,-1.457216218E-3,-1.863163151E-2,1.868856717E-2
4.567394208E0,1.593645662E-3,-5.501434207E-4,-1.415219530E-2,1.425226285E-2
4.577350208E0,-3.451107768E-4,-2.071016468E-3,-1.510313526E-2,1.524837386E-2
4.587306208E0,-1.808251487E-3,-1.441178843E-3,-1.628957316E-2,1.645287099E-2
4.597262208E0,3.822019789E-4,-1.749843359E-4,-1.867276244E-2,1.867749327E-2
4.607218208E0,8.722236380E-4,6.969347596E-4,-2.305313013E-2,2.308014950E-2
4.617174208E0,1.054570894E-4,1.884186640E-4,-2.240099385E-2,2.240203447E-2
4.627130208E0,-9.656662587E-4,-1.514139585E-3,-1.985820755E-2,1.993924616E-2
4.637086208E0,1.478814636E-3,-2.610193565E-3,-1.331189275E-2,1.364574995E-2
4.647042208E0,-4.415908479E-4,8.998522535E-4,-1.245968230E-2,1.249993678E-2
4.656998208E0,-1.649724320E-3,3.337708302E-3,-1.796736568E-2,1.834906310E-2
4.666954208E0,3.258085926E-4,8.915951476E-4,-2.051068470E-2,2.053263938E-2
4.676910208E0,7.970208535E-4,-1.042793505E-3,-2.143499069E-2,2.147513647E-2
4.686866208E0,1.292901346E-3,2.557800151E-3,-2.143712156E-2,2.162785510E-2
4.696822208E0,-1.115929335E-4,-1.477646641E-3,-1.663990505E-2,1.670575747E-2
4.706778208E0,-5.337039474E-4,1.583657227E-3,-1.588809304E-2,1.597574131E-2
4.716734208E0,2.300540451E-3,1.171812415E-3,-1.438538358E-2,1.461522806E-2
4.726690208E0,1.982825343E-3,-1.145670190E-3,-1.669727266E-2,1.685357739E-2
4.736646208E0,-1.439083135E-3,1.206991263E-3,-1.500543207E-2,1.512252557E-2
4.746602208E0,-2.560540335E-3,-1.529673114E-3,-1.622223109E-2,1.649415194E-2
4.756558208E0,2.552622696E-3,-8.886083961E-4,-1.927838102E-2,1.946693305E-2
4.766514208E0,-9.164108196E-4,2.122361213E-3,-2.083952352E-2,2.096735478E-2
4.776470208E0,1.046079560E-4,-1.171845943E-4,-1.832668483E-2,1.832735802E-2
4.786426208E0,-2.173992805E-3,1.744320616E-4,-1.496924087E-2,1.512728805E-2
4.796382208E0,-1.220863080E-3,2.231076360E-5,-1.328209415E-2,1.333810442E-2
4.806338208E0,1.244691317E-3,5.110008642E-4,-1.747870445E-2,1.753041607E-2
4.816294208E0,-3.385060932E-3,-1.057554036E-4,-1.719493419E-2,1.752528412E-2
4.826250208E0,-2.068447066E-4,-3.179575317E-3,-1.637414843E-2,1.668128354E-2
4.836206208E0,1.089490252E-4,-6.008520722E-5,-1.789651439E-2,1.789694687E-2
4.846162208E0,-2.323848661E-3,4.027727991E-4,-1.685255393E-2,1.701678796E-2
4.856118208E0,-1.297232229E-3,-2.926513553E-4,-1.345521957E-2,1.352077623E-2
4.866074208E0,-1.211478375E-3,-7.344698533E-4,-1.622890308E-2,1.629062372E-2
4.876030208E0,-1.934346394E-3,7.473621517E-4,-1.763506979E-2,1.775657435E-2
4.885986208E0,-1.351146493E-4,6.456291303E-4,-1.838075742E-2,1.839258917E-2
4.895942208E0,9.077522554E-4,-1.777876168E-4,-1.861165091E-2,1.863462295E-2
4.905898208E0,-1.734911348E-4,9.806873277E-4,-1.884574443E-2,1.887204096E-2
4.915854208E0,-5.009731394E-4,-4.182681441E-4,-1.844757795E-2,1.845911847E-2
4.925810208E0,-1.466102665E-3,-1.304834150E-3,-1.563874260E-2,1.576141869E-2
4.935766208E0,-4.133582115E-4,2.479813993E-3,-1.454722881E-2,1.476286587E-2
4.945722208E0,-1.106046373E-3,2.038794570E-3,-1.385214552E-2,1.404499760E-2
4.955678208E0,1.148261828E-3,3.984570503E-5,-1.483877748E-2,1.488319220E-2
4.965634208E0,1.595939277E-3,-2.257131040E-3,-1.788862795E-2,1.810095778E-2
4.975590208E0,1.300946693E-3,1.652865671E-3,-1.854464412E-2,1.866355413E-2
4.985546208E0,1.263396116E-3,-1.309368759E-3,-1.727165282E-2,1.736722797E-2
4.995502208E0,-9.919432923E-4,1.558758318E-3,-1.599900238E-2,1.610533316E-2
5.005458208E0,3.443902824E-5,1.135582104E-3,-1.618595608E-2,1.622577908E-2
5.015414208E0,1.379943918E-3,1.107929274E-3,-1.663449965E-2,1.672836905E-2
5.025370208E0,2.761325566E-3,-1.150164753E-3,-1.504619233E-2,1.534065519E-2
5.035326208E0,-2.472769935E-3,9.286571294E-4,-1.719644293E-2,1.739812187E-2
5.045282208E0,-1.568892854E-3,-7.262313738E-4,-1.911152154E-2,1.918955686E-2
5.055238208E0,-7.779235020E-4,4.205331206E-4,-1.901082322E-2,1.903137968E-2
5.065194208E0,1.145411399E-3,1.282332465E-3,-1.487600058E-2,1.497503713E-2
5.075150208E0,8.227561484E-4,1.358933747E-3,-1.379132271E-2,1.388251457E-2
5.085106208E0,-1.330524101E-4,2.374770120E-4,-1.214495674E-2,1.214800693E-2
5.095062208E0,7.573832991E-4,2.207998186E-4,-1.543983258E-2,1.545997452E-2
5.105018208E0,-1.442121342E-3,2.958263271E-3,-1.694691367E-2,1.726351409E-2
5.114974208E0,-1.469957177E-3,2.437074669E-3,-1.958407462E-2,1.978979751E-2
5.124930208E0,-1.821494428E-3,2.583814785E-3,-1.839017868E-2,1.865991995E-2
5.134886208E0,-7.327435887E-4,5.282517523E-4,-1.607812382E-2,1.610347878E-2
5.144842208E0,-1.436523744E-4,1.372955739E-5,-1.341416128E-2,1.341493747E-2
5.154798208E0,1.400530804E-3,-2.344319597E-3,-1.492308080E-2,1.517088203E-2
5.164754208E0,3.728169249E-4,1.856833696E-4,-1.473212987E-2,1.473801619E-2
5.174710208E0,-1.315985108E-3,-5.190484226E-4,-1.441156119E-2,1.448082608E-2
5.184666208E0,-1.469915733E-3,-4.415502772E-4,-1.792933047E-2,1.799490233E-2
5.194622208E0,-1.685535768E-3,1.398874447E-3,-1.916390099E-2,1.928867496E-2
5.204578208E0,-1.361695351E-3,-1.225890592E-4,-1.828292944E-2,1.833397805E-2
5.214534208E0,-3.706707852E-3,-4.204753786E-4,-1.360250264E-2,1.410477085E-2
5.224490208E0,-8.214556146E-5,1.255185343E-3,-1.435910538E-2,1.441409537E-2
5.234446208E0,-3.254221519E-5,7.343199104E-5,-1.851898991E-2,1.851916408E-2
5.244402208E0,1.116345520E-3,2.089711837E-3,-1.461319812E-2,1.480400899E-2
5.254358208E0,-9.851476643E-4,-5.378192291E-4,-1.839990914E-2,1.843411028E-2
5.264314208E0,-1.161581022E-4,1.859026030E-3,-1.563607901E-2,1.574663257E-2
5.274270208E0,-5.518868566E-4,-2.956958488E-4,-1.399759948E-2,1.401159543E-2
5.284226208E0,3.021889133E-4,3.637028858E-4,-1.554090157E-2,1.554809376E-2
5.294182208E0,-1.665829215E-3,-8.626086637E-4,-1.231588237E-2,1.245793078E-2
5.304138208E0,1.889757114E-3,1.314525492E-3,-1.429727487E-2,1.448140974E-2
5.314094208E0,8.681261097E-4,1.769836061E-3,-1.445230097E-2,1.458612237E-2
5.324050208E0,6.079353043E-4,1.259574667E-3,-1.651705056E-2,1.657615978E-2
5.334006208E0,-1.094401348E-3,1.254472882E-3,-1.495457441E-2,1.504695026E-2
5.343962208E0,-7.801483152E-4,-3.359662369E-4,-1.605978608E-2,1.608223348E-2
5.353918208E0,-3.776553785E-5,-2.021803521E-3,-1.468520239E-2,1.482377432E-2
5.363874208E0,-1.613557804E-3,5.851648748E-4,-1.469585672E-2,1.479574910E-2
5.373830208E0,-2.234844491E-3,-1.996249892E-3,-1.653646305E-2,1.680577739E-2
5.383786208E0,-9.296290809E-4,8.032647893E-4,-1.560648903E-2,1.565477386E-2
5.393743208E0,3.478023573E-4,-3.279931843E-3,-1.568574645E-2,1.602877291E-2
5.403698208E0,1.487635309E-3,-6.975699216E-5,-1.512408443E-2,1.519723181E-2
5.413655208E0,1.400520094E-3,-7.250439376E-4,-1.500737295E-2,1.509000954E-2
5.423610208E0,-9.886015905E-4,1.388707198E-3,-1.430642605E-2,1.440762531E-2
5.433567208E0,1.378473826E-4,-2.580520697E-3,-1.678638160E-2,1.698413072E-2
5.443523208E0,-5.425902200E-4,1.089048572E-3,-1.435837522E-2,1.440983587E-2
5.453479208E0,-1.003497164E-4,1.442037523E-3,-1.514418982E-2,1.521302165E-2
5.463435208E0,1.997884829E-4,-3.018006682E-4,-1.150311716E-2,1.150880982E-2
5.473391792E0,-4.602810368E-4,5.034739152E-4,-1.249780692E-2,1.251641013E-2
5.483347792E0,1.716853119E-3,-7.527386770E-4,-1.387785561E-2,1.400389505E-2
5.493303792E0,-2.951673465E-3,1.960691996E-3,-1.654637605E-2,1.692156168E-2
5.503259792E0,-9.092952241E-4,9.718602523E-4,-1.822043955E-2,1.826898321E-2
5.513215792E0,1.257017953E-3,1.061080024E-3,-1.979398727E-2,1.986222337E-2
5.523171792E0,1.267137937E-3,2.417428419E-3,-1.283754408E-2,1.312448615E-2
5.533127792E0,8.915265789E-4,-5.093375221E-4,-1.145030558E-2,1.149624905E-2
5.543083792E0,-7.801396423E-4,3.561899066E-4,-1.205830649E-2,1.208876521E-2
5.553039792E0,-1.772976946E-3,-5.893474445E-4,-1.200931147E-2,1.215377882E-2
5.562995792E0,-3.207553527E-4,-1.480707899E-3,-1.581869647E-2,1.589108360E-2
5.572951792E0,2.153996378E-3,-5.756728351E-4,-1.754126698E-2,1.768239652E-2
5.582907792E0,7.454504375E-4,1.673366874E-3,-1.769918948E-2,1.779373939E-2
5.592863792E0,-7.823122432E-4,8.178446442E-4,-1.710425690E-2,1.714165938E-2
5.602819792E0,-3.187413095E-3,1.517190598E-3,-1.528665051E-2,1.568895004E-2
5.612775792E0,1.694508130E-3,1.300675794E-3,-8.402889594E-3,8.670159679E-3
5.622731792E0,-1.651221188E-3,1.068714075E-3,-1.261600852E-2,1.276841228E-2
5.632687792E0,-1.179652172E-4,-1.377708279E-3,-1.477178559E-2,1.483636227E-2
5.642643792E0,1.339050243E-3,8.247261867E-4,-1.699019969E-2,1.706282843E-2
5.652599792E0,2.678331453E-3,-7.563121617E-4,-1.886175759E-2,1.906597406E-2
5.662555792E0,2.222131938E-3,5.718059838E-4,-1.634187438E-2,1.650217230E-2
5.672511792E0,4.147099680E-4,8.819540963E-4,-1.172563434E-2,1.176606680E-2
5.682467792E0,-1.111814054E-3,-1.462160610E-3,-1.011415571E-2,1.027960067E-2
5.692423792E0,1.616593217E-4,-1.378929242E-3,-1.165754534E-2,1.173992943E-2
5.702379792E0,1.057280460E-3,-7.956968620E-4,-1.309485175E-2,1.316153934E-2
5.712335792E0,-8.927307790E-4,7.499149069E-4,-1.395727135E-2,1.400588320E-2
5.722291792E0,-4.098996287E-4,1.264689490E-4,-1.743589528E-2,1.744117130E-2
5.732247792E0,6.339607062E-4,-1.492069103E-3,-1.657966152E-2,1.665873202E-2
5.742203792E0,2.858855296E-4,1.433679834E-3,-1.354445890E-2,1.362312502E-2
5.752159792E0,-1.208962407E-3,-3.039753065E-4,-8.280128241E-3,8.373441035E-3
5.762115792E0,-1.572799520E-4,-1.111626625E-4,-1.098243706E-2,1.098412572E-2
5.772071792E0,-2.186248312E-3,-1.170205884E-3,-9.374191985E-3,9.696625127E-3
5.782027792E0,8.324446389E-4,-8.658068255E-4,-1.676126570E-2,1.680424391E-2
5.791983792E0,1.203113701E-3,-7.245680317E-4,-1.796483248E-2,1.801964727E-2
5.801939792E0,1.424156129E-3,5.739890039E-4,-1.769664884E-2,1.776313779E-2
5.811895792E0,1.762908767E-3,-3.669168800E-4,-1.197632775E-2,1.211094140E-2
5.821851792E0,-1.362843439E-3,5.606617779E-4,-9.896399453E-3,1.000551878E-2
5.831807792E0,-5.696814042E-4,-3.272965550E-4,-8.900575340E-3,8.924791388E-3
5.841763792E0,-3.875211114E-4,-1.812275499E-3,-9.286200628E-3,9.469320841E-3
5.851719792E0,1.602368080E-3,-2.217170782E-3,-1.091232523E-2,1.124998986E-2
5.861675792E0,1.001026249E-3,-2.385483123E-3,-1.650230214E-2,1.670384863E-2
5.871631792E0,-5.454849452E-4,-1.237148419E-3,-1.570066437E-2,1.575877380E-2
5.881587792E0,-2.069612034E-3,-1.051792875E-3,-1.434059069E-2,1.452728823E-2
5.891543792E0,-1.171692507E-3,-2.685403451E-4,-1.402144320E-2,1.407287628E-2
5.901499792E0,-2.341352869E-3,-6.174147129E-4,-1.289279573E-2,1.311820551E-2
5.911455792E0,-3.696704516E-5,1.970781013E-4,-1.290216669E-2,1.290372472E-2
5.921411792E0,-4.002221976E-4,1.053550281E-3,-1.205847785E-2,1.211102944E-2
5.931367792E0,-1.333702356E-3,1.035646535E-3,-1.297700219E-2,1.308640178E-2
5.941323792E0,6.516840658E-4,-1.931647770E-3,-1.405584626E-2,1.420291411E-2
5.951279792E0,-1.250340836E-3,-1.524033956E-3,-1.339421794E-2,1.353850457E-2
5.961235792E0,3.611380234E-4,-2.071009949E-4,-1.287782937E-2,1.288455668E-2
5.971191792E0,-5.399332149E-4,1.850407571E-3,-1.416779682E-2,1.429832168E-2
5.981147792E0,-5.489879986E-4,1.310706139E-4,-1.226123795E-2,1.227422191E-2
5.991103792E0,-2.766971244E-3,9.640278295E-4,-1.271770522E-2,1.305088141E-2
6.001059792E0,-6.798520335E-4,1.046257094E-4,-1.187534630E-2,1.189525095E-2
6.011015792E0,-1.560015371E-3,2.859169617E-4,-1.337325200E-2,1.346696943E-2
6.020971792E0,-1.410612138E-3,3.780620173E-4,-1.260386780E-2,1.268819298E-2
6.030927792E0,1.346684294E-3,-1.181764528E-4,-1.283589751E-2,1.290688921E-2
6.040883792E0,-9.537541773E-4,-9.083356708E-4,-1.278689504E-2,1.285454804E-2
6.050839792E0,1.361565897E-3,2.530757338E-4,-1.276854612E-2,1.284342941E-2
6.060795792E0,-2.871971228E-4,-3.104489297E-4,-1.081964187E-2,1.082790428E-2
6.070751792E0,1.396688167E-3,1.639688388E-3,-1.052718610E-2,1.074527631E-2
6.080707792E0,9.042696911E-4,-1.002433710E-3,-1.193653047E-2,1.201263238E-2
6.090663792E0,1.922377385E-3,-7.802071050E-4,-1.357241347E-2,1.373006429E-2
6.100619792E0,-1.881778007E-4,2.475064248E-4,-1.250288635E-2,1.250675168E-2
6.110575792E0,1.958758337E-3,-1.634191722E-4,-1.572801918E-2,1.585036363E-2
6.120531792E0,-1.024248311E-3,3.152433783E-5,-1.411734149E-2,1.415448371E-2
6.130487792E0,2.577500418E-3,1.295059919E-4,-1.389431581E-2,1.413195995E-2
6.140443792E0,-3.075019340E-4,-5.908794701E-4,-1.173768938E-2,1.175657467E-2
6.150399792E0,-2.156703267E-4,1.312362961E-3,-1.123137400E-2,1.130984403E-2
6.160355792E0,3.591584973E-3,-1.467976719E-3,-1.012003608E-2,1.083833790E-2
6.170311792E0,-2.673298004E-4,1.202552579E-3,-1.045034081E-2,1.052270027E-2
6.180267792E0,-2.441268181E-3,1.719091088E-4,-1.170921698E-2,1.196223664E-2
6.190223792E0,-1.230411115E-3,-1.050593331E-3,-1.662546024E-2,1.670399910E-2
6.200179792E0,1.350191887E-3,-9.853458032E-4,-1.469227299E-2,1.478704873E-2
6.210135792E0,9.852241492E-4,9.772237390E-4,-1.451391168E-2,1.458009825E-2
6.220091792E0,1.409465680E-3,-6.267987192E-4,-1.255382411E-2,1.264823980E-2
6.230047792E0,-8.664926281E-5,-7.622716948E-4,-1.295445859E-2,1.297715546E-2
6.240003792E0,-6.893225946E-4,2.462816425E-3,-1.275072619E-2,1.300467796E-2
6.249959792E0,1.168836839E-3,-2.211732790E-4,-1.452224329E-2,1.457088355E-2
6.259915792E0,-2.349997871E-3,1.324791461E-3,-1.446471736E-2,1.471412963E-2
6.269871792E0,4.903032677E-4,-6.483644247E-4,-1.382800564E-2,1.385187763E-2
6.279827792E0,-2.647866495E-6,-3.775209188E-4,-1.423786581E-2,1.424287021E-2
6.289783792E0,4.713731760E-4,-3.736047074E-4,-1.189287752E-2,1.190807746E-2
6.299739792E0,3.720372624E-4,-3.307275474E-4,-1.164546981E-2,1.165610396E-2
6.309695792E0,1.469375798E-3,-1.418890432E-3,-1.200298779E-2,1.217555055E-2
6.319651792E0,-1.004967140E-3,-5.491012707E-4,-9.287893772E-3,9.358228565E-3
6.329607792E0,2.012331504E-3,-1.884739846E-3,-1.357536018E-2,1.385251336E-2
6.339563792E0,-2.723567653E-3,2.317462116E-3,-1.459828019E-2,1.502991138E-2
6.349519792E0,-5.474273348E-4,1.452095807E-3,-1.423507184E-2,1.431941092E-2
6.359475792E0,-2.400720958E-3,6.273156032E-4,-1.169015467E-2,1.195059422E-2
6.369431792E0,7.210389595E-4,1.063161530E-3,-1.016859151E-2,1.024941281E-2
6.379387792E0,-9.527577786E-4,-3.634942695E-4,-1.060268655E-2,1.065161197E-2
6.389343792E0,1.358472742E-3,-1.491215080E-4,-1.184535399E-2,1.192392958E-2
6.399299792E0,-1.062074327E-3,1.367548481E-3,-1.652692258E-2,1.661738129E-2
6.409255792E0,-4.677724792E-4,8.363183588E-5,-1.476209052E-2,1.476973669E-2
6.419211792E0,-2.062739804E-3,1.012542285E-3,-1.496582292E-2,1.514120184E-2
6.429167792E0,7.244739099E-4,-7.457891479E-4,-1.243601553E-2,1.247940488E-2
6.439123792E0,-7.340917364E-5,-2.382035367E-3,-1.274334453E-2,1.296427056E-2
6.449079792E0,-7.826627116E-4,2.482105047E-3,-1.184148900E-2,1.212411927E-2
6.459035792E0,1.667711767E-3,2.336163074E-3,-1.275441982E-2,1.307341368E-2
6.468991792E0,-1.483368455E-3,-5.765622482E-4,-1.379729621E-2,1.388877924E-2
6.478948167E0,3.957581357E-4,-5.097175017E-4,-1.370701753E-2,1.372219975E-2
6.488904167E0,-1.687304582E-3,-1.090871170E-3,-1.422690228E-2,1.436808077E-2
6.498860167E0,6.725222920E-4,-1.186478883E-3,-1.209424436E-2,1.217089828E-2
6.508816167E0,2.198383445E-4,5.095675588E-4,-8.474919945E-3,8.493071062E-3
6.518772167E0,-1.130650518E-3,3.479141742E-4,-1.282519475E-2,1.287963645E-2
6.528728167E0,-5.391258164E-4,-1.371672377E-3,-1.299871504E-2,1.308200040E-2
6.538684167E0,1.604866120E-4,-2.238499001E-4,-1.707042009E-2,1.707264205E-2
6.548640167E0,1.328491140E-3,4.155291244E-4,-1.449038275E-2,1.455708574E-2
6.558596167E0,-8.718125755E-4,-4.990007728E-4,-1.211723872E-2,1.215880475E-2
6.568552167E0,6.836690591E-4,1.264496706E-3,-1.147706248E-2,1.156673327E-2
6.578508167E0,1.265836065E-3,9.806035087E-4,-1.283580624E-2,1.293529458E-2
6.588464167E0,-1.993051264E-4,1.387991942E-3,-1.164642349E-2,1.173053384E-2
6.598420167E0,-9.148964891E-4,-1.100465655E-3,-1.257959381E-2,1.266073618E-2
6.608376167E0,-7.580040256E-5,5.213888362E-4,-1.227436028E-2,1.228566288E-2
6.618332167E0,-4.241418792E-4,1.348567195E-3,-1.322111301E-2,1.329647920E-2
6.628288167E0,-1.455079997E-3,7.634041831E-4,-1.370286383E-2,1.380103332E-2
6.638244167E0,1.140436740E-3,1.032915898E-3,-1.164557226E-2,1.174678103E-2
6.648200167E0,-2.147794235E-3,-1.012277789E-3,-1.008958556E-2,1.036520444E-2
6.658156167E0,6.049888907E-5,1.362728886E-3,-9.590508416E-3,9.687029566E-3
6.668112167E0,4.620156251E-4,1.664516516E-3,-1.237315685E-2,1.249316149E-2
6.678068167E0,-3.076379071E-4,1.322832890E-3,-1.341444999E-2,1.348302624E-2
6.688024167E0,3.571995767E-4,-1.454232261E-4,-1.653701067E-2,1.654150723E-2
6.697980167E0,1.340971328E-3,-1.226933673E-3,-1.587148756E-2,1.597522105E-2
6.707936167E0,2.876320505E-4,1.368848607E-4,-1.566329226E-2,1.566653102E-2
6.717892167E0,-2.199664596E-4,-2.039982937E-3,-1.353063434E-2,1.368531992E-2
6.727848167E0,2.030694159E-3,-5.934238434E-4,-1.035618037E-2,1.057006823E-2
6.737804167E0,4.557006469E-4,-5.599856377E-5,-1.046004519E-2,1.047011673E-2
6.747760167E0,1.417727210E-3,-1.977980137E-3,-1.195219904E-2,1.219743489E-2
6.757716167E0,9.127918165E-4,-1.014715061E-3,-1.453173533E-2,1.459569002E-2
6.767672167E0,8.599768043E-4,-2.220027149E-3,-1.364106312E-2,1.384726268E-2
6.777628167E0,-7.292849477E-5,4.564495757E-4,-1.523603126E-2,1.524304148E-2
6.787584167E0,2.939654747E-3,1.308028586E-3,-1.391673274E-2,1.428383559E-2
6.797540167E0,-3.880168311E-3,-1.176434569E-3,-1.153666712E-2,1.222842560E-2
6.807496167E0,1.302467426E-3,2.016625367E-3,-9.222233668E-3,9.529574654E-3
6.817452167E0,1.661727903E-3,-6.270939484E-4,-1.382337697E-2,1.393701321E-2
6.827408167E0,-2.253319370E-3,1.370249316E-3,-1.311858743E-2,1.338104509E-2
6.837364167E0,-1.170211821E-3,1.091416925E-3,-1.300194114E-2,1.310004046E-2
6.847320167E0,-1.529811416E-4,-1.512018032E-3,-1.290995814E-2,1.299910077E-2
6.857276167E0,-1.183624496E-3,-2.420688979E-3,-1.289051585E-2,1.316913440E-2
6.867232167E0,1.110605663E-4,1.845024526E-4,-1.020970009E-2,1.021197099E-2
6.877188167E0,-2.529326594E-5,-9.651845321E-4,-8.461602032E-3,8.516509254E-3
6.887144167E0,9.285623673E-5,-7.231095806E-4,-1.173001714E-2,1.175265127E-2
6.897100167E0,2.017795341E-4,-1.711674966E-3,-1.121149771E-2,1.134320180E-2
6.907056167E0,-2.012177720E-4,9.041689336E-4,-1.512159221E-2,1.514993601E-2
6.917012167E0,1.592154847E-3,4.503671080E-4,-1.277774386E-2,1.288442959E-2
6.926968167E0,-5.967263132E-5,1.337937079E-3,-1.301281527E-2,1.308155180E-2
6.936924167E0,1.562725054E-3,-1.573696733E-3,-9.829804301E-3,1.007688859E-2
6.946880167E0,-8.155502728E-4,9.628897533E-4,-8.980117738E-3,9.068340174E-3
6.956836167E0,-1.208366593E-3,1.164756715E-3,-8.912473917E-3,9.069123406E-3
6.966792167E0,1.345284982E-3,-3.752978519E-4,-1.033505797E-2,1.042900108E-2
6.976748167E0,7.593896007E-4,9.253900498E-4,-1.401820779E-2,1.406922773E-2
6.986704167E0,2.463342855E-3,3.930097446E-4,-1.330852136E-2,1.354028270E-2
6.996660167E0,7.767630741E-4,-4.376303405E-4,-1.124217361E-2,1.127747085E-2
7.006616167E0,2.030757722E-3,6.955564022E-4,-1.002594270E-2,1.025316062E-2
7.016572167E0,-5.184201291E-4,3.187743016E-3,-9.740719572E-3,1.026216755E-2
7.026528167E0,7.409212412E-4,-6.342809647E-4,-1.069253869E-2,1.073692974E-2
7.036484167E0,1.205909182E-3,2.051251009E-3,-1.340523176E-2,1.361477455E-2
7.046440167E0,5.339718191E-4,-3.246591426E-3,-1.306346618E-2,1.347143757E-2
7.056396167E0,-1.109731151E-3,4.685185850E-4,-1.425203495E-2,1.430284982E-2
7.066352167E0,1.573790796E-3,-3.311457112E-4,-1.552451216E-2,1.560759279E-2
7.076308167E0,-9.016175172E-4,-1.592951827E-3,-1.387654804E-2,1.399674945E-2
7.086264167E0,1.214678399E-3,-1.556046307E-3,-1.031335630E-2,1.050057340E-2
7.096220167E0,-1.530774403E-3,-3.975713626E-4,-8.678970858E-3,8.821897099E-3
7.106176167E0,-1.484566368E-3,9.177904576E-5,-1.244061254E-2,1.252921390E-2
7.116132167E0,2.835061750E-4,1.064365730E-3,-1.408271678E-2,1.412572695E-2
7.126088167E0,1.438751351E-3,-2.300590277E-4,-1.281088591E-2,1.289347627E-2
7.136044167E0,5.417398643E-5,5.513122305E-4,-1.488575339E-2,1.489605767E-2
7.146000167E0,-1.493905438E-3,-1.340339892E-3,-1.125913300E-2,1.143662277E-2
7.155957167E0,7.892224821E-4,2.852538601E-4,-1.081545092E-2,1.084795928E-2
7.165912167E0,-4.274388775E-4,8.867746219E-4,-8.616531268E-3,8.672582332E-3
7.175868167E0,1.930776052E-4,-4.863506183E-4,-8.159799501E-3,8.176560633E-3
7.185824167E0,-7.656439557E-4,5.824184045E-4,-1.258522831E-2,1.262194095E-2
7.195781167E0,-1.801347127E-3,2.582984976E-3,-1.565319113E-2,1.596681106E-2
7.205737167E0,-7.973354077E-4,1.301785000E-3,-1.272845455E-2,1.281967016E-2
7.215692167E0,5.704641226E-4,5.547683686E-4,-1.113828085E-2,1.116666905E-2
7.225649167E0,-1.183043700E-3,-1.293138601E-3,-9.968712926E-3,1.012161238E-2
7.235605167E0,-9.665288380E-4,2.341838554E-4,-8.506905288E-3,8.564838448E-3
7.245561167E0,2.990829526E-4,7.268954068E-4,-9.303769097E-3,9.336913138E-3
7.255517167E0,-1.086293487E-3,1.054464839E-3,-1.360610686E-2,1.369007208E-2
7.265473167E0,3.423414018E-4,-6.277561188E-4,-1.208958402E-2,1.211071085E-2
7.275429167E0,-5.354364985E-4,-4.599774256E-4,-1.579590514E-2,1.581166945E-2
7.285385167E0,4.465945822E-4,3.673182800E-4,-1.104368642E-2,1.105881455E-2
7.295341167E0,-1.157427323E-3,-9.607151151E-5,-8.073462173E-3,8.156571535E-3
7.305297167E0,9.245673427E-4,-1.590362750E-3,-6.198763847E-3,6.465968735E-3
7.315253167E0,3.892719396E-4,-1.181034371E-3,-6.510352716E-3,6.628051547E-3
7.325209167E0,3.948143567E-4,-3.283703700E-4,-1.257623360E-2,1.258671351E-2
7.335165167E0,1.192697440E-3,2.154465765E-4,-1.408464834E-2,1.413669917E-2
7.345121167E0,1.739875297E-4,-3.460543230E-4,-1.762709022E-2,1.763134523E-2
7.355077167E0,-8.603842580E-4,-1.987893134E-3,-1.402409747E-2,1.419039429E-2
7.365033167E0,-1.717910636E-4,-1.281499863E-6,-1.013569348E-2,1.013714931E-2
7.374989167E0,-1.135056373E-3,5.942014977E-4,-8.854178712E-3,8.946390839E-3
7.384945167E0,1.917571761E-3,-1.448867843E-3,-7.797842845E-3,8.159819393E-3
7.394901167E0,-1.275292132E-3,1.024409197E-3,-9.301729500E-3,9.444466947E-3
7.404857167E0,7.862938219E-4,-1.305549406E-3,-1.257117465E-2,1.266322034E-2
7.414813167E0,-2.488595434E-3,-1.832926646E-4,-1.336719468E-2,1.359811006E-2
7.424769167E0,1.931936480E-3,-1.414502040E-4,-1.490083709E-2,1.502622151E-2
7.434725167E0,1.538587501E-3,-5.638273433E-4,-1.391892880E-2,1.401505376E-2
7.444681167E0,2.356935991E-3,1.000021584E-3,-1.171760820E-2,1.199406238E-2
7.454637167E0,-1.515832962E-3,8.029481396E-4,-8.857375011E-3,9.021949200E-3
7.464593167E0,1.910558203E-3,-2.689957619E-4,-8.348323405E-3,8.568377620E-3
7.474548833E0,-5.765677779E-4,1.315437257E-4,-1.064609922E-2,1.066251203E-2
7.484504833E0,2.109522466E-4,9.778607637E-5,-1.348197460E-2,1.348397946E-2
7.494460833E0,2.563855145E-3,-1.189852133E-3,-1.533207297E-2,1.559043178E-2
7.504416833E0,8.678536979E-4,-1.475028694E-5,-1.432604343E-2,1.435231368E-2
7.514372833E0,-1.620071474E-3,2.040411346E-3,-1.084901765E-2,1.115746808E-2
7.524328833E0,4.722813610E-4,7.856944576E-4,-1.045930944E-2,1.049940567E-2
7.534284833E0,7.950564614E-4,1.337767579E-3,-9.951444343E-3,1.007238707E-2
7.544240833E0,9.632636793E-4,-3.268977627E-3,-1.019031182E-2,1.074507081E-2
7.554196833E0,5.619099829E-5,-2.745194361E-4,-1.360315457E-2,1.360604030E-2
7.564152833E0,-2.217998845E-4,-9.755417705E-5,-1.319822669E-2,1.320045074E-2
7.574108833E0,2.621923573E-3,6.425380707E-4,-1.382620260E-2,1.408727145E-2
7.584064833E0,4.845350340E-4,6.740177050E-4,-1.369020343E-2,1.371534702E-2
7.594020833E0,5.588372005E-4,-2.301251516E-4,-1.074448228E-2,1.076146626E-2
7.603976833E0,5.706743686E-4,-4.373639822E-4,-9.859880432E-3,9.886060825E-3
7.613932833E0,-2.657343168E-3,1.379976980E-3,-1.037307270E-2,1.079659420E-2
7.623888833E0,-9.117471054E-4,5.194451660E-5,-1.095446572E-2,1.099246561E-2
7.633844833E0,-1.367680379E-3,-1.384564675E-3,-1.177711785E-2,1.193683684E-2
7.643800833E0,1.856101444E-3,3.468208015E-4,-1.190884784E-2,1.205761395E-2
7.653756833E0,-1.711202785E-3,-1.966134645E-3,-9.523987770E-3,9.874221157E-3
7.663712833E0,4.602301924E-4,2.780733630E-4,-1.140328124E-2,1.141595198E-2
7.673668833E0,1.093796222E-3,1.897275448E-3,-8.732665330E-3,9.003082143E-3
7.683624833E0,5.038431846E-5,-9.310301393E-4,-8.470706642E-3,8.521867560E-3
7.693580833E0,-4.425668158E-4,2.486604266E-3,-1.098206639E-2,1.126875541E-2
7.703536833E0,1.640572678E-3,-6.652073935E-4,-1.168114692E-2,1.181453228E-2
7.713492833E0,7.271084469E-4,1.375839114E-3,-1.276345551E-2,1.285797093E-2
7.723448833E0,2.841891255E-4,2.179497853E-3,-1.333736628E-2,1.351725984E-2
7.733404833E0,-1.938485191E-3,3.892177250E-3,-8.824106306E-3,9.837256766E-3
7.743360833E0,-5.304309307E-4,1.996279694E-3,-8.251117542E-3,8.505729263E-3
7.753316833E0,5.888956366E-4,-3.262627870E-4,-1.158566214E-2,1.160520628E-2
7.763272833E0,-2.486908343E-3,3.835093230E-4,-1.240216196E-2,1.265485732E-2
7.773228833E0,-6.815515808E-4,-1.004530117E-3,-1.273745298E-2,1.279516713E-2
7.783184833E0,6.905206828E-4,-1.503548585E-3,-1.089875959E-2,1.102363088E-2
7.793140833E0,-4.692859366E-4,6.056753919E-4,-1.060581394E-2,1.063345481E-2
7.803096833E0,-4.762627068E-4,-2.054486424E-3,-1.028061472E-2,1.049470246E-2
7.813052833E0,-1.250177389E-3,-1.577780582E-3,-1.123456098E-2,1.141348744E-2
7.823008833E0,-4.015034647E-4,-1.484127715E-4,-1.236843877E-2,1.237584376E-2
7.832964833E0,-1.555717317E-3,1.693695784E-3,-1.115776412E-2,1.139230275E-2
7.842920833E0,-8.242571494E-5,-5.511697382E-4,-9.308170527E-3,9.324838907E-3
7.852876833E0,-3.688567085E-5,-7.218783721E-4,-9.719360620E-3,9.746201301E-3
7.862832833E0,3.977131855E-4,-2.493403852E-3,-7.714152336E-3,8.116858063E-3
7.872788833E0,-1.166361268E-3,-2.458516508E-3,-1.154697314E-2,1.186327487E-2
7.882744833E0,-2.263955306E-3,-4.965532571E-5,-1.383167133E-2,1.401581574E-2
7.892700833E0,1.407478587E-3,6.369072944E-4,-1.328465715E-2,1.337418268E-2
7.902656833E0,9.715168271E-4,4.799738526E-4,-1.099983603E-2,1.105308158E-2
7.912612833E0,-1.996309729E-3,-1.153609715E-3,-1.039183885E-2,1.064454708E-2
7.922568833E0,-4.614807549E-4,-6.880676374E-4,-8.331550285E-3,8.372641860E-3
7.932524833E0,5.305467639E-4,1.254708506E-3,-4.261175171E-3,4.473632432E-3
7.942480833E0,-2.195039298E-3,9.156838059E-4,-6.502790377E-3,6.924085285E-3
7.952436833E0,-4.437447060E-4,2.621438354E-3,-1.207305863E-2,1.236234578E-2
7.962392833E0,4.520516377E-4,2.102097496E-3,-1.365955360E-2,1.382774635E-2
7.972348833E0,1.198802027E-3,6.096623838E-4,-1.403772272E-2,1.410200247E-2
7.982304833E0,-8.893955965E-6,1.413868740E-3,-1.026725024E-2,1.036414644E-2
7.992260833E0,-3.668228164E-4,2.072468400E-3,-7.339637727E-3,7.635441454E-3
8.002216833E0,-1.152773621E-3,2.166614868E-3,-8.964246139E-3,9.294128030E-3
8.012172833E0,-1.203906257E-3,3.447063267E-3,-9.701142088E-3,1.036550979E-2
8.022128833E0,4.935634206E-4,-9.981235489E-4,-1.152108237E-2,1.157476542E-2
8.032084833E0,2.165127080E-5,-1.408782788E-3,-1.403190941E-2,1.410246855E-2
8.042040833E0,-1.369014848E-3,1.223782077E-3,-1.344106160E-2,1.356591247E-2
8.051996833E0,-1.062751282E-3,-1.691047102E-3,-1.040212996E-2,1.059213804E-2
8.061952833E0,5.259653553E-4,-5.785468966E-5,-7.351608947E-3,7.370626895E-3
8.071908833E0,-5.329074920E-4,-2.160419710E-3,-6.852531806E-3,7.204762027E-3
8.081864833E0,2.172044478E-3,-4.718741402E-4,-9.369749576E-3,9.629779309E-3
8.091820833E0,6.010458455E-4,-2.418911085E-3,-1.346009970E-2,1.368892511E-2
8.101776833E0,-1.970658312E-3,1.080834307E-3,-1.299447194E-2,1.318741817E-2
8.111732833E0,1.201893319E-4,1.413462684E-3,-1.077339426E-2,1.086638606E-2
8.121688833E0,2.057600534E-3,2.107555047E-4,-8.324200287E-3,8.577321742E-3
8.131644833E0,1.042871736E-5,-1.081917435E-5,-6.594477221E-3,6.594494343E-3
8.141600833E0,3.402399598E-4,-1.625738107E-3,-5.834819749E-3,6.066622547E-3
8.151556833E0,-7.386065554E-4,-1.064610668E-3,-9.453788400E-3,9.542172217E-3
8.161512833E0,-4.988460569E-5,-3.658548929E-3,-1.254685223E-2,1.306946708E-2
8.171468833E0,-1.686142059E-5,1.098123379E-3,-1.685744524E-2,1.689318263E-2
8.181424833E0,1.514814212E-4,-1.431275159E-4,-1.422652975E-2,1.422805611E-2
8.191380833E0,5.083449651E-4,-2.786824480E-4,-1.089038700E-2,1.090580614E-2
8.201336833E0,1.331611071E-3,-6.487593055E-4,-6.999513134E-3,7.154527294E-3
8.211292833E0,4.703447921E-4,-1.215213910E-3,-6.910031661E-3,7.031821004E-3
8.221248833E0,-1.014316687E-3,-1.120463945E-3,-6.421558559E-3,6.597021458E-3
8.231204833E0,2.386007225E-3,-1.466942020E-3,-9.655434638E-3,1.005347539E-2
8.241160833E0,-2.425262239E-3,7.189428434E-4,-1.076868549E-2,1.106179745E-2
8.251116833E0,1.731840894E-4,1.555974595E-3,-9.657081217E-3,9.783162438E-3
8.261072833E0,-2.375489566E-4,-1.797736622E-3,-1.382930018E-2,1.394768188E-2
8.271028833E0,-9.086655919E-4,-1.399327070E-3,-9.756529704E-3,9.898164540E-3
8.280984833E0,4.194648063E-4,-2.411160618E-3,-1.110363565E-2,1.137015264E-2
8.290940833E0,1.490854425E-3,5.966136232E-4,-8.014367893E-3,8.173658144E-3
8.300896833E0,-2.595886588E-3,-1.893748529E-3,-8.711561561E-3,9.285268736E-3
8.310852833E0,-1.101853442E-3,1.268755645E-3,-7.263336331E-3,7.455191248E-3
8.320808833E0,2.652908443E-3,1.182509586E-4,-8.543659002E-3,8.946843892E-3
8.330764833E0,-9.618001059E-4,8.823126554E-4,-1.152693108E-2,1.160058943E-2
8.340720833E0,1.489124377E-3,1.984920353E-3,-1.139007136E-2,1.165723491E-2
8.350676833E0,1.314448309E-4,4.163179547E-4,-1.254402101E-2,1.255161589E-2
8.360632833E0,-9.251834126E-5,-9.566228837E-4,-1.312323287E-2,1.315837862E-2
8.370588833E0,1.346653909E-3,1.302802935E-3,-9.334888309E-3,9.521077249E-3
8.380544833E0,1.180152409E-3,-8.934261277E-4,-9.599242359E-3,9.712693953E-3
8.390500833E0,-2.538419329E-3,6.264820695E-5,-9.391248226E-3,9.728465487E-3
8.400456833E0,9.822887369E-4,-1.489771530E-3,-1.212035492E-2,1.225101277E-2
8.410412833E0,2.374026226E-4,-4.862919450E-4,-9.913127869E-3,9.927887188E-3
8.420368833E0,9.825314628E-4,3.366088495E-4,-8.559519425E-3,8.622299367E-3
8.430324833E0,3.431064542E-4,4.745610058E-4,-6.682522595E-3,6.708132260E-3
8.440280833E0,6.742255646E-4,-1.056141220E-3,-8.459426463E-3,8.551719737E-3
8.450236833E0,-3.401724971E-4,-1.497959718E-3,-1.199610531E-2,1.209405405E-2
8.460192833E0,2.695859876E-4,1.230553724E-3,-1.109235734E-2,1.116366115E-2
8.470148833E0,-1.673190156E-3,-7.753390819E-4,-1.449534297E-2,1.461217588E-2
8.480104792E0,2.337093465E-3,-5.506873131E-4,-1.209968328E-2,1.233562313E-2
8.490060792E0,6.115599535E-5,-2.359012142E-4,-1.093854755E-2,1.094126190E-2
8.500016792E0,2.651200048E-4,-2.843225375E-4,-1.222751662E-2,1.223369489E-2
8.509972792E0,1.338261645E-4,-1.658117399E-4,-6.187733263E-3,6.191400965E-3
8.519928792E0,7.440487971E-4,-5.951886997E-4,-6.736584008E-3,6.803633022E-3
8.529884792E0,2.140797442E-4,2.048531547E-3,-7.388258353E-3,7.669985210E-3
8.539840792E0,-3.689723671E-4,-6.561838090E-4,-1.085383259E-2,1.087990807E-2
8.549796792E0,1.085379859E-3,-4.955949262E-4,-1.135583781E-2,1.141834997E-2
8.559752792E0,2.724953229E-4,1.806422137E-3,-1.028089225E-2,1.044194236E-2
8.569708792E0,2.244033385E-3,-5.984120071E-4,-9.344257414E-3,9.628547626E-3
8.579664792E0,8.310319390E-5,-4.779156297E-4,-7.844325155E-3,7.859309552E-3
8.589620792E0,8.002039976E-6,-1.099497080E-3,-1.001000777E-2,1.007021417E-2
8.599576792E0,2.443526406E-3,-1.114336774E-4,-1.017216966E-2,1.046213526E-2
8.609532792E0,-2.421003534E-3,-1.110651530E-3,-1.276449114E-2,1.303944167E-2
8.619488792E0,1.501011779E-3,2.136689611E-3,-1.546541974E-2,1.568431339E-2
8.629444792E0,-3.299114178E-4,-6.140898913E-4,-1.081607491E-2,1.083851578E-2
8.639400792E0,1.068250043E-3,-9.442754090E-4,-8.345795795E-3,8.466706660E-3
8.649356792E0,1.070380560E-3,-8.004652336E-4,-6.045091897E-3,6.191089983E-3
8.659312792E0,-1.123978291E-5,-2.494595945E-3,-8.092796430E-3,8.468558869E-3
8.669268792E0,2.388002118E-3,-8.245278150E-4,-1.156129502E-2,1.183410084E-2
8.679224792E0,7.666470483E-4,-4.049893469E-4,-1.410887577E-2,1.413549219E-2
8.689180792E0,2.632990247E-3,2.237828448E-4,-1.316505112E-2,1.342763149E-2
8.699136792E0,-1.821899787E-8,4.538679495E-4,-1.043836400E-2,1.044822660E-2
8.709092792E0,-1.057456830E-4,2.226468176E-3,-9.626366198E-3,9.881056060E-3
8.719048792E0,1.910343533E-3,1.607984304E-4,-7.088687271E-3,7.343347723E-3
8.729004792E0,6.107209483E-4,1.240443438E-3,-7.516659796E-3,7.642764846E-3
8.738960792E0,-1.390972640E-3,-4.534795880E-5,-1.010094211E-2,1.019636664E-2
8.748916792E0,1.338500995E-3,1.413531601E-3,-1.137712970E-2,1.154247533E-2
8.758872792E0,5.756225437E-4,2.257042564E-3,-1.151849329E-2,1.175164968E-2
8.768828792E0,-9.256014018E-4,1.333458349E-3,-1.075576618E-2,1.087756201E-2
8.778784792E0,-2.602799213E-4,-5.270559341E-4,-8.843149990E-3,8.862665250E-3
8.788740792E0,1.341342577E-4,-1.268479973E-3,-1.049697399E-2,1.057419011E-2
8.798696792E0,1.057819813E-3,5.664220080E-4,-9.701151401E-3,9.775078268E-3
8.808652792E0,2.942915889E-4,1.254016533E-4,-8.316043764E-3,8.322194242E-3
8.818608792E0,-1.322543714E-3,1.490368508E-3,-7.364448160E-3,7.629247464E-3
8.828564792E0,-9.603537037E-4,1.235237345E-3,-8.429445326E-3,8.573426330E-3
8.838520792E0,9.915675037E-4,8.757654577E-4,-1.049668714E-2,1.057972647E-2
8.848476792E0,-2.486787271E-3,2.217466012E-3,-1.227940619E-2,1.272340689E-2
8.858432792E0,1.138649182E-3,-1.521670260E-3,-1.044794731E-2,1.061939760E-2
8.868388792E0,2.544796444E-4,7.651867345E-4,-1.025513373E-2,1.028678951E-2
8.878344792E0,1.581434975E-3,-3.952886909E-4,-7.115557790E-3,7.299887149E-3
8.888300792E0,1.505184919E-4,4.995334893E-4,-8.288417011E-3,8.304820653E-3
8.898256792E0,-1.256150194E-3,2.061524428E-3,-1.189346611E-2,1.213599326E-2
8.908212792E0,-8.031465695E-4,-2.618171275E-4,-1.240985468E-2,1.243857250E-2
8.918168792E0,-5.613463582E-4,-5.854209885E-4,-1.193680428E-2,1.196432714E-2
8.928124792E0,6.778225070E-4,2.091055736E-3,-9.939430282E-3,1.017959880E-2
8.938080792E0,-3.616142785E-4,-6.364611909E-4,-9.901635349E-3,9.928657025E-3
8.948036792E0,-1.829161774E-4,5.915220827E-4,-7.390007377E-3,7.415899523E-3
8.957992792E0,-1.963048941E-3,-2.357931808E-4,-6.966801360E-3,7.241925211E-3
8.967948792E0,-5.145557807E-4,2.872524783E-4,-1.064595953E-2,1.066225754E-2
8.977904792E0,3.280437086E-4,-1.745913178E-4,-9.784609079E-3,9.791663272E-3
8.987860792E0,2.247916535E-3,1.709908247E-6,-1.262247190E-2,1.282107361E-2
8.997816792E0,3.790234332E-4,-6.450284272E-4,-9.217821062E-3,9.248132004E-3
9.007772792E0,-2.642865526E-3,-1.659253612E-4,-8.974939585E-3,9.357446765E-3
9.017728792E0,2.198685426E-3,2.190032974E-4,-8.592877537E-3,8.872413675E-3
9.027684792E0,-4.554209299E-4,-2.534172498E-3,-9.658142924E-3,9.995457129E-3
9.037640792E0,-7.246503374E-4,1.313640736E-3,-8.952684700E-3,9.077518022E-3
9.047596792E0,-3.331657499E-4,-1.436416060E-4,-1.002513990E-2,1.003170286E-2
9.057552792E0,1.032743021E-4,1.879530028E-4,-7.719818503E-3,7.722796749E-3
9.067508792E0,1.144596026E-4,1.203150488E-3,-8.392266929E-3,8.478845223E-3
9.077464792E0,1.745704678E-3,-1.597087830E-4,-8.267335594E-3,8.451143682E-3
9.087420792E0,-4.522021627E-4,-1.499811187E-3,-9.683605283E-3,9.809491918E-3
9.097376792E0,2.003260190E-3,1.847541891E-3,-7.794355974E-3,8.257024129E-3
9.107332792E0,2.406462794E-3,-1.766633242E-3,-9.144047275E-3,9.619025770E-3
9.117288792E0,-7.418775931E-5,-4.432629794E-5,-1.011667959E-2,1.011704871E-2
9.127244792E0,1.576972078E-3,1.133590005E-3,-6.805306301E-3,7.077009331E-3
9.137200792E0,-3.646948608E-5,-1.475660130E-3,-8.685955778E-3,8.810489806E-3
9.147156792E0,-7.049228880E-4,1.038630493E-3,-7.988205180E-3,8.086228513E-3
9.157112792E0,2.577268751E-4,-2.373775467E-3,-8.271114901E-3,8.608866058E-3
9.167068792E0,-1.196359051E-3,-1.686774194E-4,-8.896159008E-3,8.977826694E-3
9.177024792E0,1.213953947E-4,-4.444578663E-4,-8.003802970E-3,8.017053176E-3
9.186980792E0,9.786669398E-4,1.685804687E-3,-9.466679767E-3,9.665285936E-3
9.196936792E0,4.342028697E-4,1.283377409E-3,-6.242515519E-3,6.387847033E-3
9.206892792E0,2.051807009E-3,1.005875878E-3,-7.929094136E-3,8.251801749E-3
9.216848792E0,3.394179221E-4,4.100706428E-4,-9.981123731E-3,9.995308569E-3
9.226804792E0,2.338652965E-3,-1.480774023E-3,-1.136516966E-2,1.169739590E-2
9.236760792E0,7.435136358E-4,-6.246324629E-4,-1.125945523E-2,1.130125260E-2
9.246716792E0,1.339160372E-4,-1.101871021E-3,-1.094280556E-2,1.099895662E-2
9.256672792E0,-3.240163904E-3,1.725700684E-3,-1.189441606E-2,1.244804557E-2
9.266628792E0,-1.257440425E-3,5.483347923E-5,-9.203825146E-3,9.289486555E-3
9.276584792E0,2.119747456E-3,-4.486292601E-4,-1.055571064E-2,1.077578882E-2
9.286540792E0,-1.770331990E-3,2.951910719E-4,-7.837954909E-3,8.040817761E-3
9.296496792E0,-4.335878184E-4,-2.068530768E-3,-1.001090370E-2,1.023156932E-2
9.306452792E0,2.226150245E-4,6.798515096E-4,-9.201833978E-3,9.229599346E-3
9.316408792E0,-2.885701833E-4,4.932750016E-4,-9.733490646E-3,9.750252978E-3
9.326364792E0,1.524492400E-4,-1.416477375E-3,-9.709790349E-3,9.813749413E-3
9.336320792E0,-2.344425069E-3,1.551918685E-4,-8.809691295E-3,9.117624369E-3
9.346276792E0,5.490994081E-4,-8.717225865E-4,-8.658422157E-3,8.719500254E-3
9.356232792E0,-1.386612654E-3,1.965956762E-3,-9.201195091E-3,9.510503233E-3
9.366188792E0,1.534075942E-3,2.179807983E-3,-7.849905640E-3,8.290112810E-3
9.376144792E0,-2.255090047E-3,-2.604011446E-3,-8.809704334E-3,9.459238721E-3
9.386100792E0,1.139907865E-3,-1.323297620E-3,-8.602511138E-3,8.778023947E-3
9.396056792E0,-3.616173053E-4,-1.054570079E-3,-8.453842252E-3,8.527035473E-3
9.406012792E0,-3.424425377E-4,-3.895787522E-4,-1.127758995E-2,1.128951166E-2
9.415968792E0,-5.468417658E-4,5.185930058E-4,-8.264223114E-3,8.298515427E-3
9.425924792E0,4.140267847E-4,2.058129758E-5,-8.592592552E-3,8.602586154E-3
9.435880792E0,-3.096527653E-4,-1.594251022E-3,-7.657719776E-3,7.828038919E-3
9.445836792E0,1.012606779E-3,-2.717838623E-3,-6.392451003E-3,7.019647363E-3
9.455792792E0,3.486156347E-4,2.263608389E-3,-1.004848070E-2,1.030618359E-2
9.465748792E0,4.277115513E-4,1.205001958E-3,-1.371006109E-2,1.376955852E-2
9.475704042E0,-9.760519024E-4,-6.639743224E-4,-9.121302515E-3,9.197374560E-3
9.485660042E0,-1.201355248E-3,-7.239170372E-6,-7.681332529E-3,7.774713902E-3
9.495616042E0,-3.756165504E-3,-1.554288901E-3,-3.916718066E-3,5.644933453E-3
9.505572042E0,-8.906043950E-4,-6.200512871E-4,-7.843017578E-3,7.917737336E-3
9.515528042E0,-5.959459813E-4,-1.248114742E-3,-8.184716105E-3,8.300754168E-3
9.525484042E0,-8.835673798E-4,-1.658241265E-3,-1.170035452E-2,1.185026376E-2
9.535440042E0,2.751144930E-4,-4.748031497E-4,-1.055059209E-2,1.056485303E-2
9.545396042E0,1.177659724E-3,2.236828208E-3,-8.387308568E-3,8.759978760E-3
9.555352042E0,-1.671179780E-3,-1.790517010E-3,-6.477780640E-3,6.925347287E-3
9.565308042E0,-1.395009807E-3,-1.537516713E-3,-6.199479103E-3,6.537855241E-3
9.575264042E0,-7.020127377E-4,-2.573962323E-3,-4.859851673E-3,5.544029420E-3
9.585220042E0,1.098550390E-3,-4.367753863E-4,-6.399955601E-3,6.508226900E-3
9.595176042E0,-5.068597966E-4,1.701680943E-3,-7.845336571E-3,8.043751041E-3
9.605132042E0,2.854306367E-4,1.008725725E-3,-1.189600118E-2,1.194210376E-2
9.615088042E0,1.349956146E-3,7.442729548E-4,-5.673125386E-3,5.878832833E-3
9.625044042E0,1.545964740E-3,-1.467748545E-3,-8.121900260E-3,8.396996880E-3
9.635000042E0,-1.087239827E-3,1.678789966E-3,-9.031619877E-3,9.250436951E-3
9.644956042E0,2.425735816E-3,9.938254952E-4,-8.052643389E-3,8.468586004E-3
9.654912042E0,-2.077889629E-3,-8.039241657E-4,-5.073269829E-3,5.540937297E-3
9.664868042E0,1.910992898E-3,-5.682343617E-4,-5.709234625E-3,6.047325372E-3
9.674824042E0,5.617596908E-4,3.981180489E-4,-6.292790174E-3,6.330345971E-3
9.684780042E0,-3.052729880E-5,1.162977889E-3,-5.864817649E-3,5.979091532E-3
9.694736042E0,1.868264517E-4,-1.022795215E-3,-7.453221828E-3,7.525392335E-3
9.704692042E0,6.165792001E-5,5.175769329E-4,-9.184010327E-3,9.198789772E-3
9.714648042E0,1.263655140E-3,-1.405272633E-4,-1.038552076E-2,1.046305948E-2
9.724604042E0,-1.236786717E-3,3.209989518E-4,-1.050243154E-2,1.057987476E-2
9.734560042E0,1.595195848E-3,-2.063345164E-4,-8.465168998E-3,8.616629845E-3
9.744516042E0,-1.528692199E-3,-1.977602951E-3,-8.783416823E-3,9.132153325E-3
9.754472042E0,1.465471811E-3,-1.772306859E-5,-1.041229814E-2,1.051493577E-2
9.764428042E0,9.813091019E-4,-8.329162374E-4,-1.130046323E-2,1.137353007E-2
9.774384042E0,2.695034258E-3,-1.313508488E-3,-6.715139374E-3,7.354020058E-3
9.784340042E0,-4.994276096E-4,-2.991100773E-4,-6.154010072E-3,6.181483216E-3
9.794296042E0,1.644736622E-3,5.307048559E-5,-6.408700719E-3,6.616601843E-3
9.804252042E0,-1.217381214E-4,3.034081310E-4,-8.360529318E-3,8.366918617E-3
9.814208042E0,6.460300065E-4,-9.736111388E-4,-1.008399576E-2,1.015146511E-2
9.824164042E0,-1.345425262E-4,2.231236547E-3,-6.589394063E-3,6.958206115E-3
9.834120042E0,-2.191218548E-3,-1.816498116E-4,-8.084433153E-3,8.378096131E-3
9.844076042E0,-2.425834537E-4,-2.807192504E-4,-8.689502254E-3,8.697419126E-3
9.854032042E0,-1.127661904E-3,-5.329875275E-4,-1.053061709E-2,1.060422526E-2
9.863988042E0,-1.657282119E-4,2.023112029E-4,-1.040970907E-2,1.041299373E-2
9.873944042E0,-2.247944358E-4,-4.132762551E-4,-9.546410292E-3,9.557995568E-3
9.883900042E0,-1.125209266E-3,-5.348306149E-5,-6.338100880E-3,6.437427988E-3
9.893856042E0,3.056036308E-3,-2.760670148E-3,-6.226995960E-3,7.465663820E-3
9.903812042E0,-1.320337178E-4,-4.407912493E-4,-6.689054891E-3,6.704862800E-3
9.913768042E0,-2.611249220E-3,-5.541229621E-4,-5.950396881E-3,6.521725062E-3
9.923724042E0,4.750882217E-4,-6.180396304E-4,-7.847895846E-3,7.886517039E-3
9.933680042E0,3.462739522E-3,1.162628643E-3,-8.270043880E-3,9.040790681E-3
9.943636042E0,1.441400382E-3,-1.697503030E-4,-1.053746045E-2,1.063694143E-2
9.953592042E0,6.149844849E-4,-1.445780508E-3,-1.296677813E-2,1.306161637E-2
9.963548042E0,-1.151490258E-3,1.026165672E-3,-8.624758571E-3,8.761586969E-3
9.973504042E0,-1.055141678E-3,1.341106370E-3,-5.849372596E-3,6.093197028E-3
9.983460042E0,7.909868145E-5,1.190370880E-3,-6.203040481E-3,6.316719927E-3
9.993416042E0,-2.434095368E-4,-1.522020437E-3,-9.406611323E-3,9.532058067E-3
1.000337204E1,2.231762628E-4,-1.758509316E-3,-9.254280478E-3,9.422519293E-3
1.001332804E1,2.812337596E-3,2.474668436E-3,-1.100763492E-2,1.162760737E-2
1.002328404E1,-8.529708139E-4,1.203808002E-3,-9.198816493E-3,9.316380080E-3
1.003324004E1,6.696081255E-5,1.122463495E-3,-7.169995457E-3,7.257633423E-3
1.004319604E1,2.624927089E-3,-6.543975323E-4,-7.073856890E-3,7.573501809E-3
1.005315204E1,4.099471844E-4,9.426586330E-4,-5.469523370E-3,5.565280576E-3
1.006310804E1,4.607088864E-3,-7.058372721E-4,-8.352130651E-3,9.564599337E-3
1.007306404E1,-1.522010192E-3,1.809345558E-4,-1.025013998E-2,1.036410257E-2
1.008302004E1,-4.448840627E-5,1.151923090E-3,-9.296461940E-3,9.367663029E-3
1.009297604E1,2.310662065E-3,4.558032379E-4,-6.627032533E-3,7.033098603E-3
1.010293204E1,-9.067025967E-4,-3.375522792E-4,-7.118118927E-3,7.183569322E-3
1.011288804E1,-7.035630988E-4,-1.034441404E-3,-8.206566796E-3,8.301373900E-3
1.012284404E1,7.427997189E-4,-1.185797155E-4,-8.445987478E-3,8.479417259E-3
1.013280004E1,-1.036063535E-3,3.971345723E-4,-8.486768231E-3,8.558994013E-3
1.014275604E1,-2.946394961E-4,-8.518882096E-4,-1.186152734E-2,1.189572851E-2
1.015271204E1,-2.592161763E-6,-1.480337232E-5,-9.033521637E-3,9.033534138E-3
1.016266804E1,1.373729436E-3,-6.273305044E-4,-7.880108431E-3,8.023514505E-3
1.017262504E1,-3.810040653E-5,2.228356898E-4,-6.622936577E-3,6.626793816E-3
1.018258104E1,3.207227681E-3,7.528048009E-4,-7.955584675E-3,8.610711468E-3
1.019253704E1,1.972686499E-3,9.396849200E-4,-7.918184623E-3,8.214143138E-3
1.020249304E1,-4.812015686E-5,-6.778817624E-5,-1.016163267E-2,1.016197271E-2
1.021244904E1,1.467658090E-3,-1.300643198E-3,-8.810987696E-3,9.026582807E-3
1.022240504E1,3.063956974E-3,2.666274086E-4,-8.300991729E-3,8.852422617E-3
1.023236104E1,-1.023927005E-3,-3.325752914E-4,-6.010122597E-3,6.105784673E-3
1.024231704E1,6.183807272E-6,-1.115544699E-3,-7.496699691E-3,7.579246959E-3
1.025227304E1,-7.950303261E-4,-1.009294763E-3,-6.383879110E-3,6.511886181E-3
1.026222904E1,1.677981112E-3,-9.645530954E-4,-8.005211130E-3,8.235859914E-3
1.027218504E1,-1.885807840E-3,3.456044942E-4,-7.627323270E-3,7.864589877E-3
1.028214104E1,1.021565171E-3,-6.887670606E-4,-5.770567805E-3,5.900631174E-3
1.029209704E1,-1.285449369E-3,-4.301266745E-4,-8.191652596E-3,8.303045302E-3
1.030205304E1,1.009130268E-3,-9.137298912E-5,-7.957562804E-3,8.021813929E-3
1.031200904E1,-9.605521336E-5,3.088070080E-4,-5.828540772E-3,5.837505966E-3
1.032196504E1,-4.489240237E-4,-1.297611743E-3,-6.012033671E-3,6.166836943E-3
1.033192104E1,1.234200201E-3,-1.340443268E-3,-7.287535816E-3,7.511871709E-3
1.034187704E1,-6.031146622E-4,-1.462819055E-4,-9.228713810E-3,9.249556978E-3
1.035183304E1,2.372920280E-4,2.378830686E-3,-6.838325411E-3,7.244158845E-3
1.036178904E1,1.106547774E-3,-1.674173400E-4,-8.496407419E-3,8.569796706E-3
1.037174504E1,1.290091313E-5,2.379978076E-3,-9.857418016E-3,1.014066822E-2
1.038170104E1,-1.479540369E-4,-1.329807565E-4,-5.510075018E-3,5.513664932E-3
1.039165704E1,-2.607123693E-3,-9.023193270E-4,-3.137780353E-3,4.178150269E-3
1.040161304E1,1.024096389E-3,3.767963499E-4,-7.335986942E-3,7.416700973E-3
1.041156904E1,-4.449385451E-4,-2.073217183E-5,-6.720414385E-3,6.735159214E-3
1.042152504E1,-4.396121949E-4,-2.539017238E-3,-6.769681349E-3,7.243511095E-3
1.043148104E1,1.761655090E-3,-2.756314352E-3,-5.425229669E-3,6.335125446E-3
1.044143704E1,1.121164882E-3,-1.309152693E-3,-5.331221968E-3,5.602929514E-3
1.045139304E1,1.404451905E-5,2.893060446E-4,-8.191656321E-3,8.196775495E-3
1.046134904E1,1.668932848E-3,6.408439949E-4,-8.372217417E-3,8.560960364E-3
1.047130504E1,2.290478908E-3,1.602778211E-3,-9.813284501E-3,1.020371228E-2
1.048126179E1,-1.300793723E-3,2.356186509E-3,-8.950954303E-3,9.346831662E-3
1.049121779E1,-3.407186596E-3,5.920752883E-4,-3.813326359E-3,5.147905551E-3
1.050117379E1,3.234737320E-3,-1.728869043E-3,-1.593580469E-3,3.999001427E-3
1.051112979E1,-6.469911896E-4,8.260514587E-4,-3.362070769E-3,3.521999215E-3
1.052108579E1,2.701667603E-3,-7.215114310E-4,-6.259055808E-3,6.855316637E-3
1.053104179E1,6.357374950E-4,2.115890384E-4,-8.511558175E-3,8.537889356E-3
1.054099779E1,6.389332702E-4,-1.226251945E-3,-8.732333779E-3,8.841130176E-3
1.055095379E1,-2.637956059E-3,5.794800818E-4,-8.028030396E-3,8.470175994E-3
1.056090979E1,3.735465580E-4,2.344623208E-3,-6.061818451E-3,6.510179563E-3
1.057086579E1,2.475090558E-3,3.528865054E-4,-5.956344306E-3,6.459770867E-3