"Time (s)","Gyroscope x (rad/s)","Gyroscope y (rad/s)","Gyroscope z (rad/s)","Absolute (rad/s)"
8.247041667E-3,1.435744809E-3,6.269849837E-4,1.031529158E-3,1.875773369E-3
1.820304167E-2,4.354711156E-3,-1.784279943E-3,2.213961445E-3,5.200845071E-3
2.816004167E-2,1.330683008E-4,-6.130216643E-4,-1.527247485E-3,1.651056514E-3
3.811704167E-2,3.606381360E-3,9.122015908E-4,1.078732312E-4,3.721523195E-3
4.807404167E-2,-2.332734177E-3,-6.207143888E-4,1.288186293E-3,2.736121163E-3
5.803104167E-2,-5.836412311E-5,1.429862343E-3,2.051778138E-4,1.445686904E-3
6.798804167E-2,2.263276838E-4,1.473005861E-3,3.971918486E-4,1.542313798E-3
7.794404167E-2,9.782449342E-5,9.142803028E-4,-9.529944509E-5,9.244241926E-4
8.790104167E-2,5.518933758E-4,4.245247692E-4,-6.455085240E-4,9.494676574E-4
9.785804167E-2,1.640412956E-4,-4.105363041E-5,5.455994979E-4,5.712037809E-4
1.078150417E-1,2.798887435E-4,2.556859516E-3,-1.075200271E-3,2.787817052E-3
1.177720417E-1,7.029001135E-4,-2.965843305E-4,-1.533462666E-3,1.712757596E-3
1.277290417E-1,-2.682243939E-3,5.782637745E-4,-3.403667361E-4,2.764899828E-3
1.376850417E-1,3.506313078E-4,6.896927953E-4,1.219129656E-3,1.443916751E-3
1.476420417E-1,1.680347719E-3,4.345625639E-4,-2.775667235E-4,1.757684945E-3
1.575990417E-1,2.137520118E-3,-2.687824890E-4,4.511210136E-4,2.201078474E-3
1.675560417E-1,-1.458013896E-3,6.787702441E-4,2.460577525E-4,1.626984322E-3
1.775130417E-1,1.741923857E-3,1.799931750E-3,-9.085447527E-4,2.664489932E-3
1.874690417E-1,1.631935360E-3,2.925824374E-4,3.700391389E-4,1.698748500E-3
1.974260417E-1,-2.325396053E-5,-6.288643926E-4,1.835674513E-3,1.940544277E-3
2.073830417E-1,6.587816169E-4,8.614398539E-4,-2.339895815E-3,2.578989000E-3
2.173400417E-1,-1.085295109E-3,-9.257346392E-6,-4.308465868E-4,1.167724263E-3
2.272970417E-1,-7.627864834E-4,-3.493437544E-4,-9.376460221E-4,1.258198848E-3
2.372540417E-1,2.797017107E-3,5.500204861E-5,-1.427167095E-3,3.140562981E-3
2.472100417E-1,8.553063963E-4,-1.476049423E-3,5.994224921E-5,1.707004395E-3
2.571670417E-1,4.130956251E-3,8.018929511E-4,-7.452461869E-4,4.273549313E-3
2.671240417E-1,-6.920285523E-4,1.755837351E-3,1.441209111E-3,2.374647768E-3
2.770810417E-1,-1.234288095E-3,7.028738037E-4,-1.087340061E-3,1.788800462E-3
2.870380417E-1,-1.908768900E-5,-4.622591659E-4,1.110034063E-3,1.202590329E-3
2.969950417E-1,-3.518871963E-4,-6.837770343E-5,1.875281800E-3,1.909235956E-3
3.069510417E-1,-3.027298953E-3,1.232043840E-3,2.049452625E-3,3.857813764E-3
3.169080417E-1,3.274967894E-4,2.910699695E-4,-1.818937715E-3,1.870965068E-3
3.268650417E-1,-8.030151948E-4,-2.259971574E-3,-2.874082187E-3,3.743347878E-3
3.368220417E-1,9.496649727E-5,-5.020331591E-4,-6.682034582E-4,8.411609775E-4
3.467790417E-1,6.489040097E-4,-7.877908647E-4,-1.757968916E-3,2.032767957E-3
3.567360417E-1,6.853048690E-4,4.817955196E-4,-4.371954128E-4,9.449388949E-4
3.666920417E-1,1.688517630E-3,1.740671694E-3,7.018386386E-4,2.524600406E-3
3.766490417E-1,2.313016448E-3,-2.416429110E-3,2.274290659E-3,4.044944095E-3
3.866060417E-1,-7.717078552E-5,1.507738605E-3,-6.935358979E-4,1.661391908E-3
3.965630417E-1,-5.228659138E-4,5.168737844E-4,2.115135547E-3,2.239273466E-3
4.065200417E-1,3.021813463E-4,4.034228623E-4,6.682402454E-4,8.370236541E-4
4.164760417E-1,-1.309919404E-3,-2.185792662E-3,-1.927316189E-4,2.555528103E-3
4.264330417E-1,-2.390623558E-4,7.709488273E-5,-2.720337827E-3,2.731910014E-3
4.363900417E-1,7.273362717E-4,7.767574862E-4,1.126813702E-3,1.549864305E-3
4.463470417E-1,5.582255544E-4,7.075350732E-5,-2.282024361E-4,6.072052209E-4
4.563040417E-1,1.223820029E-3,1.281937584E-3,1.898571383E-3,2.597243294E-3
4.662610417E-1,-9.344057180E-4,1.074210741E-3,-1.579215750E-4,1.432474078E-3
4.762170417E-1,2.198681468E-3,2.759303898E-4,3.057532012E-6,2.215930307E-3
4.861740417E-1,-7.236050442E-4,6.418488920E-4,4.209075123E-4,1.054863685E-3
4.961310417E-1,9.067403153E-4,-7.442040369E-4,-7.156301290E-4,1.374097569E-3
5.060880417E-1,-4.725106992E-4,6.784563884E-4,-6.101690233E-4,1.027558110E-3
5.160450417E-1,-5.907937884E-5,1.829318702E-3,1.204501837E-3,2.191054989E-3
5.260020417E-1,1.499668811E-3,-2.076740377E-3,-3.023142926E-4,2.579389670E-3
5.359580417E-1,7.440166082E-4,2.188161016E-3,2.975943498E-4,2.330272890E-3
5.459150417E-1,-7.793772966E-6,-1.319842413E-4,8.145137690E-4,8.251746862E-4
5.558720417E-1,1.492897398E-3,9.996257722E-4,-1.095817657E-3,2.104473963E-3
5.658290417E-1,8.526735473E-4,1.565281302E-3,1.654555090E-4,1.790121018E-3
5.757860417E-1,8.107878966E-4,4.614135250E-4,6.445194595E-4,1.133880412E-3
5.857430417E-1,-2.169259824E-4,-6.208950654E-4,2.974519040E-3,3.046363584E-3
5.956990417E-1,-1.695010345E-3,1.868525520E-3,6.598522887E-4,2.607652725E-3
6.056552917E-1,6.826596800E-4,-7.839826867E-4,1.057995018E-3,1.483241905E-3
6.156122917E-1,1.316125738E-3,-1.126080751E-3,-2.349548042E-3,2.919010246E-3
6.255692917E-1,3.674323671E-5,-3.242027014E-4,-1.500430517E-4,3.591244554E-4
6.355262917E-1,-5.074054934E-5,1.025159843E-3,-7.454170845E-4,1.268532198E-3
6.454832917E-1,2.948245034E-3,-2.504941076E-4,-7.129264995E-4,3.043544031E-3
6.554392917E-1,-2.894969657E-5,1.545155421E-3,-3.452673554E-4,1.583525468E-3
6.653962917E-1,1.918263733E-4,4.739314318E-5,9.112120606E-4,9.323898792E-4
6.753532917E-1,-1.309079817E-3,1.653116196E-4,2.396797296E-3,2.735992539E-3
6.853102917E-1,-5.263767671E-4,-2.759741619E-4,1.835136674E-3,1.928979226E-3
6.952672917E-1,-1.489199232E-3,6.583975628E-4,3.341975622E-3,3.717526430E-3
7.052232917E-1,1.626166515E-3,6.879586726E-4,1.166439615E-3,2.116196127E-3
7.151802917E-1,1.128063654E-3,5.639987066E-4,-7.094894536E-4,1.447065110E-3
7.251372917E-1,-1.216583420E-3,6.039533764E-5,1.183485612E-3,1.698340663E-3
7.350942917E-1,1.617479953E-3,1.041137613E-3,-1.953604165E-3,2.741674336E-3
7.450512917E-1,4.305089824E-4,-2.960261889E-3,5.843881518E-4,3.047949794E-3
7.550082917E-1,-7.628763560E-4,-5.210163072E-4,1.419075299E-3,1.693284687E-3
7.649642917E-1,1.538361190E-3,1.935092732E-4,1.044634730E-3,1.869562170E-3
7.749212917E-1,7.528533461E-4,1.062816009E-4,-4.824870266E-4,9.004874625E-4
7.848782917E-1,-2.578163985E-4,-5.248868838E-4,4.014163278E-4,7.093029003E-4
7.948352917E-1,1.110178768E-3,-1.686438918E-4,1.086798031E-3,1.562711624E-3
8.047922917E-1,-3.553282470E-3,-3.396188840E-4,-2.285372466E-4,3.576784389E-3
8.147492917E-1,2.936026547E-3,2.283751965E-3,6.050555967E-4,3.768536479E-3
8.247052917E-1,2.148086205E-4,-1.542411745E-3,-8.370461874E-4,1.767999732E-3
8.346622917E-1,-1.038397197E-3,6.165169179E-5,-7.586926222E-4,1.287510840E-3
8.446192917E-1,2.960339189E-3,-1.709883101E-3,-1.088924473E-3,3.587905355E-3
8.545762917E-1,1.468442846E-3,-6.374036893E-4,-5.771229044E-4,1.701669387E-3
8.645332917E-1,-5.654133856E-4,8.284002542E-4,1.878844108E-3,2.129787422E-3
8.744902917E-1,-1.048672013E-3,1.824743114E-3,1.284942962E-3,2.465862697E-3
8.844462917E-1,-1.559999073E-3,-8.580833673E-5,-8.871546015E-5,1.564873992E-3
8.944032917E-1,4.372752737E-4,-5.301283672E-4,1.320549753E-3,1.488656240E-3
9.043602917E-1,1.916927751E-3,1.741548069E-3,5.980907008E-5,2.590594296E-3
9.143172917E-1,6.134551950E-5,-7.929652929E-5,-1.260955818E-3,1.264935092E-3
9.242742917E-1,-1.528029097E-3,3.263028339E-4,-2.418365330E-5,1.562668010E-3
9.342312917E-1,-5.414825864E-4,-2.825981006E-3,-6.709713489E-4,2.954585350E-3
9.441872917E-1,1.445768285E-3,5.767401308E-4,8.110515773E-5,1.558670317E-3
9.541442917E-1,-2.011671197E-3,3.657583147E-3,-1.144490903E-3,4.328347827E-3
9.641012917E-1,-1.518453471E-3,4.612570629E-4,3.652549349E-4,1.628456383E-3
9.740582917E-1,2.126268577E-3,1.789091155E-3,1.670173369E-3,3.242120341E-3
9.840152917E-1,6.106636720E-4,-6.152102724E-4,-1.056903740E-3,1.366908671E-3
9.939712917E-1,1.700979657E-3,-2.005705610E-3,1.073052175E-3,2.840356978E-3
1.003928292E0,-3.087404184E-5,-1.854704693E-3,-3.301673569E-4,1.884116023E-3
1.013885292E0,5.630471278E-4,6.947992370E-4,-1.616104739E-3,1.847041574E-3
1.023842292E0,7.076567272E-4,3.392668441E-4,3.106007352E-5,7.853946544E-4
1.033799292E0,2.514566295E-4,1.445228234E-3,7.707192563E-4,1.657082755E-3
1.043756292E0,8.237699512E-4,-1.118331216E-3,1.727326773E-3,2.216510641E-3
1.053712292E0,2.694427967E-3,-5.304869264E-4,-2.571057761E-3,3.761874062E-3
1.063669292E0,3.953210544E-4,1.778740436E-3,2.165640704E-3,2.830228954E-3
1.073626292E0,-5.375687033E-4,9.953733534E-4,-1.626980258E-3,1.981618779E-3
1.083583292E0,1.581508433E-3,7.269261405E-4,5.461592227E-4,1.824247910E-3
1.093540292E0,7.088516140E-4,-4.668040201E-4,2.612333745E-3,2.746755213E-3
1.103497292E0,-6.469637156E-4,-1.816759817E-3,5.164262839E-4,1.996465474E-3
1.113453292E0,1.227336819E-3,-3.661895171E-4,3.467486240E-4,1.326908075E-3
1.123410292E0,2.704059705E-3,-1.033045352E-3,-1.227712026E-3,3.144264366E-3
1.133367292E0,-5.745512899E-4,-2.211648040E-3,7.443618961E-4,2.403241741E-3
1.143324292E0,4.947078414E-4,1.385483891E-3,-7.326272316E-4,1.643485358E-3
1.153281292E0,9.440421127E-5,-4.829913378E-4,3.925450146E-4,6.295112199E-4
1.163238292E0,3.162454814E-4,-4.574256018E-4,-5.613989197E-4,7.902013241E-4
1.173194292E0,1.280800323E-3,-2.621579915E-4,-1.767036272E-3,2.198088594E-3
1.183151292E0,-1.358658774E-3,-2.133561298E-3,4.930014722E-3,5.541036242E-3
1.193108292E0,-1.342502888E-3,-1.097625121E-3,1.108516380E-2,1.121998001E-2
1.203065292E0,-6.671252195E-4,-5.088001490E-4,1.606314443E-2,1.608504096E-2
1.213022292E0,-1.581513556E-3,7.124170661E-4,2.231600508E-2,2.238331535E-2
1.222979292E0,-1.263623126E-4,3.690363839E-3,2.295196801E-2,2.324709849E-2
1.232935292E0,9.685223922E-4,-7.016770542E-4,1.549510472E-2,1.554119225E-2
1.242892292E0,2.156025963E-3,1.874664798E-3,1.307642274E-2,1.338490372E-2
1.252849292E0,-1.071521780E-3,9.254692122E-4,1.364904270E-2,1.372228183E-2
1.262806292E0,-1.462740358E-3,-2.085766755E-3,1.651380584E-2,1.670915364E-2
1.272763292E0,-7.535014302E-4,2.029665746E-3,2.214267850E-2,2.224827001E-2
1.282719292E0,2.670218237E-4,1.795840450E-3,2.306972630E-2,2.314105908E-2
1.292676292E0,-7.487228140E-5,1.312672161E-3,2.122495323E-2,2.126563787E-2
1.302633292E0,-1.922839787E-3,-2.292981371E-4,1.898630150E-2,1.908479853E-2
1.312590292E0,1.326517551E-3,1.598984934E-3,1.215203200E-2,1.232835282E-2
1.322547292E0,-2.009890508E-3,-1.115309075E-3,1.010219753E-2,1.036040391E-2
1.332504292E0,-1.453654841E-4,2.468605526E-3,1.504265144E-2,1.524455663E-2
1.342460292E0,-3.393090563E-3,2.655292861E-3,1.904617995E-2,1.952743236E-2
1.352417292E0,2.586457413E-4,7.377052680E-4,2.099693567E-2,2.101148291E-2
1.362374292E0,-1.695905812E-4,-5.786959082E-4,2.423480712E-2,2.424230859E-2
1.372331292E0,1.965877367E-3,-8.924147114E-4,1.948328689E-2,1.960253927E-2
1.382288292E0,-5.334992893E-4,6.303805858E-4,1.750695519E-2,1.752642237E-2
1.392245292E0,2.323875204E-3,1.950450242E-3,1.042420324E-2,1.085673364E-2
1.402201292E0,2.482333221E-3,-7.284237072E-4,1.001887023E-2,1.034747989E-2
1.412158292E0,-2.912324853E-4,1.996732317E-3,1.309585012E-2,1.325039799E-2
1.422115292E0,-6.494277623E-4,8.401218802E-4,2.306512743E-2,2.308955748E-2
1.432072292E0,-1.389554236E-4,4.634829238E-4,2.546197921E-2,2.546657634E-2
1.442029292E0,8.639910957E-4,-6.286790594E-4,2.330188826E-2,2.332637379E-2
1.451986292E0,9.133433923E-5,1.011663117E-3,1.590925083E-2,1.594164565E-2
1.461942292E0,-2.647303045E-4,-1.525133848E-5,9.654549882E-3,9.658190729E-3
1.471899292E0,1.603126992E-3,-8.378895000E-4,1.148998365E-2,1.163150030E-2
1.481856292E0,-2.281892579E-3,-1.607010141E-3,1.797291636E-2,1.818832697E-2
1.491813292E0,2.385220723E-3,-1.539179124E-3,1.914710924E-2,1.935639797E-2
1.501770292E0,-2.909409581E-3,4.347553477E-4,2.610728145E-2,2.627249171E-2
1.511727292E0,5.740340566E-4,-5.129463971E-4,2.170221508E-2,2.171586444E-2
1.521683292E0,1.263567246E-4,1.276697963E-3,1.562008914E-2,1.567268670E-2
1.531640292E0,-8.486676961E-6,5.176169798E-4,1.281250827E-2,1.282296251E-2
1.541597292E0,-1.539804274E-3,-8.555091918E-4,1.113045588E-2,1.126898138E-2
1.551554292E0,-2.166782506E-3,1.267177053E-3,1.308684982E-2,1.332540140E-2
1.561511292E0,-1.535613090E-3,-1.089986414E-3,2.099830285E-2,2.108257338E-2
1.571468292E0,-2.311002463E-4,-1.780949533E-3,2.520230226E-2,2.526620723E-2
1.581424292E0,-2.316089114E-3,9.639710188E-4,2.564278990E-2,2.576521265E-2
1.591381292E0,-1.114716288E-4,3.658346832E-4,1.855031401E-2,1.855425587E-2
1.601338292E0,1.598277828E-3,5.748933181E-4,1.404903736E-2,1.415134075E-2
1.611295167E0,-1.799261663E-4,1.718001440E-4,1.274064369E-2,1.274307225E-2
1.621252167E0,-1.489136135E-3,5.342569202E-4,1.521285623E-2,1.529489953E-2
1.631208167E0,-3.575740848E-4,3.976887092E-4,1.566317305E-2,1.567230058E-2
1.641165167E0,-5.653006956E-4,-9.240387008E-4,2.105767280E-2,2.108551626E-2
1.651122167E0,8.237524889E-5,1.620797440E-3,2.180868387E-2,2.186898402E-2
1.661079167E0,-2.904671710E-4,-5.496786907E-4,1.939399540E-2,1.940395773E-2
1.671036167E0,-3.356742673E-5,1.647290774E-3,1.690129004E-2,1.698141039E-2
1.680993167E0,-1.342511037E-3,-1.214275137E-3,1.415370591E-2,1.426899404E-2
1.690949167E0,1.597344992E-3,4.090461880E-4,1.053631678E-2,1.066455818E-2
1.700906167E0,-1.468219562E-3,-6.764587015E-4,1.713083498E-2,1.720693965E-2
1.710863167E0,2.396329306E-3,1.282327808E-3,2.124837227E-2,2.142148648E-2
1.720820167E0,1.388589153E-3,-1.015979797E-3,2.084597014E-2,2.091685602E-2
1.730777167E0,-2.273423597E-4,-1.193238422E-3,2.250482887E-2,2.253758694E-2
1.740733167E0,1.231296919E-4,3.292905167E-4,1.706665382E-2,1.707027433E-2
1.750690167E0,6.241663359E-4,-3.836145625E-4,1.354089379E-2,1.356069867E-2
1.760647167E0,-3.420642577E-3,6.904387847E-4,1.555903815E-2,1.594556896E-2
1.770604167E0,2.207078505E-4,-9.648175910E-4,1.773352176E-2,1.776111987E-2
1.780561167E0,-2.482747659E-4,-7.400466129E-4,1.961610839E-2,1.963163309E-2
1.790518167E0,5.421650130E-4,-4.630982876E-4,2.032447606E-2,2.033697938E-2
1.800475167E0,1.277463743E-3,-4.447223619E-4,1.972313225E-2,1.976946224E-2
1.810431167E0,1.154877711E-3,2.425592393E-4,1.519740559E-2,1.524315303E-2
1.820388167E0,-1.982059563E-3,7.613431662E-4,1.352946647E-2,1.369505993E-2
1.830345167E0,1.002828707E-3,-6.461702287E-4,1.354064606E-2,1.359309741E-2
1.840302167E0,1.305363839E-3,1.730168238E-3,1.830983534E-2,1.843766599E-2
1.850259167E0,1.548083266E-3,2.408002503E-3,1.831386611E-2,1.853625447E-2
1.860216167E0,1.650348655E-3,1.484418288E-3,2.121351287E-2,2.132932902E-2
1.870172167E0,-6.089215167E-4,2.890350297E-4,1.985420845E-2,1.986564673E-2
1.880129167E0,-9.463438764E-4,-5.269581452E-4,1.821636409E-2,1.824853890E-2
1.890086167E0,5.518883700E-4,6.729736924E-4,1.227797009E-2,1.230877833E-2
1.900043167E0,-1.050801948E-3,-3.310386091E-4,1.255227439E-2,1.260053029E-2
1.910000167E0,8.743046783E-4,-2.123288810E-3,1.798330247E-2,1.812931140E-2
1.919956167E0,1.368753146E-4,5.835480988E-4,1.918545365E-2,1.919481428E-2
1.929913167E0,-1.442673150E-3,1.014756970E-3,2.292854339E-2,2.299628534E-2
1.939870167E0,6.593599683E-4,1.335135661E-3,1.973488182E-2,1.979098035E-2
1.949827167E0,3.654733300E-4,1.578079537E-4,1.727245003E-2,1.727703690E-2
1.959784167E0,-1.198601210E-3,-1.907739788E-3,1.328117028E-2,1.347091682E-2
1.969741167E0,-8.105286397E-4,4.065564834E-3,1.452180091E-2,1.510193616E-2
1.979697167E0,1.490176073E-3,-4.423679784E-4,1.622569188E-2,1.629998133E-2
1.989654167E0,1.041129464E-3,-8.158702403E-4,1.777877100E-2,1.782790770E-2
1.999611167E0,2.757371403E-4,5.162432790E-4,2.005524188E-2,2.006377993E-2
2.009568167E0,8.250160608E-4,1.508789137E-4,1.792607456E-2,1.794568375E-2
2.019525167E0,1.784006599E-4,-2.131716348E-3,1.986006089E-2,1.997493579E-2
2.029482167E0,-1.457429957E-3,-1.132412814E-3,1.531398669E-2,1.542480629E-2
2.039438167E0,1.358596608E-3,1.979490742E-3,1.490652189E-2,1.509862785E-2
2.049395167E0,-3.286129795E-4,-9.210454300E-4,1.699290797E-2,1.702102325E-2
2.059352167E0,2.658654703E-3,-9.729769081E-4,1.924194768E-2,1.944910485E-2
2.069309167E0,3.165777307E-3,2.553913742E-3,2.028590627E-2,2.068967410E-2
2.079266167E0,1.446174225E-3,-5.247006193E-4,2.011120319E-2,2.016995847E-2
2.089222167E0,-4.714142997E-4,-4.341769964E-4,1.805391163E-2,1.806528345E-2
2.099179167E0,1.173886587E-3,-4.032850266E-4,1.707493328E-2,1.711998817E-2
2.109136167E0,8.609126089E-4,4.001576453E-4,1.827732101E-2,1.830196055E-2
2.119093167E0,-1.162823522E-3,-4.145028070E-4,1.885735802E-2,1.889772269E-2
2.129050167E0,-2.140604891E-3,7.267417386E-4,2.025103569E-2,2.037681990E-2
2.139007167E0,2.707121894E-6,-8.176257834E-4,2.031681687E-2,2.033326257E-2
2.148963167E0,1.344544115E-3,2.279514447E-4,1.915598474E-2,1.920446595E-2
2.158920167E0,-2.105847234E-3,-3.920327872E-4,1.494472846E-2,1.509745645E-2
2.168877167E0,8.580881404E-4,-7.674749941E-5,1.514924224E-2,1.517371893E-2
2.178834167E0,2.306581475E-3,-2.146556042E-3,1.808883995E-2,1.836121324E-2
2.188791167E0,2.408027649E-5,4.870323464E-4,1.942175254E-2,1.942787307E-2
2.198748167E0,-1.748576760E-4,-3.151910380E-3,1.806833223E-2,1.834202125E-2
2.208704167E0,-1.458660699E-4,1.402786002E-4,1.754692011E-2,1.754808708E-2
2.218661167E0,-2.531525912E-3,1.444161870E-3,1.703426056E-2,1.728178983E-2
2.228618167E0,1.370521495E-3,-1.110211946E-3,1.524957828E-2,1.535123896E-2
2.238575167E0,2.778534777E-3,-5.978196859E-4,1.258641668E-2,1.290331464E-2
2.248532167E0,1.299714670E-3,-1.741135493E-4,1.570853591E-2,1.576317462E-2
2.258489167E0,-2.536302432E-3,-1.015672460E-3,1.682013832E-2,1.704058314E-2
2.268445167E0,1.809628913E-3,-3.900341690E-4,1.824829914E-2,1.834195477E-2
2.278402167E0,2.582211979E-3,8.640531451E-5,1.576889679E-2,1.597915487E-2
2.288359167E0,-2.756814938E-4,9.627863765E-4,1.585350931E-2,1.588510986E-2
2.298316167E0,-1.038943417E-3,7.737018168E-4,1.645937935E-2,1.651027518E-2
2.308273167E0,1.516009681E-3,1.263067126E-3,1.368525717E-2,1.382678154E-2
2.318230167E0,6.485334598E-5,-2.125006169E-3,1.544480864E-2,1.559044486E-2
2.328186167E0,-2.575723920E-4,2.334409393E-3,1.640011370E-2,1.656742407E-2
2.338143167E0,2.937018871E-4,1.319777220E-5,1.538465079E-2,1.538745966E-2
2.348100167E0,8.642162429E-4,-9.502554312E-4,1.378539018E-2,1.384510157E-2
2.358057167E0,2.269218676E-4,8.958484977E-4,1.753272302E-2,1.755706168E-2
2.368014167E0,5.443387199E-4,5.679624155E-4,1.527232304E-2,1.529257130E-2
2.377971167E0,-1.044503180E-3,6.153667346E-4,1.743268035E-2,1.747478204E-2
2.387927167E0,-1.586002996E-3,-1.211799681E-4,1.544592716E-2,1.552761269E-2
2.397884167E0,2.451867331E-4,-9.611416608E-4,1.546803303E-2,1.549980502E-2
2.407841167E0,1.324593555E-3,-1.393673010E-3,1.357075758E-2,1.370628812E-2
2.417798167E0,1.147193834E-4,-9.649042040E-4,1.581473649E-2,1.584456029E-2
2.427755167E0,2.570163226E-3,7.496066391E-4,1.641808636E-2,1.663493940E-2
2.437711167E0,5.458944943E-4,-1.032581553E-3,1.907991618E-2,1.911563305E-2
2.447668167E0,6.436597323E-4,2.100458369E-4,1.688526385E-2,1.689883287E-2
2.457625167E0,-5.382206291E-5,1.649750397E-3,1.622053981E-2,1.630430878E-2
2.467582167E0,1.320658368E-3,-2.607333474E-3,1.636660285E-2,1.662552301E-2
2.477539167E0,1.390166814E-3,1.666145399E-4,1.684330776E-2,1.690140055E-2
2.487496167E0,-6.726335268E-4,1.522002742E-3,1.599234901E-2,1.607868636E-2
2.497452167E0,7.819851162E-4,-1.174388453E-4,1.332945377E-2,1.335288846E-2
2.507409167E0,-1.073715510E-3,6.575891748E-4,1.595655456E-2,1.600615263E-2
2.517366167E0,-1.318992581E-3,-6.386172026E-5,1.487770863E-2,1.493619877E-2
2.527323167E0,-3.223217325E-3,4.453361034E-4,1.832980104E-2,1.861636539E-2
2.537280167E0,1.142769004E-3,2.546533942E-4,1.677424833E-2,1.681505803E-2
2.547237167E0,-1.696729101E-3,1.208468340E-3,1.650380716E-2,1.663475086E-2
2.557193167E0,-1.400585752E-3,-6.807781756E-4,1.671419665E-2,1.678658599E-2
2.567150167E0,1.217533136E-3,-1.447401010E-3,1.673159003E-2,1.683815494E-2
2.577107167E0,1.858244650E-4,8.237436414E-4,1.541678514E-2,1.543989470E-2
2.587064167E0,-1.403174130E-3,-7.674954832E-4,1.499270461E-2,1.507776968E-2
2.597021167E0,1.274101553E-3,5.068266764E-4,1.203473285E-2,1.211259686E-2
2.606978167E0,1.177803613E-3,2.203398384E-3,1.493718661E-2,1.514469312E-2
2.616933917E0,2.857991960E-3,-1.098234206E-4,1.707011275E-2,1.730805964E-2
2.626890917E0,1.316334587E-3,1.671984792E-4,1.712214574E-2,1.717348441E-2
2.636847917E0,-4.022032954E-4,7.696049288E-4,1.503635943E-2,1.506141309E-2
2.646804917E0,-8.649248630E-4,-1.089513302E-3,1.740803011E-2,1.746352331E-2
2.656761917E0,1.295431517E-3,-7.502259687E-4,1.304630376E-2,1.313190861E-2
2.666718917E0,1.292664791E-3,8.216314018E-4,1.671139151E-2,1.678143816E-2
2.676674917E0,2.248739591E-3,2.370672300E-4,1.564559340E-2,1.580815054E-2
2.686631917E0,1.722693327E-3,-1.234419644E-3,1.636326499E-2,1.649993653E-2
2.696588917E0,2.261184622E-3,2.703064121E-3,1.758459024E-2,1.793425007E-2
2.706545917E0,-4.021357745E-5,1.850223169E-3,1.416716911E-2,1.428753385E-2
2.716502917E0,5.488775205E-4,-2.198517323E-4,1.495679654E-2,1.496847902E-2
2.726458917E0,1.682780450E-3,-3.414833918E-4,1.444027666E-2,1.454200643E-2
2.736415917E0,3.256336786E-4,-3.305048682E-3,1.256487984E-2,1.299636832E-2
2.746372917E0,9.286331479E-4,2.874149010E-3,1.440068893E-2,1.471403866E-2
2.756329917E0,1.387495780E-3,-2.260692418E-3,1.496687718E-2,1.520010813E-2
2.766286917E0,-5.215487909E-4,1.880438998E-3,1.611416042E-2,1.623188929E-2
2.776243917E0,1.194592100E-3,-3.342460841E-4,1.444062963E-2,1.449381092E-2
2.786199917E0,1.450825948E-4,5.979230627E-4,1.125958283E-2,1.127638091E-2
2.796156917E0,-1.408605836E-3,-1.419028267E-4,1.228729729E-2,1.236858850E-2
2.806113917E0,4.522637464E-4,3.646683879E-3,1.166882645E-2,1.223373846E-2
2.816070917E0,-1.523269340E-3,-1.405865885E-3,1.330666896E-2,1.346715438E-2
2.826027917E0,1.595081645E-3,4.941746593E-4,1.411314122E-2,1.421158855E-2
2.835984917E0,3.047802020E-4,4.475694150E-4,1.429476961E-2,1.430502176E-2
2.845940917E0,3.239386715E-3,-3.614649177E-4,1.589142904E-2,1.622226248E-2
2.855897917E0,-1.753184479E-4,6.996747106E-5,1.416143868E-2,1.416269669E-2
2.865854917E0,1.335308421E-3,4.940927029E-4,1.456854958E-2,1.463795795E-2
2.875811917E0,9.912280366E-4,-2.322999761E-3,1.247903239E-2,1.273205051E-2
2.885768917E0,-1.042622840E-3,2.190465108E-3,1.138096768E-2,1.163665008E-2
2.895725917E0,3.574008588E-4,-4.444671795E-4,1.505586412E-2,1.506666289E-2
2.905681917E0,2.147249645E-3,-7.386142388E-4,1.482047047E-2,1.499341779E-2
2.915638917E0,1.059348346E-3,3.546131775E-4,1.715340093E-2,1.718973917E-2
2.925595917E0,-1.529509202E-3,1.222214662E-3,1.370004192E-2,1.383923248E-2
2.935552917E0,2.835707273E-4,1.926533878E-5,1.525825635E-2,1.526090332E-2
2.945509917E0,-7.681439165E-4,-1.095502637E-3,1.320387889E-2,1.327149535E-2
2.955466917E0,4.691607319E-4,-1.703202724E-4,1.342092548E-2,1.343020333E-2
2.965422917E0,2.329517156E-3,1.596382819E-3,1.382721402E-2,1.411265162E-2
2.975379917E0,-1.741390675E-3,2.224089578E-3,1.628504507E-2,1.652820949E-2
2.985336917E0,7.867867826E-4,2.395846881E-3,1.336580701E-2,1.360161435E-2
2.995293917E0,2.538901754E-5,1.754824072E-3,1.439511962E-2,1.450170752E-2
3.005250917E0,-2.872671466E-4,5.053430796E-4,1.334925741E-2,1.336190733E-2
3.015207917E0,1.723419409E-3,3.428896889E-4,1.438522711E-2,1.449215329E-2
3.025163917E0,-1.903819153E-3,7.436284795E-4,1.317412499E-2,1.333173207E-2
3.035120917E0,-1.993959304E-4,-1.068918966E-3,1.095704455E-2,1.101086608E-2
3.045077917E0,-9.632662404E-4,5.857367069E-5,1.152028702E-2,1.156063691E-2
3.055034917E0,5.059177056E-6,-1.353167929E-3,1.393204555E-2,1.399760630E-2
3.064991917E0,8.681194158E-4,2.248578705E-3,1.340461802E-2,1.361960064E-2
3.074948917E0,-1.162540866E-3,-8.175177500E-4,1.275640447E-2,1.283532982E-2
3.084904917E0,-6.257225759E-4,1.176386140E-3,1.182757970E-2,1.190239701E-2
3.094861917E0,1.078700414E-3,-1.104345545E-3,1.185208093E-2,1.195219629E-2
3.104818917E0,-1.474587247E-3,-1.719463617E-4,9.664926678E-3,9.778281075E-3
3.114775917E0,-8.281925693E-5,-8.446611464E-4,1.002977975E-2,1.006562434E-2
3.124732917E0,1.773734926E-3,-6.447704509E-4,1.103593782E-2,1.119615059E-2
3.134688917E0,-2.013812773E-3,4.061134532E-4,1.324183308E-2,1.340024303E-2
3.144645917E0,-1.054580556E-3,1.663134433E-3,1.423985977E-2,1.437538739E-2
3.154602917E0,1.359574962E-3,-5.845734850E-4,1.116071362E-2,1.125840569E-2
3.164559917E0,5.744127557E-4,-5.543148145E-4,1.253610663E-2,1.256149610E-2
3.174516917E0,1.399193658E-3,-8.107777685E-4,1.363253035E-2,1.372810938E-2
3.184473917E0,-1.221182989E-3,1.394059509E-3,9.636105970E-3,9.812707479E-3
3.194429917E0,-1.026505837E-3,1.786609180E-3,1.221777499E-2,1.239030719E-2
3.204386917E0,2.569858450E-3,7.831277326E-4,1.270701922E-2,1.298790973E-2
3.214343917E0,5.850046873E-4,-2.065389417E-3,1.146465354E-2,1.166389063E-2
3.224300917E0,1.676798682E-3,-9.980304167E-4,1.014645770E-2,1.033239190E-2
3.234257917E0,1.786254579E-3,-6.539095193E-5,8.746966720E-3,8.927732534E-3
3.244214917E0,-1.531863818E-3,2.885150723E-3,1.157014538E-2,1.202243592E-2
3.254170917E0,-1.125199255E-3,4.611415789E-4,1.386951748E-2,1.392272388E-2
3.264127917E0,-1.405732473E-3,3.784177825E-4,1.491680369E-2,1.498767214E-2
3.274084917E0,-7.905424573E-4,-1.597913913E-3,1.455914043E-2,1.466788520E-2
3.284041917E0,-3.152277088E-3,1.196152531E-3,1.198536903E-2,1.245057037E-2
3.293998917E0,-1.503513893E-3,-1.117601059E-3,8.223386481E-3,8.434077980E-3
3.303955917E0,-2.185462508E-4,1.473541372E-3,1.101831160E-2,1.111855554E-2
3.313911917E0,-5.309348926E-4,-1.194680110E-3,1.188943163E-2,1.196109263E-2
3.323868917E0,-2.064840635E-3,-4.675276577E-4,1.318224054E-2,1.335116529E-2
3.333825917E0,-1.392924925E-3,-8.315816522E-4,1.139153261E-2,1.150646701E-2
3.343782917E0,8.734393632E-4,4.982762039E-5,6.980503909E-3,7.035112930E-3
3.353739917E0,-1.260285266E-3,1.381407492E-3,1.251135860E-2,1.265032409E-2
3.363696917E0,1.575039001E-3,1.985605806E-3,1.201363094E-2,1.227805794E-2
3.373652917E0,1.376367174E-3,5.419058725E-4,1.244879141E-2,1.253636535E-2
3.383609917E0,2.664711792E-4,-1.597910188E-3,1.353415754E-2,1.363076462E-2
3.393566917E0,-3.525071545E-3,8.404804394E-4,1.117033605E-2,1.174346389E-2
3.403523917E0,2.172951819E-3,1.858832315E-3,1.016924158E-2,1.056363817E-2
3.413480917E0,2.327148803E-3,5.597425625E-4,1.034021564E-2,1.061362298E-2
3.423437917E0,4.048054107E-4,1.165530644E-3,1.066955086E-2,1.074065383E-2
3.433393917E0,-1.280443044E-3,-2.001384273E-4,8.896951564E-3,8.990847396E-3
3.443350917E0,2.882692032E-3,1.241611317E-3,1.182345301E-2,1.223296992E-2
3.453307917E0,2.592122182E-4,1.616318710E-3,1.121891476E-2,1.133771254E-2
3.463264917E0,1.964777242E-3,5.546379834E-4,1.206349302E-2,1.223502500E-2
3.473221917E0,-7.652291097E-4,1.640141942E-3,1.402118150E-2,1.413750939E-2
3.483178917E0,-7.854783908E-4,-8.693281561E-4,1.097846963E-2,1.104081080E-2
3.493134917E0,4.153407644E-4,-1.179852523E-3,1.004902646E-2,1.012657359E-2
3.503091917E0,-8.816879708E-4,-3.258977085E-4,1.164267492E-2,1.168055916E-2
3.513048917E0,8.818573551E-4,-3.121950664E-3,1.072814595E-2,1.120791523E-2
3.523005917E0,5.823844112E-4,-1.685139723E-3,1.057355478E-2,1.072282277E-2
3.532962917E0,1.465754933E-3,-1.701119356E-3,1.307372935E-2,1.326516656E-2
3.542919917E0,-2.166828839E-3,5.924552679E-4,1.216296945E-2,1.236866914E-2
3.552875917E0,-1.601371914E-4,-4.099588841E-4,1.338908914E-2,1.339632107E-2
3.562832917E0,2.369588474E-3,-8.837813511E-4,1.124848891E-2,1.152928973E-2
3.572789917E0,-7.590930909E-4,9.692460299E-4,1.239231694E-2,1.245332002E-2
3.582746917E0,4.570016172E-4,1.647666097E-3,9.892093018E-3,1.003878271E-2
3.592703917E0,1.084708609E-3,-2.605401911E-3,1.147454232E-2,1.181650682E-2
3.602660917E0,2.034426667E-3,-1.039060764E-3,1.018357091E-2,1.043664963E-2
3.612617167E0,-5.616226699E-4,-9.043049067E-4,1.204245724E-2,1.208941536E-2
3.622574167E0,-9.952993132E-4,7.133986801E-4,1.148035843E-2,1.154548345E-2
3.632531167E0,-6.970253307E-4,-1.105007716E-3,1.084412914E-2,1.092254655E-2
3.642488167E0,-2.093720250E-4,-1.067835838E-4,1.058543101E-2,1.058803991E-2
3.652445167E0,-3.369373735E-4,1.994799823E-4,9.601127356E-3,9.609108469E-3
3.662402167E0,1.289802487E-3,-1.752776094E-3,7.971467450E-3,8.263177827E-3
3.672358167E0,-3.725425340E-4,1.340731978E-4,1.089694910E-2,1.090413973E-2
3.682315167E0,-2.910364885E-3,1.948811114E-4,1.023233309E-2,1.063996442E-2
3.692272167E0,7.842386840E-4,1.722737215E-3,1.120385341E-2,1.136262228E-2
3.702229167E0,1.258756733E-3,3.595231101E-4,1.146325748E-2,1.153776397E-2
3.712186167E0,-8.328899276E-4,3.366200253E-4,8.759084158E-3,8.805031173E-3
3.722142167E0,2.823657356E-3,2.456707880E-4,9.222509339E-3,9.648216080E-3
3.732099167E0,2.182634547E-3,-2.082464285E-3,9.586829692E-3,1.005026640E-2
3.742056167E0,-9.089729283E-4,6.735045463E-4,1.022023894E-2,1.028266133E-2
3.752013167E0,8.681544568E-4,5.462048575E-4,1.093742810E-2,1.098541603E-2
3.761970167E0,1.220645849E-3,-1.671278849E-3,1.178464293E-2,1.196498886E-2
3.771927167E0,3.199647181E-4,-5.330443382E-4,1.128396951E-2,1.130108320E-2
3.781883167E0,-2.156756818E-4,-1.133391634E-3,7.752701640E-3,7.838078547E-3
3.791840167E0,-1.221551560E-3,1.583033241E-3,1.131840795E-2,1.149367396E-2
3.801797167E0,8.856160566E-4,1.202284358E-3,9.990190156E-3,1.010117334E-2
3.811754167E0,2.674665302E-5,2.181528136E-3,1.133162435E-2,1.153973530E-2
3.821711167E0,2.514062682E-3,1.767952926E-3,1.032309048E-2,1.077090366E-2
3.831668167E0,3.542390186E-4,1.074718311E-4,9.515620768E-3,9.522818599E-3
3.841624167E0,2.664635191E-3,-3.962758929E-4,8.361432701E-3,8.784695333E-3
3.851581167E0,1.727468800E-3,-1.198397949E-4,1.093351282E-2,1.106978828E-2
3.861538167E0,1.406559604E-3,1.717691310E-3,8.730856702E-3,9.008703131E-3
3.871495167E0,1.308821607E-3,1.282264479E-3,1.101238653E-2,1.116377505E-2
3.881452167E0,-6.226161495E-4,-1.000452787E-3,9.021880105E-3,9.098509619E-3
3.891409167E0,-1.853250433E-4,-7.713492960E-5,8.039971814E-3,8.042477350E-3
3.901365167E0,2.315299585E-3,7.884502411E-4,9.326237254E-3,9.641626796E-3
3.911322167E0,-1.055463217E-3,4.017595202E-4,9.197606705E-3,9.266681305E-3
3.921279167E0,1.186764450E-3,-7.219724357E-4,8.478146046E-3,8.591194006E-3
3.931236167E0,-1.482781954E-4,1.655165106E-3,8.596390486E-3,8.755540379E-3
3.941193167E0,-3.177539911E-4,-1.060390845E-3,7.476427592E-3,7.557933969E-3
3.951150167E0,-2.529243007E-3,-1.038020477E-3,4.287292250E-3,5.084823648E-3
3.961106167E0,-1.402746420E-4,8.836379275E-4,7.810827345E-3,7.861902872E-3
3.971063167E0,-1.073712483E-3,5.078660324E-4,9.037479758E-3,9.115197572E-3
3.981020167E0,3.690761514E-4,4.362314939E-6,1.005098410E-2,1.005775907E-2
3.990977167E0,-1.214439515E-3,-2.265339717E-4,1.025604643E-2,1.033018244E-2
4.000934167E0,-4.595611244E-5,-2.397689968E-4,7.424488664E-3,7.428501400E-3
4.010891167E0,3.090430982E-4,-2.251255326E-3,9.884450585E-3,1.014228877E-2
4.020847167E0,-8.454651106E-4,8.003078401E-4,7.081119344E-3,7.176179698E-3
4.030804167E0,-2.433245536E-4,-1.673768274E-3,6.237164140E-3,6.462423971E-3
4.040761167E0,3.153525759E-4,9.211339056E-5,8.408635855E-3,8.415051340E-3
4.050718167E0,-8.305627853E-5,-7.297387347E-4,9.965518489E-3,9.992546008E-3
4.060675167E0,1.026319456E-3,2.019228414E-3,9.953618050E-3,1.020809127E-2
4.070632167E0,-1.777722733E-3,-3.627206199E-3,1.010568440E-2,1.088309607E-2
4.080588167E0,-3.222515807E-5,1.732943580E-3,6.332192570E-3,6.565119546E-3
4.090545167E0,3.243719693E-4,-1.357921399E-3,3.619495779E-3,3.879422302E-3
4.100502167E0,7.876408054E-4,1.150284894E-3,7.715627551E-3,7.840563875E-3
4.110459167E0,-2.741846489E-3,-1.083307900E-3,1.039529964E-2,1.080525487E-2
4.120416167E0,-1.243295148E-3,1.575926319E-3,9.639232419E-3,9.846020934E-3
4.130373167E0,8.502157871E-4,1.524668187E-4,1.014549937E-2,1.018220362E-2
4.140329167E0,-4.738634452E-4,-1.557487994E-3,1.130492054E-2,1.142153859E-2
4.150286167E0,-4.762604367E-4,1.878522336E-3,7.713913918E-3,7.953624212E-3
4.160243167E0,6.504395278E-4,2.914053388E-3,5.676180124E-3,6.413563715E-3
4.170200167E0,-1.450467389E-4,-1.074830070E-3,3.142448142E-3,3.324346336E-3
4.180157167E0,-1.062762225E-3,-1.703866757E-3,5.101397634E-3,5.482415826E-3
4.190114167E0,9.810971096E-5,2.053054050E-3,9.444480762E-3,9.665550854E-3
4.200070167E0,-1.110536745E-3,-5.039768293E-4,9.683772922E-3,9.760263444E-3
4.210027167E0,-1.494018361E-4,-6.030462682E-4,8.985491470E-3,9.006944135E-3
4.219984167E0,7.824365748E-4,4.427842796E-4,4.068878479E-3,4.167017757E-3
4.229941167E0,9.504820919E-4,-1.700092107E-4,5.405518226E-3,5.491078822E-3
4.239898167E0,8.070651675E-4,2.030050382E-4,8.295390755E-3,8.337030227E-3
4.249855167E0,-1.261064317E-4,1.135378145E-3,7.462354377E-3,7.549286007E-3
4.259811167E0,-1.459824154E-3,-4.521822557E-4,1.245597098E-2,1.254937323E-2
4.269768167E0,-1.040109899E-3,-5.648341030E-4,9.167498909E-3,9.243587097E-3
4.279725167E0,2.160312142E-4,1.529448666E-3,7.983770221E-3,8.131818349E-3
4.289682167E0,-4.612107296E-4,7.155863568E-4,5.934467539E-3,5.995221776E-3
4.299639167E0,1.666561235E-3,-5.645053461E-4,6.640404463E-3,6.869575246E-3
4.309596167E0,-9.167050011E-4,8.594868705E-4,4.949828610E-3,5.106845309E-3
4.319552167E0,-1.108134165E-3,2.456414513E-3,7.317779586E-3,7.798194128E-3
4.329509167E0,-2.053224016E-4,-9.479038417E-4,9.293578565E-3,9.344050595E-3
4.339466167E0,-1.009360654E-3,1.800974831E-3,9.470307268E-3,9.692731247E-3
4.349423167E0,-1.848256215E-3,-5.197031423E-4,6.566929631E-3,6.841835073E-3
4.359380167E0,-2.393260133E-3,-6.481120363E-4,6.151812151E-3,6.632686938E-3
4.369337167E0,-2.341062296E-3,-1.841207966E-3,5.962461233E-3,6.664950368E-3
4.379293167E0,1.119854860E-4,2.663115039E-3,8.309744298E-3,8.726773331E-3
4.389250167E0,1.117062406E-3,-4.543811083E-4,9.808039293E-3,9.881898875E-3
4.399207167E0,-4.228199832E-4,2.488814294E-3,9.002065286E-3,9.349339696E-3
4.409164167E0,4.903778899E-4,-2.077441663E-3,9.467320517E-3,9.704967393E-3
4.419121167E0,-5.653628614E-4,3.485754132E-4,8.169762790E-3,8.196716662E-3
4.429078167E0,5.824596155E-4,1.769371331E-3,4.584081471E-3,4.948104389E-3
4.439034167E0,-1.338608330E-3,1.154048368E-3,5.252931267E-3,5.542290753E-3
4.448991167E0,-5.591011140E-4,1.247791573E-3,5.941892043E-3,6.097184507E-3
4.458948167E0,6.314768689E-4,7.047113031E-4,7.147375494E-3,7.209740461E-3
4.468905167E0,-2.519042697E-3,3.369292244E-4,1.231071353E-2,1.257031284E-2
4.478862167E0,-1.081543742E-3,1.249945723E-3,8.692214265E-3,8.847976605E-3
4.488819167E0,-2.240058966E-4,-1.178590581E-3,7.195252925E-3,7.294581486E-3
4.498775167E0,1.788865542E-3,1.903715543E-3,6.505534053E-3,7.010431236E-3
4.508732167E0,5.606156774E-4,1.680276357E-3,1.978691667E-3,2.655718224E-3
4.518689167E0,9.929646039E-4,-1.680777408E-3,6.435546093E-3,6.725120438E-3
4.528646167E0,3.604194149E-3,9.520240128E-4,7.796687074E-3,8.642042265E-3
4.538603167E0,-1.963965595E-3,2.449443564E-4,7.929394022E-3,8.172664691E-3
4.548560167E0,-9.578233585E-4,-1.210738905E-3,8.687861264E-3,8.823958727E-3
4.558516167E0,-2.531786449E-4,4.497673362E-4,6.737662479E-3,6.757402294E-3
4.568473167E0,4.056794569E-5,9.776055813E-4,3.968507051E-3,4.087347141E-3
4.578430167E0,2.399868565E-3,-1.159665175E-3,4.746045917E-3,5.443265958E-3
4.588387167E0,1.734877238E-3,6.795134395E-4,5.994802341E-3,6.277674143E-3
4.598344167E0,1.492056879E-3,-1.264578663E-3,6.161790341E-3,6.464754685E-3
4.608301167E0,1.245980733E-3,4.771286622E-4,1.057944074E-2,1.066323995E-2
4.618257667E0,-1.987769734E-3,4.800911993E-4,1.076788269E-2,1.096033821E-2
4.628214667E0,-2.066332847E-3,4.028594121E-4,6.043968722E-3,6.400123831E-3
4.638171667E0,1.169582014E-3,4.140473902E-5,5.529256538E-3,5.651753206E-3
4.648128667E0,-3.012819216E-4,-2.571363002E-4,4.482634366E-3,4.500100080E-3
4.658085667E0,7.486765971E-4,-1.662170514E-3,6.263414398E-3,6.523318740E-3
4.668042667E0,-1.364008989E-3,2.686213702E-4,9.393960238E-3,9.496271211E-3
4.677998667E0,1.255782670E-3,-6.618387997E-4,9.618449956E-3,9.722633402E-3
4.687955667E0,2.682970604E-3,-5.483878776E-4,6.974196061E-3,7.492561059E-3
4.697912667E0,1.672359882E-3,-1.071170904E-3,5.361597985E-3,5.717598065E-3
4.707869667E0,2.309654374E-3,1.835669391E-3,3.541858867E-3,4.609658303E-3
4.717826667E0,-3.762869164E-5,8.664336056E-4,3.873281181E-3,3.969185082E-3
4.727783667E0,3.394749947E-4,1.585753635E-3,6.634714082E-3,6.830028463E-3
4.737739667E0,-8.296184242E-4,2.066032030E-3,8.396383375E-3,8.686541824E-3
4.747696667E0,5.869168090E-4,1.504637301E-3,9.227024391E-3,9.367303981E-3
4.757653667E0,-1.451688120E-3,1.394931227E-3,7.997393608E-3,8.246910697E-3
4.767610667E0,5.097300746E-4,1.065231860E-3,6.194965914E-3,6.306516181E-3
4.777567667E0,1.057020854E-3,1.356954686E-3,6.988545880E-3,7.197110019E-3
4.787524667E0,3.035483183E-3,-7.493393496E-4,7.373372093E-3,8.008887790E-3
4.797480667E0,1.513815718E-3,5.944548175E-4,7.256504148E-3,7.436522508E-3
4.807437667E0,-1.887432300E-4,-1.208771951E-3,6.558755413E-3,6.671883257E-3
4.817394667E0,1.589791733E-3,-2.426123247E-4,6.402174011E-3,6.601070410E-3
4.827351667E0,1.489923219E-3,1.131046563E-3,7.056245580E-3,7.299982138E-3
4.837308667E0,1.684796647E-3,-3.985967487E-5,7.434779778E-3,7.623390249E-3
4.847265667E0,4.775857087E-4,8.754432201E-8,4.618220031E-3,4.642848735E-3
4.857221667E0,8.529057959E-4,2.717897296E-4,7.282873616E-3,7.337681245E-3
4.867178667E0,1.864108024E-3,-9.322259575E-4,7.824560627E-3,8.097388034E-3
4.877135667E0,2.387264743E-3,-1.686150208E-4,7.867146283E-3,8.223104926E-3
4.887092667E0,-1.807213994E-3,1.206108369E-3,1.015693322E-2,1.038672288E-2
4.897049667E0,7.396512665E-4,5.758730695E-4,1.078349352E-2,1.082416030E-2
4.907006667E0,1.553536858E-4,-1.042796299E-3,7.056666538E-3,7.134991347E-3
4.916963667E0,1.335143461E-3,8.196206763E-4,5.712756887E-3,5.923679377E-3
4.926919667E0,-1.269694418E-3,-1.100518741E-3,6.616899744E-3,6.826904689E-3
4.936876667E0,-8.893837221E-4,-1.551064663E-3,8.756482974E-3,8.937158333E-3
4.946833667E0,6.113075651E-4,7.363241166E-4,9.188713506E-3,9.238415775E-3
4.956790667E0,9.120278992E-5,-1.451000571E-6,1.026713848E-2,1.026754365E-2
4.966747667E0,-8.323416114E-5,7.828501984E-4,8.124358952E-3,8.162413291E-3
4.976704667E0,2.567248419E-3,-1.359293237E-3,5.434008315E-3,6.161727754E-3
4.986660667E0,-5.417258944E-4,1.786816865E-4,7.002875209E-3,7.026069689E-3
4.996617667E0,1.622688607E-3,-1.165903173E-3,5.318330601E-3,5.681292890E-3
5.006574667E0,1.222681836E-3,5.790004507E-4,5.700495094E-3,5.858825540E-3
5.016531667E0,-1.462839078E-3,1.409527846E-3,9.872671217E-3,1.007949919E-2
5.026488667E0,-3.524924628E-3,1.773315482E-3,1.016987860E-2,1.090853667E-2
5.036445667E0,1.187018352E-3,-2.012969926E-3,7.865926251E-3,8.205720948E-3
5.046401667E0,1.126991119E-4,1.644616015E-3,8.474458009E-3,8.633301887E-3
5.056358667E0,4.464457743E-5,3.985371441E-4,3.915918991E-3,3.936400200E-3
5.066315667E0,-7.090300787E-4,2.753570676E-3,4.891967401E-3,5.658287742E-3
5.076272667E0,-1.897776499E-3,1.404309645E-3,5.064617842E-3,5.587843512E-3
5.086229667E0,1.662869705E-3,-5.318084732E-4,9.083861485E-3,9.250107858E-3
5.096186667E0,6.771043409E-4,3.670249134E-5,1.030386426E-2,1.032615301E-2
5.106142667E0,4.540267400E-5,-1.024034806E-3,8.773878217E-3,8.833552380E-3
5.116099667E0,6.262003444E-5,2.831192687E-4,5.489405245E-3,5.497058098E-3
5.126056667E0,4.189508036E-4,-9.714961052E-4,6.169844419E-3,6.259896533E-3
5.136013667E0,-1.272127265E-3,3.258017823E-4,4.437172785E-3,4.627413630E-3
5.145970667E0,-5.775748286E-4,-2.066249959E-3,9.247107431E-3,9.492732874E-3
5.155927667E0,2.267456846E-3,1.734916121E-3,6.237536669E-3,6.859894911E-3
5.165883667E0,-1.192255644E-3,-6.102630869E-4,6.491336972E-3,6.628072890E-3
5.175840667E0,-3.427260090E-4,-3.030495718E-4,7.460614666E-3,7.474628510E-3
5.185797667E0,-1.705998322E-3,-4.742909223E-4,6.839565933E-3,7.065057983E-3
5.195754667E0,-2.924816217E-4,1.198714599E-4,5.369085819E-3,5.378382396E-3
5.205711667E0,-1.427520998E-3,-5.792081356E-4,3.902748227E-3,4.195800518E-3
5.215668667E0,-1.815289259E-3,1.183783635E-3,4.777152091E-3,5.245741215E-3
5.225624667E0,-2.273885533E-3,-1.004535705E-3,4.879416898E-3,5.476162586E-3
5.235581667E0,5.985096795E-4,-6.744563580E-4,5.925122648E-3,5.993344944E-3
5.245538667E0,1.568965614E-3,-1.798663288E-5,9.198414162E-3,9.331280711E-3
5.255495667E0,2.120501595E-3,1.286600716E-3,8.181547746E-3,8.549245109E-3
5.265452667E0,1.530345180E-3,2.836538479E-4,4.068296403E-3,4.355852557E-3
5.275409667E0,-5.566063337E-4,1.824327745E-3,2.532532439E-3,3.170442064E-3
5.285365667E0,6.474087713E-4,1.699957997E-3,3.239601851E-3,3.715375547E-3
5.295322667E0,-2.458828734E-3,1.802450046E-3,5.927037448E-3,6.665166001E-3
5.305279667E0,1.316280104E-4,1.689798199E-3,8.959047496E-3,9.117964462E-3
5.315236667E0,4.430674016E-5,8.738962933E-4,6.944514811E-3,6.999424532E-3
5.325193667E0,-3.631568979E-4,2.477651462E-3,7.187662646E-3,7.611381873E-3
5.335150667E0,7.806159556E-5,7.108245045E-4,5.015339702E-3,5.066063306E-3
5.345106667E0,2.350803232E-3,-4.817638546E-5,-1.509264112E-4,2.356135730E-3
5.355063667E0,1.431636163E-3,-3.135859035E-3,2.961304039E-3,4.544503889E-3
5.365020667E0,-5.066124722E-4,-1.166718081E-3,4.931244999E-3,5.092648085E-3
5.374977667E0,3.521977924E-4,-2.391932532E-3,8.282747120E-3,8.628399873E-3
5.384934667E0,-1.354355831E-3,3.295512870E-4,7.581537589E-3,7.708605320E-3
5.394891667E0,7.658475079E-5,7.212413475E-4,8.148195222E-3,8.180411951E-3
5.404848667E0,-3.110686317E-3,1.201666892E-4,5.091419443E-3,5.967693134E-3
5.414804667E0,3.399101784E-3,6.620530039E-4,3.711430356E-3,5.076112923E-3
5.424761667E0,-1.042784657E-3,5.941428244E-4,3.891460598E-3,4.072329937E-3
5.434718667E0,7.738503627E-4,5.361028016E-4,6.450546905E-3,6.518880730E-3
5.444675667E0,-5.689153913E-4,1.697241329E-3,8.740331978E-3,8.921754084E-3
5.454632667E0,1.385644777E-3,-1.001837663E-3,9.016204625E-3,9.176907758E-3
5.464589667E0,1.425858471E-3,-9.608250111E-4,1.036988944E-2,1.051146346E-2
5.474545667E0,-5.610811058E-4,5.704788491E-4,4.463268444E-3,4.534426461E-3
5.484502667E0,-1.897188835E-3,3.345226869E-4,3.385487944E-3,3.895222654E-3
5.494459667E0,1.029729377E-3,1.050112769E-4,2.338871360E-3,2.557672613E-3
5.504416667E0,1.752511365E-3,-6.332173944E-4,8.415672928E-3,8.619501795E-3
5.514373667E0,1.600772375E-3,-1.045987941E-3,8.365092799E-3,8.580870615E-3
5.524330667E0,2.595463069E-3,-1.442265697E-3,7.949905470E-3,8.486315800E-3
5.534286667E0,-6.047543138E-6,-2.707988024E-4,4.808712751E-3,4.816335420E-3
5.544243667E0,5.946611054E-5,-2.135810442E-3,1.328760758E-3,2.516113594E-3
5.554200667E0,-1.603197306E-4,-1.170805655E-3,1.846484840E-3,2.192257869E-3
5.564157667E0,-1.396293053E-3,2.915365621E-4,6.342433393E-3,6.500852960E-3
5.574114667E0,1.217333833E-3,-3.964938223E-4,6.700126454E-3,6.821349098E-3
5.584071667E0,1.474062563E-3,-1.233525574E-3,7.117444649E-3,7.372412368E-3
5.594027667E0,8.939377731E-4,-7.792292163E-4,7.970385253E-3,8.058124099E-3
5.603984667E0,-2.821141388E-4,5.065454170E-4,6.388468668E-3,6.414725915E-3
5.613941292E0,-9.140255861E-5,-2.263106406E-3,4.439294338E-3,4.983707380E-3
5.623898292E0,-5.974031519E-4,4.958268255E-5,4.243819043E-3,4.285947858E-3
5.633855292E0,4.540360533E-4,-2.052622847E-3,1.510605216E-3,2.588694151E-3
5.643812292E0,3.927832004E-4,-2.232966945E-4,6.766354665E-3,6.781422823E-3
5.653769292E0,-6.404195447E-4,2.699516714E-3,9.164525196E-3,9.575283272E-3
5.663725292E0,-1.763208071E-3,-1.830887049E-4,7.813770324E-3,8.012329926E-3
5.673682292E0,6.106630899E-4,2.513465472E-3,9.137365967E-3,9.496413792E-3
5.683639292E0,2.184324898E-3,-8.977781981E-4,4.660593346E-3,5.224788157E-3
5.693596292E0,2.999971388E-3,-4.030866548E-4,7.168941200E-3,7.781775190E-3
5.703553292E0,-1.063213451E-3,7.487311959E-4,3.346771002E-3,3.590528845E-3
5.713510292E0,2.165979240E-4,1.255805604E-3,5.323192105E-3,5.473603617E-3
5.723466292E0,-5.104974844E-5,-1.637718640E-3,8.375441656E-3,8.534210646E-3
5.733423292E0,9.439154528E-4,1.100082882E-3,8.550181985E-3,8.672183733E-3
5.743380292E0,1.714101643E-3,1.517320052E-4,6.593024358E-3,6.813892957E-3
5.753337292E0,-1.233252697E-3,1.654081047E-3,4.398053512E-3,4.857959553E-3
5.763294292E0,-3.462584922E-3,5.430104211E-4,2.453679219E-3,4.278422182E-3
5.773251292E0,3.770499025E-4,-2.036020160E-4,4.908358678E-3,4.927028042E-3
5.783207292E0,7.669366896E-4,-7.417239249E-5,5.388526246E-3,5.443336158E-3
5.793164292E0,1.058159629E-3,-3.854166716E-4,5.701066926E-3,5.811231531E-3
5.803121292E0,-1.615681686E-4,-1.107665710E-3,7.653696463E-3,7.735121016E-3
5.813078292E0,-1.882602926E-3,-1.064188778E-3,4.741357639E-3,5.211253573E-3
5.823035292E0,-7.805868518E-4,-1.267653890E-3,5.632717162E-3,5.826127775E-3
5.832992292E0,1.021855627E-3,-1.873048022E-4,2.700047567E-3,2.893013805E-3
5.842948292E0,-6.069336087E-4,7.258923724E-4,5.369067192E-3,5.451804349E-3
5.852905292E0,1.076496788E-3,8.148616180E-4,7.443340495E-3,7.564797586E-3
5.862862292E0,-9.376518428E-4,1.727792434E-3,9.131519124E-3,9.340722626E-3
5.872819292E0,6.008427590E-4,-2.379184589E-4,8.955424652E-3,8.978710815E-3
5.882776292E0,1.333212014E-3,-1.992941834E-3,3.652270883E-3,4.369022091E-3
5.892733292E0,1.822526450E-3,-9.664632380E-4,1.248314977E-3,2.411212171E-3
5.902690292E0,-2.406244166E-4,1.829589717E-3,3.664867952E-3,4.103237228E-3
5.912646292E0,1.443144749E-3,7.304549217E-5,4.374813288E-3,4.607276171E-3
5.922603292E0,1.561122830E-3,8.955691010E-5,7.500031963E-3,7.661305657E-3
5.932560292E0,9.235832840E-5,2.202279866E-3,7.695076987E-3,8.004547239E-3
5.942517292E0,1.450888813E-4,-3.165321425E-3,7.211446762E-3,7.876882309E-3
5.952474292E0,1.349321450E-3,-4.154788330E-4,6.173985079E-3,6.333354782E-3
5.962431292E0,-2.198130824E-4,-1.296452247E-3,5.436288193E-3,5.593061374E-3
5.972387292E0,1.228401437E-3,-6.509032100E-4,2.911226824E-3,3.226125649E-3
5.982344292E0,-5.516554229E-4,1.232484356E-3,6.050294265E-3,6.199145271E-3
5.992301292E0,-7.366167847E-4,9.549725801E-4,7.938142866E-3,8.029239632E-3
6.002258292E0,-1.333697466E-3,-4.207831807E-3,4.598006606E-3,6.373873406E-3
6.012215292E0,6.693883333E-4,-2.427389845E-4,8.551327512E-3,8.580920998E-3
6.022172292E0,-2.076863311E-3,1.057416201E-3,5.105730146E-3,5.612483457E-3
6.032128292E0,-2.966057509E-4,6.923172623E-5,5.779175088E-3,5.787195582E-3
6.042085292E0,5.526763853E-4,-1.939856447E-3,4.815377295E-3,5.220761699E-3
6.052042292E0,-1.275872346E-3,-1.210582443E-3,4.256842658E-3,4.605873371E-3
6.061999292E0,-2.227419522E-3,1.332736574E-3,6.578851491E-3,7.072402099E-3
6.071956292E0,-2.332751174E-3,5.134055391E-4,5.392529070E-3,5.897854106E-3
6.081913292E0,-3.259531222E-3,-1.063452102E-3,6.531830877E-3,7.377010829E-3
6.091870292E0,8.105908055E-4,2.501150593E-4,4.748361185E-3,4.823541121E-3
6.101826292E0,2.136578551E-3,-1.197312959E-3,4.761144519E-3,5.354159444E-3
6.111783292E0,-2.472059103E-3,4.990948364E-4,3.003764898E-3,3.922088146E-3
6.121740292E0,1.114686369E-3,6.101485342E-4,4.900202155E-3,5.062290795E-3
6.131697292E0,1.245550578E-3,2.238172106E-3,6.267892197E-3,6.771062192E-3
6.141654292E0,-9.992278647E-4,6.669070572E-4,8.625056595E-3,8.708319161E-3
6.151611292E0,2.762950258E-3,-1.102942973E-3,4.416707903E-3,5.325193521E-3
6.161567292E0,-3.347672755E-3,-8.917544037E-4,5.365591496E-3,6.386838881E-3
6.171524292E0,-2.772854641E-4,-7.808320224E-4,5.799291655E-3,5.858188251E-3
6.181481292E0,-1.081293914E-3,-5.701761693E-4,4.205388948E-3,4.379451290E-3
6.191438292E0,1.733792014E-4,5.082925782E-4,7.413258776E-3,7.432686417E-3
6.201395292E0,5.528796464E-4,4.606219009E-4,5.657702684E-3,5.703283975E-3
6.211352292E0,-4.602456465E-5,-3.072712570E-4,6.863255054E-3,6.870284115E-3
6.221308292E0,-2.111403737E-4,1.433352008E-4,5.312496796E-3,5.318622702E-3
6.231265292E0,2.679342870E-3,-7.774829865E-4,3.275519237E-3,4.302602036E-3
6.241222292E0,1.542705810E-3,-1.240873709E-3,7.233241573E-3,7.499299463E-3
6.251179292E0,-3.877778072E-4,3.498652950E-4,6.349224597E-3,6.370669536E-3
6.261136292E0,-1.845858293E-3,2.457359806E-4,4.732152447E-3,5.085356014E-3
6.271093292E0,1.619633636E-3,6.244694814E-4,3.314262256E-3,3.741324572E-3
6.281050292E0,-7.433891296E-4,1.178407110E-3,4.016006365E-3,4.250832606E-3
6.291006292E0,-2.128390130E-3,-5.888817832E-4,5.684601143E-3,6.098484767E-3
6.300963292E0,1.617612317E-3,-1.677049324E-3,7.431901991E-3,7.788602651E-3
6.310920292E0,-4.981155507E-4,-1.459753141E-3,6.628802046E-3,6.805880906E-3
6.320877292E0,-8.531147614E-4,-7.771849632E-4,3.195986152E-3,3.397962440E-3
6.330834292E0,2.302200301E-3,-1.864474267E-3,3.668852150E-3,4.715598225E-3
6.340791292E0,1.330412691E-3,2.101277933E-4,3.049667925E-3,3.333860535E-3
6.350747292E0,1.692154678E-3,2.473294735E-3,4.081292078E-3,5.063350603E-3
6.360704292E0,-5.158721469E-4,-8.407430723E-4,6.326869130E-3,6.403299616E-3
6.370661292E0,2.019079635E-3,-1.845080405E-3,5.335895345E-3,5.996063993E-3
6.380618292E0,-1.228379086E-3,5.272636190E-4,7.439527661E-3,7.558670116E-3
6.390575292E0,-1.432832796E-4,1.860972494E-3,5.439123139E-3,5.750461655E-3
6.400532292E0,-9.669989813E-4,-1.216842793E-3,3.843624145E-3,4.145990832E-3
6.410488292E0,1.673925784E-3,7.382715121E-4,3.270497546E-3,3.747429326E-3
6.420445292E0,8.134584641E-4,-2.272432670E-3,3.798868507E-3,4.500785137E-3
6.430402292E0,-3.065252677E-4,6.286371499E-4,7.511055097E-3,7.543546320E-3
6.440359292E0,-1.267393818E-3,1.118126325E-3,8.164327592E-3,8.337429975E-3
6.450316292E0,-1.307989238E-3,-5.582077429E-4,6.677689031E-3,6.827441872E-3
6.460273292E0,-5.756199826E-4,-2.631212585E-3,2.985483035E-3,4.020911213E-3
6.470230292E0,7.440623594E-4,-2.570882440E-3,2.208620310E-3,3.470024349E-3
6.480186292E0,-2.506284509E-4,-8.744485676E-4,3.737807274E-3,3.846905007E-3
6.490143292E0,3.820355050E-3,-2.416828647E-4,3.842756152E-3,5.424048134E-3
6.500100292E0,1.129763550E-3,1.265931875E-3,7.668120787E-3,7.853599531E-3
6.510057292E0,9.617358446E-4,7.502902299E-4,6.562795490E-3,6.675189578E-3
6.520014292E0,-2.153813839E-4,-1.198344864E-3,5.404587835E-3,5.540035128E-3
6.529971292E0,-8.072878700E-4,-1.035142690E-3,5.533093587E-3,5.686682577E-3
6.539927292E0,2.749363659E-3,-1.161110587E-3,3.403097391E-3,4.526394832E-3
6.549884292E0,-6.408824120E-4,-7.155993953E-4,5.236156285E-3,5.323546318E-3
6.559841292E0,1.455489546E-4,4.250323400E-4,5.601275712E-3,5.619263884E-3
6.569798292E0,-2.093669027E-4,6.054975092E-4,6.213568151E-3,6.246510298E-3
6.579755292E0,-1.170501811E-3,-1.678163186E-3,7.957672700E-3,8.216499314E-3
6.589712292E0,-1.429031836E-3,1.360265538E-3,5.150416866E-3,5.515364740E-3
6.599669292E0,-5.965277087E-4,1.037856564E-4,4.154395312E-3,4.198287410E-3
6.609625292E0,-6.459672004E-4,2.495026216E-3,4.626143724E-3,5.295624155E-3
6.619582292E0,-1.475541852E-3,-2.085610293E-3,6.084226072E-3,6.598848456E-3
6.629539292E0,1.480101724E-3,4.618326202E-4,4.023818299E-3,4.312204099E-3
6.639496292E0,-1.078663394E-3,-2.863923088E-3,6.325323135E-3,7.026754793E-3
6.649453292E0,-3.328248626E-3,-1.061516814E-3,6.062744185E-3,6.997208295E-3
6.659410292E0,4.973823670E-4,-1.675109379E-3,3.468293697E-3,3.883611955E-3
6.669366292E0,-1.100683818E-3,4.947744310E-4,3.406528383E-3,3.613964891E-3
6.679323292E0,-2.319605555E-4,1.885108650E-4,3.635294735E-3,3.647562180E-3
6.689280292E0,-1.804029103E-3,1.479834318E-4,5.972743034E-3,6.240999876E-3
6.699237292E0,2.476703376E-4,1.647343859E-3,7.139474154E-3,7.331246386E-3
6.709194292E0,1.431972720E-3,2.987924963E-4,8.166482672E-3,8.296460815E-3
6.719151292E0,-3.187812632E-3,-9.233327582E-4,4.710232839E-3,5.762029691E-3
6.729108292E0,-1.053868327E-4,-9.233048186E-4,5.202276632E-3,5.284626792E-3
6.739064292E0,-2.156553324E-3,1.914948225E-4,3.952188417E-3,4.506349497E-3
6.749021292E0,6.592832506E-5,4.426985979E-4,2.249913290E-3,2.294000524E-3
6.758978292E0,-3.013215028E-4,-7.088528946E-4,5.320804194E-3,5.376264906E-3
6.768935292E0,1.700294670E-4,-7.013697177E-5,8.313786238E-3,8.315820515E-3
6.778892292E0,-8.696573786E-5,-1.513835974E-3,6.952378899E-3,7.115815818E-3
6.788849292E0,8.691457333E-4,5.360068753E-4,6.404181942E-3,6.485080110E-3
6.798805292E0,4.265282769E-4,7.874239236E-5,7.144540548E-3,7.157694208E-3
6.808762292E0,5.760055501E-4,-1.439070329E-4,6.806232035E-3,6.832077733E-3
6.818719292E0,2.605866874E-3,1.508370042E-5,4.885293543E-3,5.536863976E-3
6.828676292E0,1.146941213E-3,3.276681527E-4,4.266811535E-3,4.430408699E-3
6.838633292E0,9.021967417E-4,5.295351148E-4,6.834631786E-3,6.914228666E-3
6.848590292E0,5.559856072E-4,5.837725475E-4,4.223551601E-3,4.299802148E-3
6.858547292E0,-9.596194141E-4,6.178608164E-4,4.480279982E-3,4.623367834E-3
6.868503292E0,-1.194441225E-3,-7.236944512E-4,6.476514041E-3,6.625379810E-3
6.878460292E0,3.621885553E-3,-1.325834543E-3,3.019198775E-3,4.898107128E-3
6.888417292E0,2.116668038E-3,-1.121405512E-3,3.120586276E-3,3.933941104E-3
6.898374292E0,-1.530531328E-3,3.083192743E-3,5.250582471E-3,6.278313462E-3
6.908331292E0,1.955672400E-3,7.465761155E-5,4.027221352E-3,4.477581949E-3
6.918288292E0,2.397757256E-3,9.079612792E-4,2.777133137E-3,3.779696020E-3
6.928244292E0,-5.175878759E-4,7.095448673E-4,2.095427364E-3,2.272040265E-3
6.938201292E0,-1.830259804E-3,-1.095279120E-3,4.235278815E-3,4.742053768E-3
6.948158292E0,-1.790702343E-3,-5.631186068E-4,2.803208306E-3,3.373676667E-3
6.958115292E0,1.472202595E-3,1.958105713E-5,7.095692679E-3,7.246835068E-3
6.968072292E0,-1.737223938E-4,-1.536836848E-3,5.268203095E-3,5.490538299E-3
6.978029292E0,-8.264631033E-4,1.303690486E-3,3.204785287E-3,3.557147577E-3
6.987986292E0,-3.584248479E-4,4.037767649E-4,4.189969972E-3,4.224612694E-3
6.997942292E0,5.321362987E-4,1.471438445E-3,3.932442516E-3,4.232304843E-3
7.007899292E0,1.134069404E-3,1.697340980E-3,3.156285733E-3,3.758885399E-3
7.017856292E0,-7.340777665E-5,4.222197458E-4,5.227958784E-3,5.245494377E-3
7.027813292E0,1.498828875E-3,-2.167979255E-4,3.425689414E-3,3.745508951E-3
7.037770292E0,7.406269433E-4,1.528495923E-4,5.178848282E-3,5.233771182E-3
7.047727292E0,-3.935338464E-4,1.585285179E-3,7.664006203E-3,7.836133554E-3
7.057683292E0,9.026267799E-4,1.174891368E-3,5.146520212E-3,5.355536866E-3
7.067640292E0,-3.542965278E-4,-2.321256325E-3,2.791415900E-3,3.647706085E-3
7.077597292E0,-2.982303966E-3,9.658830240E-4,3.463331610E-3,4.671373760E-3
7.087554292E0,1.380449394E-3,6.782570854E-4,3.955598921E-3,4.244106033E-3
7.097511292E0,2.085121814E-3,5.578817800E-4,6.615564227E-3,6.958782588E-3
7.107468292E0,1.546994084E-3,3.059748560E-4,3.912631422E-3,4.218470808E-3
7.117425292E0,2.376302611E-3,8.173026145E-4,7.467418909E-3,7.878904926E-3
7.127381292E0,-1.141241984E-3,-1.730700955E-3,3.939341754E-3,4.451535973E-3
7.137338292E0,1.820459380E-3,1.687466167E-3,7.312987000E-4,2.587742686E-3
7.147295292E0,-1.262886915E-3,-2.446834929E-3,2.976270393E-3,4.054635616E-3
7.157252292E0,-1.688726246E-3,2.525458112E-4,3.511300310E-3,3.904459706E-3
7.167209292E0,1.438106410E-4,1.292906702E-3,6.215749308E-3,6.350419569E-3
7.177166292E0,-9.078716394E-4,1.309950836E-3,6.398709491E-3,6.594216046E-3
7.187123292E0,-3.723232076E-4,3.387834877E-4,4.903838038E-3,4.929607117E-3
7.197079292E0,-2.507379511E-3,-9.304787964E-4,3.479046747E-3,4.388223909E-3
7.207036292E0,-8.252565749E-5,-1.140304841E-3,3.884386271E-3,4.049143406E-3
7.216993292E0,1.937748282E-3,3.489349037E-4,4.803976044E-3,5.191802173E-3
7.226950292E0,1.901155454E-3,-1.848693006E-3,1.640027389E-3,3.117971733E-3
7.236907292E0,5.957949907E-5,-4.067365080E-5,3.773219883E-3,3.773909425E-3
7.246864292E0,2.223663731E-3,-1.969478093E-3,4.381489009E-3,5.293483756E-3
7.256820292E0,1.594358822E-3,-6.855688989E-4,3.767097369E-3,4.147650824E-3
7.266777292E0,7.196668303E-4,2.358326688E-3,6.574232131E-3,7.021406784E-3
7.276734292E0,-8.260319009E-4,-5.676876754E-4,5.438126624E-3,5.529721437E-3
7.286691292E0,6.139880279E-4,3.178488463E-3,5.650157109E-3,6.511838877E-3
7.296648292E0,-8.089388721E-4,-6.093261763E-4,2.408556640E-3,2.612815642E-3
7.306605292E0,3.957808949E-4,1.583382487E-3,2.416666597E-3,2.916165300E-3
7.316562292E0,7.395949215E-4,8.890964091E-4,2.622528002E-3,2.866207632E-3
7.326518292E0,-3.063271288E-4,-3.963895142E-4,5.145957693E-3,5.170284474E-3
7.336475292E0,-2.005996648E-4,5.399780348E-4,5.929991603E-3,5.957903735E-3
7.346432292E0,-1.673752675E-3,2.721571364E-3,8.327096701E-3,8.919021144E-3
7.356389292E0,3.473204561E-4,1.937536523E-3,3.658307716E-3,4.154262224E-3
7.366346292E0,-2.157241106E-4,-8.322512731E-4,2.545272931E-3,2.686557904E-3
7.376303292E0,-2.732484136E-4,-1.957170665E-3,2.261113375E-3,3.002967766E-3
7.386259292E0,8.879569359E-4,-4.290342331E-4,5.303375423E-3,5.394286679E-3
7.396216292E0,5.220386665E-4,1.306814142E-3,2.454858273E-3,2.829596563E-3
7.406173292E0,-3.559042234E-4,-1.661384478E-3,3.562368453E-3,3.946813296E-3
7.416130292E0,9.778067470E-4,4.049623385E-4,4.965322092E-3,5.076861630E-3
7.426087292E0,-2.872955520E-3,1.859569922E-3,3.769654781E-3,5.091382020E-3
7.436044292E0,-2.524613868E-3,1.602042466E-3,4.377121106E-3,5.300887136E-3
7.446001292E0,6.986828521E-4,1.961679198E-3,5.528371781E-3,5.907557664E-3
7.455957292E0,1.038235845E-3,-1.411978155E-5,1.440953463E-3,1.776085561E-3
7.465914292E0,4.038473126E-4,-1.117791049E-3,2.257198095E-3,2.550978777E-3
7.475871292E0,-1.786869019E-3,-1.071984880E-3,2.607405186E-3,3.337755874E-3
7.485828292E0,-5.786004476E-4,8.487440646E-4,5.808217451E-3,5.898350187E-3
7.495785292E0,-4.266812000E-3,1.626120880E-3,6.335522979E-3,7.809532969E-3
7.505742292E0,2.776251407E-3,-1.460989937E-3,3.310691565E-3,4.561002315E-3
7.515699292E0,5.849567242E-5,-1.933248714E-4,1.324238256E-3,1.339553361E-3
7.525655292E0,-2.081051935E-4,1.581721008E-4,3.810044378E-3,3.819000438E-3
7.535612292E0,-2.354825847E-5,-8.098874241E-4,4.944283515E-3,5.010230697E-3
7.545569292E0,-3.653531894E-5,1.753685065E-3,2.197405323E-3,2.811642988E-3
7.555526292E0,2.748598345E-3,1.603160053E-4,3.414470702E-3,4.386240333E-3
7.565483292E0,-2.480438678E-3,-1.951837912E-4,4.715073854E-3,5.331284479E-3
7.575440292E0,-2.456736518E-3,1.279675402E-3,2.682549879E-3,3.856059816E-3
7.585397292E0,-3.599317279E-4,1.325248741E-3,2.422083169E-3,2.784299185E-3
7.595353292E0,-8.100061677E-4,3.356179222E-4,4.476977512E-3,4.562025540E-3
7.605310292E0,-5.877863150E-4,-1.326468773E-3,5.965303630E-3,6.139206753E-3
7.615267167E0,1.662851078E-3,-2.222622745E-3,2.850204706E-3,3.978541497E-3
7.625224167E0,-2.096651588E-4,-4.130359739E-4,1.345589757E-3,1.423084674E-3
7.635181167E0,-1.689188648E-4,5.166735500E-4,7.276982069E-3,7.297256551E-3
7.645138167E0,7.429445395E-4,-8.388822898E-4,3.870978951E-3,4.029909196E-3
7.655094167E0,7.123182295E-4,-2.708304673E-4,3.671774641E-3,3.750023388E-3
7.665051167E0,4.408196546E-4,4.597185180E-4,3.126351163E-3,3.190569648E-3
7.675008167E0,-1.133108512E-3,1.180369407E-3,4.656337202E-3,4.935451648E-3
7.684965167E0,6.195371971E-4,1.215226017E-3,5.236895755E-3,5.411624318E-3
7.694922167E0,-2.055874560E-3,6.554303691E-4,2.701833844E-3,3.457761602E-3
7.704879167E0,1.468129922E-4,1.249973662E-3,4.919826984E-3,5.078256174E-3
7.714836167E0,1.002486795E-3,2.648709342E-4,2.869991586E-3,3.051555028E-3
7.724792167E0,-1.377667300E-3,-3.603929654E-4,4.548652098E-3,4.766349356E-3
7.734749167E0,2.216002205E-3,2.534650266E-4,5.744146183E-3,6.161990398E-3
7.744706167E0,-9.522598702E-4,-5.648899823E-4,1.040503383E-3,1.519390286E-3
7.754663167E0,-2.023649402E-3,-1.192863099E-3,1.940118149E-3,3.046660091E-3
7.764620167E0,1.057638205E-3,-1.971111633E-3,1.115335152E-3,2.499570391E-3
7.774577167E0,1.001711818E-3,8.499743417E-4,3.352923319E-3,3.601107848E-3
7.784534167E0,6.924798945E-4,5.562761799E-4,4.400134087E-3,4.488892021E-3
7.794490167E0,-7.139353547E-4,-5.872854963E-4,2.104489133E-3,2.298582706E-3
7.804447167E0,-1.221749233E-3,2.839053050E-4,4.274876788E-3,4.455092027E-3
7.814404167E0,1.436884399E-3,9.994972497E-4,4.824819043E-3,5.132495526E-3
7.824361167E0,-1.871094573E-4,6.359592080E-4,-2.255737782E-4,7.002410961E-4
7.834318167E0,1.254725852E-3,-1.766212285E-3,1.664472744E-3,2.732089368E-3
7.844275167E0,-6.693277974E-4,1.128913835E-3,3.609724343E-3,3.840905619E-3
7.854232167E0,-1.143903006E-3,1.883920282E-3,6.041988730E-3,6.431430442E-3
7.864188167E0,1.011125278E-4,4.461221397E-5,5.462916568E-3,5.464034354E-3
7.874145167E0,3.307292238E-3,-7.247747853E-4,2.181369811E-3,4.027636365E-3
7.884102167E0,1.145277754E-3,2.003714442E-3,2.760473639E-3,3.598158892E-3
7.894059167E0,-1.811363734E-3,1.776813529E-3,1.296533272E-3,2.849404047E-3
7.904016167E0,1.280976576E-3,1.140517183E-3,-1.083759591E-3,2.028845801E-3
7.913973167E0,-4.021411296E-4,6.941715255E-4,-2.129059285E-4,8.300123670E-4
7.923930167E0,-1.849411987E-3,4.763314500E-4,1.486111432E-4,1.915542121E-3
7.933886167E0,2.235078020E-3,2.892035991E-5,2.611503005E-3,3.437492995E-3
7.943843167E0,-6.162950303E-4,3.549857065E-4,4.957003519E-3,5.007765800E-3
7.953800167E0,-1.404857030E-3,1.961138099E-3,4.495477304E-3,5.101862612E-3
7.963757167E0,-3.190333955E-4,7.684919983E-4,3.713175654E-3,3.805264209E-3
7.973714167E0,-5.717673339E-4,-1.901060343E-3,-3.529822454E-3,4.049764792E-3
7.983671167E0,1.724055503E-3,-9.127473459E-4,4.375949502E-4,1.999240964E-3
7.993628167E0,1.044683158E-3,2.756290138E-3,3.052819520E-3,4.243607575E-3
8.003584167E0,6.243214011E-5,-6.078323349E-4,4.910489544E-3,4.948359878E-3
8.013541167E0,-2.201292664E-4,1.999046654E-4,6.449529901E-3,6.456380930E-3
8.023498167E0,1.435552258E-4,-1.405116171E-3,1.713162288E-3,2.220334340E-3
8.033455167E0,-3.572353395E-3,-2.649079077E-3,3.304932266E-3,5.540930068E-3
8.043412167E0,2.088437323E-3,9.528333321E-4,3.086607903E-3,3.846636213E-3
8.053369167E0,-1.594447996E-3,-9.566526860E-4,1.589378342E-3,2.446134152E-3
8.063325167E0,4.497102927E-4,-2.664346248E-4,5.152633414E-3,5.179078861E-3
8.073282167E0,4.049690906E-4,-2.400698140E-4,5.552107468E-3,5.572031121E-3
8.083239167E0,-7.652502973E-4,1.186280511E-3,4.379104823E-3,4.601024725E-3
8.093196167E0,-5.633826368E-4,-2.180754207E-3,4.383632913E-3,4.928420277E-3
8.103153167E0,-9.398497641E-4,-5.345027894E-4,1.588031650E-3,1.921159892E-3
8.113110167E0,-5.326524843E-4,-1.333983615E-3,7.917471230E-4,1.640150743E-3
8.123067167E0,8.131081704E-4,-1.139116473E-3,8.798241615E-4,1.653124857E-3
8.133024167E0,-1.158696366E-3,-2.441401593E-3,4.711315036E-3,5.431344988E-3
8.142980167E0,1.626973273E-3,8.107433096E-4,3.678843379E-3,4.103441891E-3
8.152937167E0,1.094873645E-3,-2.734288573E-4,2.906261012E-3,3.117669756E-3
8.162894167E0,-2.921337727E-4,-1.428209245E-3,5.707608536E-3,5.890833471E-3
8.172851167E0,-9.086555801E-4,2.205539495E-4,2.058811486E-3,2.261195202E-3
8.182808167E0,-9.092565160E-4,-1.269130036E-3,3.099896014E-3,3.470849141E-3
8.192765167E0,2.791738370E-3,-7.149269804E-4,2.159001306E-3,3.600862446E-3
8.202721167E0,1.741095213E-3,-1.072266139E-3,2.511454746E-3,3.238606515E-3
8.212678167E0,4.073840100E-4,1.185561530E-3,5.658777431E-3,5.795971004E-3
8.222635167E0,8.553294465E-4,-1.110341400E-3,3.160977736E-3,3.457777716E-3
8.232592167E0,-1.968855504E-4,2.552836202E-3,5.431588739E-3,6.004822464E-3
8.242549167E0,4.876535386E-4,-1.508801244E-3,4.192985594E-3,4.482791024E-3
8.252506167E0,-1.014635665E-3,8.614128456E-4,2.362327650E-3,2.711477374E-3
8.262463167E0,1.091087586E-3,-2.946295775E-3,2.114906907E-3,3.787342359E-3
8.272419167E0,4.492658190E-4,-4.025362432E-5,-4.433263093E-4,6.324542252E-4
8.282376167E0,5.652382970E-4,-1.130084507E-3,3.292270005E-3,3.526418454E-3
8.292333167E0,-3.231922165E-4,-1.252856106E-3,3.550862893E-3,3.779249782E-3
8.302290167E0,1.715885941E-3,-9.268950671E-4,4.133813083E-3,4.570755915E-3
8.312247167E0,-2.838119632E-3,1.746229827E-5,1.946559176E-3,3.441557874E-3
8.322204167E0,-1.096251421E-3,-2.072136849E-4,3.755368292E-3,3.917587995E-3
8.332161167E0,-2.256590640E-3,-4.341155291E-4,1.637622714E-3,2.821784145E-3
8.342117167E0,-4.736287519E-4,-1.526111737E-4,2.009492368E-3,2.070186934E-3
8.352074167E0,2.411636524E-4,-4.623364657E-4,3.324827179E-3,3.365470352E-3
8.362031167E0,-1.776900608E-4,-1.491269097E-3,4.123434424E-3,4.388413008E-3
8.371988167E0,1.629797509E-3,-5.285367370E-4,2.829670906E-3,3.307964395E-3
8.381945167E0,7.408055244E-4,-2.453513443E-4,3.887521103E-3,3.965073824E-3
8.391902167E0,-1.091981772E-3,1.864937134E-3,2.992166206E-3,3.690998958E-3
8.401859167E0,1.643463038E-4,-2.162932418E-3,9.617656469E-4,2.372821003E-3
8.411815167E0,4.423758946E-5,-2.308075316E-3,3.795977682E-4,2.339500608E-3
8.421772167E0,1.089636236E-3,7.109446451E-4,3.336735070E-3,3.581417365E-3
8.431729167E0,1.115202555E-3,7.572835311E-4,1.767601818E-3,2.222964523E-3
8.441686167E0,1.735415077E-3,1.306602731E-3,2.866858616E-3,3.596909022E-3
8.451643167E0,3.287333529E-4,-1.380792819E-3,4.200836644E-3,4.434149629E-3
8.461600167E0,4.092860036E-5,-2.792077139E-4,3.369450569E-3,3.381246698E-3
8.471557167E0,1.927511883E-3,-1.455163583E-4,3.353472799E-3,3.870692042E-3
8.481513167E0,-6.884071045E-4,-2.882005647E-4,1.438517123E-3,1.620584901E-3
8.491470167E0,2.984749153E-5,-1.065731049E-4,1.120802015E-3,1.126253016E-3
8.501427167E0,2.763532102E-4,1.259778626E-3,1.309284940E-3,1.837835776E-3
8.511384167E0,1.466572285E-4,-8.763428777E-4,2.529812977E-3,2.681312902E-3
8.521341167E0,-2.445943421E-3,-6.626546383E-5,3.837492317E-3,4.551195185E-3
8.531298167E0,-1.275750576E-3,5.943607539E-5,3.949344158E-3,4.150709754E-3
8.541255167E0,-1.747127622E-3,8.831443265E-4,3.013644367E-3,3.593668210E-3
8.551212167E0,3.381276038E-4,-9.187506512E-4,3.438238055E-4,1.037616425E-3
8.561168167E0,2.338266931E-4,-8.713947609E-4,1.435890794E-3,1.695814295E-3
8.571125167E0,4.756418057E-4,-1.780598424E-3,3.336057067E-3,3.811304584E-3
8.581082167E0,-5.956201348E-4,-1.401603222E-3,5.455614999E-3,5.664184845E-3
8.591039167E0,-1.094163861E-3,-1.214648597E-3,1.229178160E-3,2.045347090E-3
8.600996167E0,-6.122344639E-4,5.947686732E-4,2.161631361E-3,2.324054851E-3
8.610953167E0,2.770246472E-3,-3.453623503E-5,4.076443613E-3,4.928777820E-3
8.620909958E0,-1.250097994E-4,1.200841740E-3,4.978982732E-3,5.123272136E-3
8.630866958E0,1.739735482E-3,-5.131689832E-4,1.211674884E-3,2.181324822E-3
8.640823958E0,2.056317404E-3,4.315376282E-4,5.072530359E-3,5.490467214E-3
8.650780958E0,2.146865008E-3,-3.366396762E-3,1.435983926E-3,4.243077464E-3
8.660737958E0,1.198495855E-3,-1.131021418E-3,3.558177501E-3,3.921253484E-3
8.670694958E0,1.646173303E-3,1.307102852E-3,8.412189782E-4,2.264079013E-3
8.680651958E0,7.066410035E-6,1.072977670E-3,5.036126822E-3,5.149165406E-3
8.690608958E0,-1.974591753E-3,-1.084182411E-3,1.252040267E-3,2.577221163E-3
8.700564958E0,1.271240762E-3,1.486153342E-3,3.016412258E-3,3.594919713E-3
8.710521958E0,-6.598173641E-4,-8.102906868E-4,2.411875874E-3,2.628511971E-3
8.720478958E0,-3.818422556E-6,1.584973186E-3,1.308696344E-3,2.055441730E-3
8.730435958E0,-8.997058030E-4,-3.942884505E-4,2.211775631E-3,2.420100278E-3
8.740392958E0,-4.605771974E-3,2.087734640E-3,1.165565103E-3,5.189442495E-3
8.750349958E0,-3.942493349E-4,-1.084356569E-3,1.549860463E-3,1.932182486E-3
8.760306958E0,3.876723349E-4,1.676728018E-3,3.419866785E-3,3.828471694E-3
8.770262958E0,-8.791931905E-4,1.962762326E-4,1.831557602E-3,2.041104670E-3
8.780219958E0,1.548660221E-3,-1.016847789E-3,2.304529771E-3,2.956887785E-3
8.790176958E0,-1.277486328E-3,2.281796187E-4,1.720497385E-3,2.155028656E-3
8.800133958E0,-9.105307981E-4,1.082718372E-3,3.985356539E-3,4.228996590E-3
8.810090958E0,-1.762972679E-4,8.217282593E-4,4.320114851E-3,4.401103314E-3
8.820047958E0,1.573463669E-3,1.494737342E-3,5.620790645E-3,6.025223242E-3
8.830004958E0,6.805057637E-4,1.082383096E-5,1.525647938E-3,1.670570825E-3
8.839960958E0,1.904320903E-3,4.640761763E-4,-3.461018205E-4,1.990374656E-3
8.849917958E0,1.324018114E-3,-8.560530841E-4,1.842217520E-3,2.424791999E-3
8.859874958E0,1.338889822E-3,-1.207496971E-4,1.684773713E-3,2.155381384E-3
8.869831958E0,-1.057422487E-3,1.846793108E-3,6.378851831E-4,2.221640071E-3
8.879788958E0,-3.917245194E-4,-1.458093524E-3,2.321209759E-3,2.769025021E-3
8.889745958E0,-1.632225001E-3,1.580839045E-3,2.483129501E-3,3.365879181E-3
8.899702958E0,2.665473847E-3,1.122649759E-3,4.157505929E-3,5.064577856E-3
8.909658958E0,-3.812601790E-6,-7.684612647E-4,2.278380096E-3,2.404488119E-3
8.919615958E0,-4.137542564E-4,-6.292695180E-4,4.600340500E-3,4.661577569E-3
8.929572958E0,1.303295139E-4,-7.326006889E-4,2.910031006E-3,3.003659436E-3
8.939529958E0,8.477281081E-4,9.923521429E-5,5.637537688E-4,1.022892411E-3
8.949486958E0,-8.620212320E-4,-6.152912974E-4,2.369375899E-3,2.595304633E-3
8.959443958E0,-1.349095721E-3,2.361601219E-3,3.690429032E-3,4.584374114E-3
8.969400958E0,5.172705278E-5,-2.304256894E-3,3.681108356E-3,4.343136453E-3
8.979357958E0,-1.422085334E-4,-1.633035019E-3,3.911783919E-3,4.241353565E-3
8.989313958E0,1.158479252E-3,-6.900094450E-4,3.136005253E-3,3.413607499E-3
8.999270958E0,1.639195136E-3,1.334585249E-4,5.438774824E-4,1.732216669E-3
9.009227958E0,5.648760125E-4,1.695402898E-3,1.173181459E-3,2.137716219E-3
9.019184958E0,-9.461531881E-4,-3.497954458E-5,1.867912710E-3,2.094165064E-3
9.029141958E0,8.000815287E-4,-2.210515551E-3,1.358449459E-3,2.715123273E-3
9.039098958E0,3.074169159E-3,-1.018625684E-3,2.250315621E-3,3.943606813E-3
9.049055958E0,2.419830300E-3,-3.324391320E-3,3.905469552E-3,5.670965416E-3
9.059011958E0,2.561872825E-4,1.239232719E-3,2.195885405E-3,2.534411641E-3
9.068968958E0,-2.413898008E-3,-2.223094925E-4,2.912009135E-3,3.788947387E-3
9.078925958E0,1.990580233E-3,-1.439874992E-3,5.649290979E-4,2.520871782E-3
9.088882958E0,-1.334376400E-3,-3.405222669E-4,5.782451481E-4,1.493614155E-3
9.098839958E0,2.391692251E-4,-5.439361557E-4,1.837940887E-3,1.931604298E-3
9.108796958E0,1.832804875E-3,-1.886435784E-3,3.845430911E-3,4.658878896E-3
9.118753958E0,-6.286951248E-4,1.249967143E-3,5.914375186E-3,6.077623652E-3
9.128709958E0,-6.768982857E-4,9.919060394E-4,3.415532410E-3,3.620487609E-3
9.138666958E0,2.388129709E-3,-1.604530960E-3,1.741718501E-3,3.363222628E-3
9.148623958E0,-5.818274803E-4,1.129424199E-4,7.837787271E-4,9.826435265E-4
9.158580958E0,-2.251560800E-4,2.427557483E-4,5.243923515E-4,6.201717117E-4
9.168537958E0,-2.584457397E-4,-8.134543896E-4,-7.725674659E-4,1.151243994E-3
9.178494958E0,1.332941232E-3,9.536910802E-4,2.829940990E-3,3.270294331E-3
9.188451958E0,-2.931850031E-4,-7.408782840E-4,3.686679527E-3,3.771798512E-3
9.198407958E0,3.222674131E-4,9.194454178E-4,6.190679967E-3,6.266877581E-3
9.208364958E0,-1.664716983E-3,-8.939011022E-4,3.191161901E-3,3.708619162E-3
9.218321958E0,2.387992339E-3,-3.788145259E-4,-8.856523782E-4,2.574953979E-3
9.228278958E0,-9.532095864E-4,-3.018006682E-3,-3.246277571E-3,4.533794318E-3
9.238235958E0,4.661241546E-4,-3.995355219E-4,1.879010350E-3,1.976760040E-3
9.248192958E0,-6.127224769E-4,-9.159231558E-4,2.171691507E-3,2.435279874E-3
9.258149958E0,-3.692037193E-3,3.691940568E-3,3.330057487E-3,6.192806041E-3
9.268106958E0,-4.586931318E-4,1.683123410E-4,4.569225013E-3,4.595274274E-3
9.278062958E0,9.618955664E-4,4.251142964E-4,4.738532007E-3,4.853828471E-3
9.288019958E0,-9.241551161E-4,-2.598511055E-4,2.647951245E-3,2.816599203E-3
9.297976958E0,1.363913063E-3,2.508966252E-3,-1.659691334E-3,3.302990436E-3
9.307933958E0,-2.796477173E-3,9.334404022E-4,6.319582462E-4,3.015123013E-3
9.317890958E0,1.162239350E-4,6.399722770E-4,1.452578232E-3,1.591557739E-3
9.327847958E0,-8.800644428E-4,-7.656440139E-4,5.701119080E-3,5.819233880E-3
9.337804958E0,1.099838060E-3,1.009593718E-3,4.272222519E-3,4.525572725E-3
9.347760958E0,-1.534456387E-4,1.997258514E-4,3.286320716E-3,3.295958105E-3
9.357717958E0,-6.162712816E-4,8.038254455E-4,1.113913953E-3,1.505566317E-3
9.367674958E0,3.706961870E-4,2.762526274E-4,-6.512291729E-4,7.986429821E-4
9.377631958E0,1.346609555E-3,1.262915321E-3,6.895978004E-4,1.970750499E-3
9.387588958E0,9.695059853E-4,-2.369902097E-3,3.388579935E-4,2.582867117E-3
9.397545958E0,-2.183034085E-4,3.091823310E-4,3.535799682E-3,3.555999084E-3
9.407502958E0,-2.960560145E-3,-1.645935699E-4,7.208831608E-3,7.794822677E-3
9.417458958E0,7.494128076E-4,-5.160551518E-4,2.950130031E-3,3.087264108E-3
9.427415958E0,2.771817381E-3,2.559954301E-4,2.636941150E-3,3.834314004E-3
9.437372958E0,-1.420469489E-3,-8.861757815E-4,-2.378504723E-4,1.691039305E-3
9.447329958E0,2.503964584E-3,-1.137045212E-3,8.388645947E-4,2.875135521E-3
9.457286958E0,-1.761696767E-4,-2.723941579E-4,1.687794924E-3,1.718687301E-3
9.467243958E0,6.165052764E-5,1.251201145E-3,4.438841715E-3,4.612225154E-3
9.477200958E0,1.205787295E-3,-1.875201240E-3,5.872638896E-3,6.281575463E-3
9.487157958E0,-2.397736069E-3,1.785313711E-3,4.375942051E-3,5.299561504E-3
9.497113958E0,9.289449081E-4,-1.556579024E-3,3.258084878E-3,3.728403676E-3
9.507070958E0,9.334722999E-4,-7.539028302E-4,-1.438932493E-3,1.873570584E-3
9.517027958E0,-1.347671496E-3,5.997950211E-4,-1.353597268E-3,2.002048474E-3
9.526984958E0,-2.481645672E-3,-1.027472317E-4,2.323165536E-4,2.494612839E-3
9.536941958E0,1.691142097E-4,-6.756437942E-4,4.761215299E-3,4.811887912E-3
9.546898958E0,-2.580569126E-4,1.492967829E-3,2.273291349E-3,2.731922376E-3
9.556855958E0,1.935501467E-3,-6.831036881E-4,7.592182606E-3,7.864733518E-3
9.566811958E0,1.810109243E-4,-1.825333573E-3,4.333538935E-3,4.705758951E-3
9.576768958E0,2.785383258E-4,1.762248576E-5,3.501173109E-3,3.512279500E-3
9.586725958E0,1.509983907E-3,4.048459232E-4,-8.440408856E-4,1.776613813E-3
9.596682958E0,-6.023126189E-4,-8.051376790E-4,-5.909185857E-4,1.166281247E-3
9.606639958E0,-1.590078929E-3,-6.155204028E-4,2.303138375E-3,2.865599892E-3
9.616597042E0,2.062042709E-3,-6.673783064E-4,5.843190476E-3,6.232197757E-3
9.626554042E0,6.334041245E-5,-3.749635071E-4,6.726028398E-3,6.736769823E-3
9.636511042E0,8.234484121E-4,7.636211812E-4,4.171753302E-3,4.320267377E-3
9.646467042E0,1.531316666E-3,1.089857891E-3,1.031354070E-3,2.143924479E-3
9.656424042E0,1.832989510E-4,1.510680653E-3,1.022499055E-4,1.525191655E-3
9.666381042E0,-2.279592678E-3,2.640393563E-3,1.048205420E-3,3.642383223E-3
9.676338042E0,1.666641328E-4,-2.824982628E-3,7.164105773E-4,2.919169042E-3
9.686295042E0,1.112086349E-3,-6.473157555E-4,3.689829260E-3,3.907760702E-3
9.696252042E0,1.251394046E-3,-7.535330951E-6,6.399536505E-3,6.520744691E-3
9.706209042E0,7.967924466E-4,1.072908752E-3,4.134252667E-3,4.344888550E-3
9.716165042E0,-1.031817868E-3,1.767906360E-3,8.681360632E-4,2.223466041E-3
9.726122042E0,-6.523174234E-4,5.484446883E-4,-8.022002876E-4,1.170399461E-3
9.736079042E0,-6.238999777E-5,-7.838718593E-4,3.619266674E-3,3.703706098E-3
9.746036042E0,3.735695500E-4,-3.340644762E-4,2.338286489E-3,2.391388088E-3
9.755993042E0,1.189678442E-4,-1.058542170E-3,3.544270992E-3,3.700881211E-3
9.765950042E0,5.035281647E-4,2.353766002E-3,3.977833316E-3,4.649399197E-3
9.775907042E0,7.836074801E-4,1.822654158E-4,1.701083034E-3,1.881739848E-3
9.785864042E0,4.927902482E-4,-1.376483589E-3,5.434080958E-4,1.559756923E-3
9.795820042E0,1.478878548E-3,-2.005717717E-3,6.800834090E-4,2.583118032E-3
9.805777042E0,-4.790774547E-4,6.539812312E-4,-4.184693098E-4,9.123175004E-4
9.815734042E0,9.077838622E-4,2.390835434E-3,1.995032653E-3,3.243504417E-3
9.825691042E0,-2.514111577E-3,-6.563533098E-4,1.805149019E-3,3.163877315E-3
9.835648042E0,2.828752622E-5,-7.601538673E-4,3.694310784E-3,3.771812065E-3
9.845605042E0,3.293056507E-3,4.617040977E-4,2.072177827E-3,3.918075137E-3
9.855562042E0,-2.038117964E-4,2.041046508E-3,2.372339368E-4,2.064870465E-3
9.865519042E0,2.754161134E-3,-2.070075832E-3,-1.046143472E-3,3.600699053E-3
9.875475042E0,9.275838966E-4,9.203683585E-4,1.599330455E-3,2.065271824E-3
9.885432042E0,-1.355543965E-3,5.564000458E-5,3.137305379E-3,3.418081376E-3
9.895389042E0,2.011255128E-3,-1.187112182E-3,5.858726799E-3,6.307064471E-3
9.905346042E0,-4.017795436E-5,-1.535387710E-4,1.587016508E-3,1.594932544E-3
9.915303042E0,-1.288744388E-3,2.789756283E-3,1.361049712E-3,3.360960954E-3
9.925260042E0,-1.381156268E-3,-1.759398729E-4,6.422623992E-4,1.533312905E-3
9.935217042E0,-1.852005720E-3,5.440916866E-4,3.579108045E-3,4.066445050E-3
9.945173042E0,-1.701004338E-3,6.756512448E-4,7.700063288E-4,1.985656090E-3
9.955130042E0,-2.326057525E-3,8.333902806E-4,3.694949672E-3,4.444967497E-3
9.965087042E0,-3.910046071E-4,-5.104402080E-4,1.583330333E-3,1.708908644E-3
9.975044042E0,1.699121203E-3,-8.235890418E-4,7.110517472E-4,2.017648721E-3
9.985001042E0,-2.878586296E-3,-2.600643784E-4,1.561133191E-3,3.284970226E-3
9.994958042E0,5.111109931E-4,1.256730407E-3,4.026934505E-3,4.249330214E-3
1.000491504E1,-2.327552298E-3,9.707063437E-4,3.034908324E-3,3.945939564E-3
1.001487204E1,-5.027442239E-4,-2.264367417E-3,-1.635719091E-4,2.325267150E-3
1.002482804E1,3.023294266E-4,-8.185375482E-4,2.375485376E-3,2.530679270E-3
1.003478504E1,1.033011358E-4,1.969095320E-4,3.541996703E-3,3.548969587E-3
1.004474204E1,-5.097584799E-4,-3.128200769E-4,2.558223903E-3,2.627207576E-3
1.005469904E1,-1.901616342E-4,-5.836300552E-4,5.342662334E-4,8.137726320E-4
1.006465604E1,9.885533946E-4,-4.123503342E-3,8.823424578E-4,4.331171417E-3
1.007461304E1,5.734828301E-4,3.246222623E-3,2.436416224E-3,4.099142336E-3
1.008457004E1,-2.355994191E-3,-4.310710356E-4,4.281252623E-4,2.433068455E-3
1.009452604E1,-8.054364007E-4,-1.150001772E-3,1.992093399E-3,2.437143406E-3
1.010448304E1,-8.557701949E-4,-1.385957934E-3,2.168660983E-3,2.712252290E-3
1.011444004E1,-5.174488761E-4,-7.804073393E-4,2.554677427E-3,2.720875909E-3
1.012439704E1,5.848333240E-4,-4.339301959E-4,4.383202642E-3,4.443286040E-3
1.013435404E1,-1.394693740E-3,9.607402608E-4,-1.879576594E-4,1.703971994E-3
1.014431104E1,-7.443497889E-4,-1.672860235E-3,5.018003285E-4,1.898505081E-3
1.015426804E1,7.319870638E-4,3.097802401E-4,2.518150955E-3,2.640616044E-3
1.016422504E1,-1.717588631E-3,-9.022243321E-4,2.405764535E-3,3.090602280E-3
1.017418104E1,-1.246147091E-3,-1.256567426E-3,2.413468435E-3,2.992770315E-3
1.018413804E1,-1.270868815E-4,5.884710699E-4,5.418846384E-3,5.452187213E-3
1.019409504E1,-1.235049684E-3,-2.007558942E-3,6.230436265E-4,2.437995896E-3
1.020405204E1,-1.319738105E-3,-1.014199108E-3,3.308573738E-3,3.703642622E-3
1.021400904E1,1.059933333E-3,-2.319382504E-3,6.653461605E-4,2.635465686E-3
1.022396604E1,1.778944861E-4,1.758982427E-3,9.215418249E-4,1.993716370E-3
1.023392304E1,-6.547647063E-4,3.337021917E-4,3.420222551E-3,3.498284761E-3
1.024388004E1,3.384717973E-3,-2.218671143E-3,3.512101248E-3,5.358514027E-3
1.025383604E1,-3.968866076E-4,2.964399755E-6,4.339447245E-3,4.357560115E-3
1.026379304E1,7.583925035E-4,-2.803960815E-4,1.992935315E-3,2.150714375E-3
1.027375004E1,1.947310288E-3,5.953563377E-4,-6.223004311E-4,2.129254412E-3
1.028370704E1,2.572886879E-3,-1.726120710E-3,1.063480973E-3,3.275703188E-3
1.029366404E1,-2.269351389E-3,3.089010715E-5,2.883687615E-3,3.669681756E-3
1.030362104E1,-1.909291837E-3,1.423989423E-3,3.216849640E-3,4.002656968E-3
1.031357804E1,-2.334732562E-4,-1.304577105E-3,2.822063863E-3,3.117767732E-3
1.032353504E1,3.921033349E-4,-1.317893155E-3,5.492681637E-3,5.662167338E-3
1.033349104E1,-6.305698771E-4,-8.963327855E-4,1.454394311E-3,1.821069368E-3
1.034344804E1,-5.794370081E-4,8.030300960E-4,1.121610403E-4,9.965865143E-4
1.035340504E1,1.949288417E-4,-1.785820350E-4,4.024820402E-3,4.033493283E-3
1.036336204E1,8.298264584E-4,-6.526252255E-4,8.801613003E-4,1.374487377E-3
1.037331904E1,-1.276782714E-4,-3.867140040E-4,1.350356266E-3,1.410429547E-3
1.038327604E1,1.674001105E-4,-1.263160259E-3,4.054795951E-3,4.250290206E-3
1.039323304E1,-9.600748308E-4,2.144786529E-3,1.467948779E-3,2.770690628E-3
1.040319004E1,4.684447777E-4,-3.056633286E-3,1.451969147E-3,3.416235056E-3
1.041314604E1,9.218927007E-4,4.380000755E-4,2.460945398E-4,1.049901300E-3
1.042310304E1,1.394603751E-3,1.783162355E-3,-8.125118911E-4,2.405153463E-3
1.043306004E1,-6.610620767E-5,2.446249127E-4,2.656895667E-3,2.668952222E-3
1.044301704E1,2.021013061E-3,-1.050470397E-3,-3.689154983E-5,2.278012913E-3
1.045297404E1,1.886999235E-3,-5.017509684E-4,2.728285268E-3,3.355005313E-3
1.046293104E1,1.843589591E-3,-2.428917214E-4,3.410054371E-3,3.884107334E-3
1.047288804E1,-6.298795342E-4,2.887055278E-3,2.884820104E-3,4.129651733E-3
1.048284504E1,1.994399354E-3,-3.026127815E-4,-3.352090716E-4,2.044888359E-3
1.049280104E1,1.225701999E-4,6.158379838E-4,2.692937851E-3,2.765175247E-3
1.050275804E1,2.212885302E-3,-8.587548509E-4,8.449703455E-4,2.519582532E-3
1.051271504E1,3.468890209E-4,-4.846407101E-4,4.951536655E-3,4.987276197E-3
1.052267204E1,1.263793092E-4,-7.043508813E-4,2.739248797E-3,2.831177470E-3
1.053262904E1,1.046898193E-3,2.046481706E-3,3.343256190E-3,4.057270653E-3
1.054258604E1,2.287749667E-4,-1.306437887E-3,9.498726577E-4,1.631372430E-3
1.055254304E1,7.925527170E-4,-8.233459666E-4,-1.941993833E-4,1.159203084E-3
1.056250004E1,-2.068215050E-3,-1.918970607E-3,9.525567293E-4,2.977805569E-3
1.057245604E1,2.763113007E-4,6.814487278E-6,1.307452098E-3,1.336347769E-3
1.058241304E1,1.021996490E-3,5.919113755E-4,3.629993647E-3,3.817288276E-3
1.059237004E1,1.972810365E-3,-1.743457280E-3,3.114089370E-3,4.077888746E-3
1.060232704E1,-1.979586901E-3,-8.164439350E-5,2.751633525E-3,3.390710421E-3
1.061228404E1,1.269296743E-3,1.015102491E-3,1.205433160E-3,2.023515849E-3
1.062224033E1,6.865970790E-4,7.549114525E-4,7.207375020E-4,1.249307567E-3
1.063219733E1,1.592666376E-3,-1.998582855E-3,-1.251084730E-3,2.845370383E-3
1.064215433E1,2.100531245E-3,4.752269015E-4,1.683793962E-4,2.160190672E-3
1.065211033E1,1.326533034E-3,-2.334998921E-3,1.939404756E-3,3.312582174E-3
1.066206733E1,-5.163743626E-4,1.001142897E-3,1.146314666E-3,1.607161129E-3
1.067202433E1,-8.694387507E-4,4.661851563E-3,1.942768693E-3,5.124756963E-3
1.068198133E1,-6.063678302E-5,1.603104174E-4,1.490563154E-3,1.500384873E-3
1.069193833E1,3.782478161E-4,1.631384715E-3,4.548523575E-4,1.735332293E-3
1.070189533E1,-1.097409753E-3,-4.400964826E-5,9.235683829E-4,1.434999503E-3
1.071185233E1,-9.719610680E-4,-2.259025350E-4,-1.644687727E-3,1.923730229E-3
1.072180833E1,-9.983263444E-4,-2.293314785E-3,2.816906199E-3,3.767082256E-3
1.073176533E1,1.972774044E-3,1.652929932E-4,4.357317463E-3,4.785955983E-3
1.074172233E1,1.379954512E-3,-1.701316796E-3,2.623066306E-3,3.417488865E-3
1.075167933E1,-5.490260664E-4,-1.365216449E-4,2.530116588E-3,2.592596716E-3
1.076163633E1,1.728775678E-3,-1.451323740E-3,1.804139465E-3,2.889623705E-3
1.077159333E1,2.528766636E-3,-1.138960011E-3,-1.297621056E-3,3.061978284E-3
1.078155033E1,-1.009775326E-3,-4.196399823E-4,2.571951598E-3,2.794759193E-3
1.079150733E1,6.780959666E-5,-3.350339830E-5,2.768430859E-3,2.769463854E-3
1.080146333E1,-1.668038778E-3,-3.645336255E-4,3.589749336E-3,3.975114895E-3
1.081142033E1,3.696102649E-4,1.736273058E-3,3.415815532E-3,3.849552134E-3
1.082137733E1,-1.469834941E-3,-5.644317716E-4,3.844851628E-3,4.154742112E-3
1.083133433E1,-1.329779625E-4,7.685991004E-4,1.958806068E-3,2.108399613E-3
1.084129133E1,1.877175877E-3,1.008283347E-3,-5.317814648E-4,2.196182166E-3
1.085124833E1,8.793196175E-4,4.350980744E-4,1.874657348E-3,2.115857627E-3
1.086120533E1,3.208545968E-4,-1.103942282E-3,1.952666789E-4,1.166089753E-3
1.087116233E1,3.226577770E-3,1.010530628E-3,3.211084753E-3,4.662943443E-3
1.088111933E1,-3.239486832E-4,-1.209747046E-3,2.641700208E-3,2.923527092E-3
1.089107533E1,-1.692941645E-3,6.701005623E-4,1.258162782E-3,2.213156064E-3
1.090103233E1,4.016342573E-4,-6.412398070E-4,1.545492560E-4,7.722590493E-4
1.091098933E1,3.430559300E-4,1.721547917E-3,-6.100516766E-4,1.858380383E-3
1.092094633E1,-1.629014732E-3,-2.691309899E-3,8.890423924E-4,3.269133577E-3
1.093090333E1,8.473482449E-4,1.546692103E-3,2.926986665E-3,3.417236668E-3
1.094086033E1,1.165862312E-3,7.328307256E-4,2.190621570E-3,2.587488872E-3
1.095081733E1,2.851708326E-3,1.930637285E-3,5.061322823E-3,6.121812593E-3
1.096077433E1,-2.487436868E-4,1.953216270E-4,3.885271028E-3,3.898121973E-3
1.097073033E1,1.930480357E-4,-6.133234128E-4,-1.378355548E-3,1.520952718E-3
1.098068733E1,1.629557228E-3,-1.705751754E-3,-1.124290749E-3,2.613249987E-3
1.099064433E1,3.710230812E-4,2.644518390E-4,-1.435680315E-3,1.506243961E-3
1.100060133E1,2.526851837E-3,1.370728947E-3,1.348122954E-3,3.175108431E-3
1.101055833E1,-4.776124842E-4,-1.772111282E-4,4.502372816E-3,4.531101240E-3
1.102051533E1,7.778017316E-4,-3.374869004E-3,4.053896293E-3,5.331865666E-3
1.103047233E1,-1.945458585E-3,-5.607223138E-4,1.813650131E-3,2.718187893E-3
1.104042933E1,2.180936281E-4,1.702697948E-3,7.364004850E-4,1.867894752E-3
1.105038533E1,4.020719789E-4,-1.948667690E-3,-1.153782010E-3,2.300039254E-3
1.106034233E1,-1.353217522E-3,8.188886568E-4,2.583164722E-3,3.028946396E-3
1.107029933E1,1.455439255E-3,-3.205696121E-4,8.736141026E-4,1.727503951E-3
1.108025633E1,-1.662323484E-3,-1.874257810E-3,1.513570547E-3,2.926953622E-3
1.109021333E1,1.875589369E-3,1.894549467E-3,2.390107140E-3,3.580469983E-3
1.110017033E1,2.766682999E-3,2.167578787E-4,1.319516450E-3,3.072888293E-3
1.111012733E1,8.071602788E-4,3.018630669E-4,-4.534609616E-4,9.737843039E-4
1.112008433E1,-8.874090854E-4,-1.859558746E-3,1.697307453E-3,2.669514226E-3
1.113004033E1,3.617348848E-3,1.061381772E-4,2.009700984E-4,3.624481615E-3
1.113999733E1,-3.251340240E-5,-1.549548469E-3,4.718136042E-4,1.620112853E-3
1.114995433E1,1.623389428E-3,-1.789789647E-3,1.390958205E-3,2.788100597E-3
1.115991133E1,4.742355086E-4,-9.535569698E-4,-7.078796625E-4,1.278774346E-3
1.116986833E1,-4.373921547E-4,4.289848730E-4,1.650162041E-3,1.760220066E-3
1.117982533E1,1.077568159E-4,-8.713640273E-5,2.763628960E-3,2.767101247E-3
1.118978233E1,3.642374184E-3,1.452958211E-3,-4.694834352E-4,3.949479960E-3
1.119973933E1,-7.377266884E-4,2.995431423E-4,1.583812758E-3,1.772689937E-3
1.120969533E1,1.066601020E-3,-1.099632122E-3,4.312191159E-4,1.591470535E-3
1.121965233E1,2.491125837E-3,-1.634129323E-3,5.832854658E-4,3.035837366E-3
1.122960933E1,-1.525140833E-3,-2.963561565E-4,1.283766702E-3,2.015425136E-3
1.123956633E1,-1.234855969E-3,6.032595411E-4,4.043068737E-3,4.270268861E-3
1.124952333E1,1.564351143E-3,1.199500635E-3,1.643281430E-4,1.978130434E-3
1.125948033E1,-1.107864780E-3,7.646065205E-4,1.263413578E-3,1.846131461E-3
1.126943733E1,1.177296508E-4,1.937733032E-3,1.092966646E-3,2.227834299E-3
1.127939433E1,1.492453390E-3,-7.866807282E-4,4.004335031E-3,4.345225279E-3
1.128935133E1,4.860630725E-4,5.065379664E-4,1.051118597E-3,1.263996965E-3
1.129930733E1,-1.251116861E-3,1.418670639E-3,2.890830860E-3,3.454681294E-3
1.130926433E1,-1.233219868E-3,-1.892577857E-3,3.469754010E-3,4.140274759E-3
1.131922133E1,6.658802740E-4,-1.431584358E-3,1.610424370E-4,1.587061744E-3
1.132917833E1,4.828756209E-4,-6.192801520E-4,6.617344916E-4,1.026922251E-3
1.133913533E1,1.846016385E-4,-2.949546091E-3,-5.931481719E-4,3.014253583E-3
1.134909233E1,6.481767632E-4,6.646364927E-4,1.801805571E-3,2.026913441E-3
1.135904933E1,1.105974196E-3,1.102725975E-3,2.957085148E-3,3.344179431E-3
1.136900633E1,1.882011653E-3,2.892034128E-3,2.658635378E-3,4.355935185E-3
1.137896233E1,-5.047132727E-4,3.396436572E-3,6.038719788E-3,6.946700912E-3
1.138891933E1,2.438126598E-3,-1.297561452E-3,7.132869214E-4,2.852526119E-3
1.139887633E1,2.631228417E-4,-2.122341655E-3,-2.021247521E-3,2.942619458E-3
1.140883333E1,-3.749557072E-3,6.211102009E-4,-1.140706241E-3,3.968144006E-3
1.141879033E1,-1.553548500E-4,3.115426749E-3,2.747643739E-4,3.131375803E-3
1.142874733E1,-2.474270528E-3,2.922895364E-3,4.588460550E-3,5.976562739E-3
1.143870433E1,8.906332077E-4,-1.947760582E-3,2.206796780E-3,3.075215574E-3
1.144866133E1,1.305752550E-3,8.539920673E-4,6.577949971E-4,1.693217774E-3
1.145861833E1,1.680459245E-3,-1.497538760E-4,6.055962294E-4,1.792516748E-3
1.146857433E1,-5.172821693E-4,-3.361925483E-4,-4.292558879E-4,7.515762699E-4
1.147853133E1,1.589810941E-3,3.611668944E-5,-3.365781158E-4,1.625450114E-3
1.148848833E1,2.256234642E-3,-4.778029397E-4,5.952753127E-4,2.381857071E-3
1.149844533E1,-6.439478602E-4,-1.605917700E-3,1.917002723E-3,2.582351630E-3
1.150840233E1,4.195049405E-5,1.008578576E-3,-3.466084599E-4,1.067299402E-3
1.151835933E1,3.516760189E-4,2.082099207E-3,3.066232428E-3,3.722981927E-3
1.152831633E1,4.076948389E-4,5.611805245E-4,5.764514208E-5,6.960327760E-4
1.153827333E1,8.212837856E-4,-1.666021533E-3,1.065650955E-3,2.141435678E-3
1.154822933E1,1.821151585E-3,6.310641766E-6,-1.269577071E-3,2.220013257E-3
1.155818633E1,7.588166045E-4,7.112491876E-4,4.122965038E-5,1.040854423E-3
1.156814333E1,-2.008373616E-3,4.783486947E-4,-9.378399700E-4,2.267581501E-3
1.157810033E1,-4.022209905E-4,-1.122211106E-3,2.568550408E-4,1.219472839E-3
1.158805733E1,-4.940940998E-4,1.881537028E-3,5.527697504E-4,2.022341456E-3
1.159801433E1,-1.748975599E-3,-9.757690132E-4,8.118953556E-4,2.161067996E-3
1.160797133E1,-3.860662691E-4,-9.498251602E-4,1.074131578E-3,1.484915367E-3
1.161792796E1,-2.100342885E-3,1.341025345E-3,2.305842936E-3,3.395099535E-3
1.162788496E1,1.067243982E-3,1.172451302E-4,3.832951188E-4,1.140031265E-3
1.163784096E1,-4.941946827E-5,1.300754026E-3,-2.116542310E-4,1.318787637E-3
1.164779796E1,3.737972584E-3,-9.384257719E-4,2.844411880E-3,4.789964604E-3
1.165775496E1,-9.401363786E-4,-4.215054214E-4,-2.340229228E-3,2.556989650E-3
1.166771196E1,2.857170068E-3,-2.386430278E-4,1.136980951E-3,3.084330879E-3
1.167766896E1,-1.399360131E-3,-9.060315788E-4,1.095328480E-4,1.670658386E-3
1.168762596E1,-1.383747440E-4,2.108030953E-3,9.989775717E-4,2.336856490E-3
1.169758296E1,-1.492858399E-3,-5.178460851E-4,1.516429707E-3,2.190057037E-3
1.170753996E1,1.840204932E-4,3.611566499E-4,1.299811527E-3,1.361546060E-3
1.171749596E1,-2.074606251E-3,-6.092991680E-4,1.765597612E-3,2.791517777E-3
1.172745296E1,-1.043874538E-3,4.653139040E-4,3.883726895E-4,1.207072668E-3
1.173740996E1,7.486990653E-4,-7.629357278E-4,1.073336229E-3,1.514817440E-3
1.174736696E1,-1.116474625E-3,2.156468108E-4,1.209784299E-3,1.660300330E-3
1.175732396E1,2.004750306E-3,-1.069861464E-3,1.881700009E-3,2.950325790E-3
1.176728096E1,3.327559680E-4,2.674106508E-5,1.565666869E-3,1.600860507E-3
1.177723796E1,-3.133267164E-4,5.042459816E-4,8.905548602E-4,1.070292297E-3
1.178719496E1,-9.682197124E-4,7.871035486E-4,1.940762624E-3,2.307279994E-3
1.179715196E1,1.171896467E-3,7.892344147E-4,-9.330529720E-4,1.693168668E-3
1.180710796E1,-5.361412186E-4,-1.476922072E-3,-5.242936313E-4,1.656390662E-3
1.181706496E1,6.199369673E-4,1.379318535E-3,4.427004606E-4,1.575698310E-3
1.182702196E1,1.698397449E-3,1.601392403E-3,2.853337675E-3,3.686535964E-3
1.183697896E1,1.232876908E-3,1.093793660E-3,9.795371443E-4,1.917254041E-3
1.184693596E1,-3.357124515E-4,-8.331565186E-4,2.548918128E-3,2.702561055E-3
1.185689296E1,1.460856060E-3,7.631257176E-5,7.235873491E-4,1.632024107E-3
1.186684996E1,-3.076384310E-4,-5.226954818E-5,2.497499809E-3,2.516918514E-3
1.187680696E1,-7.513209712E-4,8.856952190E-4,9.954776615E-4,1.529678070E-3
1.188676296E1,2.965451684E-3,-1.851751469E-3,-1.838268712E-3,3.949951778E-3
1.189671996E1,-2.422389342E-3,1.220471226E-3,1.802805811E-3,3.256935512E-3
1.190667696E1,-8.067607414E-4,2.116590738E-3,2.705069259E-3,3.528203359E-3
1.191663396E1,-1.235795673E-3,1.268107444E-3,1.119690016E-3,2.094992403E-3
1.192659096E1,2.559220884E-3,1.353228465E-3,3.783963621E-3,4.764369790E-3
1.193654796E1,-1.735659083E-3,-1.274779439E-3,1.357557252E-3,2.545689841E-3
1.194650496E1,-1.309528016E-3,-1.769081689E-3,1.486372203E-4,2.206038683E-3
1.195646196E1,-1.689028461E-3,2.024590969E-3,1.499392092E-3,3.033143976E-3
1.196641896E1,-1.563792583E-3,8.628051728E-4,2.475757152E-3,3.052745237E-3
1.197637496E1,-1.909204759E-3,1.237245277E-3,-1.541620120E-3,2.748168714E-3
1.198633196E1,-5.951640196E-4,7.517309859E-4,8.743964136E-4,1.297647400E-3
1.199628896E1,1.393418410E-3,-6.504235789E-4,1.074932516E-3,1.876205109E-3
1.200624596E1,1.682876609E-4,1.408718526E-4,3.299273551E-3,3.306564921E-3
1.201620296E1,-2.067702357E-3,-1.300430857E-3,3.508863971E-3,4.275352595E-3
1.202615996E1,1.683109440E-5,1.403637230E-3,9.123757482E-4,1.674189436E-3
1.203611696E1,1.348411664E-3,-1.468556002E-4,1.605596393E-3,2.101837378E-3
1.204607396E1,-9.384658188E-5,7.398445159E-4,-1.546572894E-4,7.616403126E-4
1.205603096E1,5.000382662E-4,-1.792125404E-4,1.705560833E-3,1.786363109E-3
1.206598696E1,1.043060562E-3,1.000288874E-3,8.629113436E-4,1.683202054E-3
1.207594396E1,-9.740176611E-4,1.276724972E-3,8.669067174E-4,1.824901179E-3
1.208590096E1,-4.802595358E-4,2.703463659E-3,2.985222265E-3,4.055972996E-3
1.209585796E1,-1.265359577E-3,-1.192204654E-4,3.518121317E-3,3.740658495E-3
1.210581496E1,8.375712205E-4,5.729477853E-4,2.541786060E-3,2.736872501E-3
1.211577196E1,7.733888924E-4,-1.948419958E-4,-1.016996801E-3,1.292430375E-3
1.212572896E1,1.580644166E-3,-2.685897052E-3,8.459817618E-4,3.229266805E-3
1.213568596E1,1.447219867E-3,-1.191597432E-3,7.626246661E-4,2.023844402E-3
1.214564196E1,-4.392827395E-4,-8.921641856E-4,-2.809986472E-4,1.033385939E-3
1.215559896E1,-1.239643898E-4,1.030637883E-3,1.117959619E-3,1.525586878E-3
1.216555596E1,3.050665371E-3,-2.329224721E-3,-9.724535048E-4,3.959483909E-3
1.217551296E1,-1.720387954E-3,1.675449312E-5,1.444363967E-3,2.246375457E-3
1.218546996E1,-2.663603518E-4,1.447962597E-3,-4.681572318E-4,1.544899580E-3
1.219542696E1,8.662820328E-4,1.032509841E-3,-1.374963671E-3,1.925369115E-3
1.220538396E1,2.997470088E-3,1.106779091E-3,-2.478258684E-3,4.043705354E-3
1.221534096E1,-7.181721739E-4,2.146743238E-3,3.384424374E-3,4.071683453E-3
1.222529796E1,-1.474400051E-4,2.138448879E-3,2.472016960E-3,3.271936738E-3
1.223525396E1,-4.755414557E-4,6.734440103E-4,5.145929754E-4,9.718397200E-4
1.224521096E1,-2.331315540E-3,7.260907441E-4,-9.419173002E-4,2.617145031E-3
1.225516796E1,-1.021040371E-3,-1.386062242E-3,-1.787470654E-3,2.481681550E-3
1.226512496E1,2.392521128E-5,3.403959796E-3,2.519262955E-3,4.234879047E-3
1.227508196E1,8.223409532E-4,6.491858512E-4,3.503566608E-3,3.656865582E-3
1.228503896E1,1.068523270E-3,2.106718719E-3,1.876845956E-3,3.017044329E-3
1.229499596E1,-2.276373561E-4,-6.855092943E-5,-5.074813962E-4,5.604064269E-4
1.230495296E1,2.610523254E-3,6.235800683E-4,3.308579326E-4,2.704283774E-3
1.231490996E1,3.561573103E-4,-6.121266633E-4,-2.410333604E-3,2.512221161E-3
1.232486596E1,2.950127237E-4,-1.980495639E-3,3.375932574E-3,3.925088054E-3
1.233482296E1,1.138611697E-5,-2.755401656E-4,-4.688724875E-4,5.439608774E-4
1.234477996E1,7.924786769E-4,-9.202938527E-4,3.168135881E-3,3.392940935E-3
1.235473696E1,-3.729206510E-4,-6.228191778E-4,9.015202522E-4,1.157459418E-3
1.236469396E1,3.565654391E-3,4.788869992E-4,-6.951019168E-4,3.664203962E-3
1.237465096E1,-1.353204250E-3,9.329561144E-4,5.683004856E-4,1.739118828E-3
1.238460796E1,1.389707788E-3,9.953975677E-6,2.820173278E-3,3.144004475E-3
1.239456496E1,-9.661244694E-4,3.627325408E-3,1.215916127E-4,3.755751673E-3
1.240452196E1,2.066855319E-3,3.350269981E-3,-3.060251474E-4,3.948398567E-3
1.241447796E1,2.720394870E-3,-5.845502019E-4,-5.214754492E-4,2.830933385E-3
1.242443496E1,6.581367925E-4,-1.578048803E-3,-2.034381032E-5,1.709911089E-3
1.243439196E1,1.776131918E-3,1.985260285E-3,8.933860809E-4,2.809633727E-3
1.244434896E1,1.521319151E-3,1.049438491E-3,1.004772261E-3,2.103639799E-3
1.245430596E1,-4.728557542E-4,-1.396141946E-3,2.913121134E-4,1.502553708E-3
1.246426296E1,2.486465964E-4,6.530582905E-4,-1.579081640E-3,1.726791558E-3
1.247421996E1,9.583791252E-4,1.994492486E-3,2.132300287E-3,3.072978253E-3
1.248417696E1,-9.471091907E-4,-7.634665817E-4,2.162098885E-3,2.480840307E-3
1.249413396E1,-3.984980285E-4,-7.855705917E-4,3.387153149E-3,3.499818322E-3
1.250408996E1,2.812830033E-3,-8.187275380E-4,2.444332466E-3,3.815375313E-3
1.251404696E1,-1.903627999E-3,6.497399881E-4,4.291500896E-3,4.739508577E-3
1.252400396E1,-8.140755817E-4,1.941434108E-3,1.541376114E-4,2.110839608E-3
1.253396096E1,4.410722759E-4,-9.683351964E-4,1.416208223E-3,1.771401573E-3
1.254391796E1,1.272157184E-3,7.036272436E-4,2.936264500E-3,3.276449971E-3
1.255387496E1,8.766778046E-4,1.049479470E-4,4.267673939E-4,9.806673510E-4
1.256383196E1,1.288964413E-4,-5.391305313E-4,3.209795803E-3,3.257309491E-3
1.257378896E1,1.668736222E-3,-2.280734479E-4,1.356767491E-3,2.162756598E-3
1.258374596E1,1.108055003E-4,5.194511265E-3,-3.163032234E-4,5.205311985E-3
1.259370196E1,3.518215381E-4,4.495568573E-4,1.291446388E-3,1.411989212E-3
1.260365896E1,1.891373424E-3,1.343408599E-3,7.566995919E-4,2.440211951E-3
1.261361596E1,-5.142600276E-4,5.050450563E-4,3.283508122E-3,3.361689973E-3
1.262357317E1,-8.954002988E-4,2.269810066E-4,1.069217920E-3,1.412971703E-3
1.263353017E1,1.031929394E-3,-3.154700622E-3,-1.542011276E-3,3.659892493E-3
1.264348717E1,1.786309062E-3,9.318776429E-4,9.711533785E-4,2.236612369E-3
1.265344417E1,1.890704967E-3,7.688924670E-4,4.382543266E-4,2.087588981E-3
1.266340117E1,-3.816841636E-4,-2.485923469E-4,2.301990986E-3,2.346623842E-3
1.267335817E1,1.239648205E-3,-9.101210162E-4,1.135792583E-3,1.911824450E-3
1.268331417E1,-4.153756890E-4,6.566224620E-4,-5.212053657E-4,9.355987675E-4
1.269327117E1,-8.540996350E-5,2.169338986E-4,-4.588887095E-4,5.147174234E-4
1.270322817E1,-4.739838187E-4,-2.936888486E-4,9.871013463E-4,1.133703166E-3
1.271318517E1,-4.814448766E-5,9.279027581E-4,8.885636926E-4,1.285638696E-3
1.272314217E1,1.451470889E-4,8.320277557E-4,-7.012765855E-4,1.097782635E-3
1.273309917E1,-9.560282342E-5,-5.336413160E-4,-3.721099347E-4,6.575551365E-4
1.274305617E1,-1.221026760E-4,5.766553804E-4,-1.105871052E-4,5.997249362E-4
1.275301317E1,-3.426020266E-3,3.247205168E-4,1.227118075E-3,3.653611508E-3
1.276297017E1,-1.104237512E-3,5.325144157E-4,4.612412304E-4,1.309830355E-3
1.277292717E1,7.051141001E-4,-2.688046545E-3,4.465933889E-4,2.814644876E-3
1.278288317E1,5.008438602E-4,2.707354724E-5,3.676488996E-5,5.029206761E-4
1.279284017E1,-5.543006118E-4,1.032683067E-3,-1.882309094E-3,2.217379311E-3
1.280279717E1,1.354851644E-3,2.846108750E-3,-4.940703511E-4,3.190621178E-3
1.281275417E1,2.405734966E-3,-2.117224038E-3,1.368317753E-4,3.207634843E-3
1.282271117E1,2.114367206E-3,1.132520847E-3,-2.085100859E-4,2.407618866E-3
1.283266817E1,1.485062297E-3,7.341112942E-4,7.057543844E-4,1.800671728E-3
1.284262517E1,-1.119967317E-3,-2.308469266E-4,1.770080999E-3,2.107321484E-3
1.285258217E1,-4.379316233E-4,-5.488283932E-4,9.908396751E-4,1.214396959E-3
1.286253917E1,1.974044135E-3,4.681590945E-4,-6.184224039E-4,2.120959560E-3
1.287249517E1,-9.461119771E-4,-3.257291391E-4,1.751985401E-4,1.015835554E-3
1.288245217E1,-6.214536261E-4,-1.330576837E-3,-2.786351368E-3,3.149665581E-3
1.289240917E1,7.404868957E-4,-2.782798372E-3,2.619067207E-3,3.892531395E-3
1.290236617E1,-1.666718163E-4,1.133568585E-4,-5.221199244E-4,5.596771276E-4
1.291232317E1,1.530560665E-3,7.921969518E-4,6.750412285E-5,1.724746000E-3
1.292228017E1,-9.523138870E-4,-1.588021405E-3,1.780562103E-3,2.568874291E-3
1.293223717E1,8.650273085E-4,5.217343569E-4,-1.178210601E-3,1.551985568E-3
1.294219417E1,5.484230351E-4,3.068377264E-3,-5.164425820E-4,3.159496764E-3
1.295215117E1,-3.618453629E-4,-7.178392261E-4,-7.526651025E-4,1.101240200E-3
1.296210717E1,-9.099333547E-4,1.390204765E-3,-2.809351310E-3,3.263909126E-3
1.297206417E1,-7.304362953E-4,-8.622966707E-4,4.289485514E-5,1.130899066E-3
1.298202117E1,-1.851125387E-3,2.604168840E-3,8.289329708E-4,3.300831776E-3
1.299197817E1,-1.996267354E-3,7.511405274E-4,1.332003623E-3,2.514662819E-3
1.300193517E1,8.593762759E-4,-1.085549593E-3,2.250732854E-3,2.642488199E-3
1.301189217E1,-1.278343145E-3,-4.328088835E-4,2.048864961E-3,2.453432769E-3
1.302184917E1,1.522340812E-3,-6.915815175E-4,2.414286137E-4,1.689406499E-3
1.303180617E1,-2.091035945E-3,2.536701970E-3,5.873665214E-5,3.287968705E-3
1.304176317E1,1.623887685E-3,-1.304095611E-3,-8.033718914E-4,2.232282010E-3
1.305171917E1,-2.698422875E-3,2.756919712E-4,-6.643552333E-4,2.792643900E-3
1.306167617E1,1.832116861E-3,-9.930543602E-4,8.496306837E-4,2.250484715E-3
1.307163317E1,-2.177272225E-3,-2.335207537E-4,1.760164276E-3,2.809488309E-3
1.308159017E1,2.841725713E-3,2.231909893E-3,-1.873999834E-3,4.070467071E-3
1.309154717E1,-2.072072821E-3,-8.581560105E-4,4.775710404E-4,2.293031097E-3
1.310150417E1,2.684530569E-3,1.227129251E-4,1.691784710E-3,3.175515445E-3
1.311146117E1,-1.205769368E-4,4.502814263E-4,1.851573586E-3,1.909349865E-3
1.312141817E1,2.070746385E-3,6.255051121E-4,3.072710708E-3,3.757765071E-3
1.313137517E1,3.993814811E-3,9.821020067E-4,3.160722554E-4,4.124922153E-3
1.314133217E1,-1.078502974E-3,2.420880832E-3,4.845056683E-4,2.694174903E-3
1.315128817E1,-1.149609452E-3,-1.843905076E-3,1.200096682E-3,2.482301325E-3
1.316124517E1,-5.006412975E-4,1.829043031E-3,-1.456724480E-3,2.391252042E-3
1.317120217E1,-7.426925004E-5,-2.679415047E-6,1.115091145E-3,1.117564925E-3
1.318115917E1,9.262926178E-4,3.988090903E-4,1.171601936E-3,1.545871211E-3
1.319111617E1,1.266378327E-3,7.603410631E-5,-5.000643432E-4,1.363656702E-3
1.320107317E1,1.266193576E-3,1.171217300E-3,1.043306664E-3,2.015808753E-3
1.321103017E1,-2.031865064E-3,4.207380116E-4,2.514170483E-3,3.259838850E-3
1.322098717E1,1.150049618E-3,9.407578036E-4,1.137224957E-3,1.871074551E-3
1.323094417E1,-1.095261425E-3,6.467448547E-4,1.448813826E-3,1.927936202E-3
1.324090017E1,-6.151879206E-4,-3.652060404E-4,-5.675666034E-5,7.176718945E-4
1.325085717E1,5.760442000E-4,-3.154054284E-4,6.817374378E-4,9.466115564E-4
1.326081417E1,-5.526896566E-4,-7.276115939E-4,1.374531537E-3,1.650521565E-3
1.327077117E1,4.385388456E-4,7.953494787E-6,2.643261105E-3,2.679404569E-3
1.328072817E1,1.309283660E-3,-4.788711667E-4,-1.531057060E-3,2.070670668E-3
1.329068517E1,-2.069887705E-5,-6.948532537E-4,-1.348897815E-3,1.517489638E-3
1.330064217E1,-2.080770209E-3,1.918896101E-3,-2.242106944E-3,3.610929307E-3
1.331059917E1,1.948059769E-3,-2.819402143E-4,-2.567013726E-3,3.234808590E-3
1.332055617E1,3.267580178E-4,-1.454863697E-3,7.205195725E-4,1.656063898E-3
1.333051317E1,6.162435748E-4,4.921732470E-4,1.510946080E-3,1.704391007E-3
1.334046917E1,2.263034461E-3,1.336324029E-3,1.430690289E-3,2.992317093E-3
1.335042617E1,-5.926731974E-4,-3.510545939E-4,1.301260665E-3,1.472338332E-3
1.336038317E1,3.134761937E-5,1.550360583E-3,-6.008557975E-4,1.663017829E-3
1.337034017E1,7.922127843E-4,-2.632522956E-4,-2.123383805E-3,2.281591912E-3
1.338029717E1,-1.362829469E-3,1.025271602E-3,3.710929304E-4,1.745335493E-3
1.339025417E1,1.839345787E-4,1.845259219E-3,2.116527408E-3,2.813983260E-3
1.340021117E1,6.408081390E-5,1.721361652E-3,1.237604767E-3,2.121051118E-3
1.341016817E1,6.686183624E-4,1.656646840E-3,2.164917067E-3,2.806847907E-3
1.342012517E1,3.858506680E-4,2.079084516E-4,-7.110461593E-4,8.352803738E-4
1.343008117E1,-5.750178825E-4,4.619741812E-4,-5.038529634E-4,8.932712455E-4
1.344003817E1,4.522427917E-4,-2.438761294E-5,1.141088083E-3,1.227680867E-3
1.344999517E1,8.565107128E-4,8.312864229E-4,9.536016732E-4,1.527744700E-3
1.345995217E1,1.781904371E-3,1.618144102E-3,1.975484192E-4,2.415077411E-3
1.346990917E1,-6.695352495E-4,1.027987339E-3,3.068968654E-3,3.305087596E-3
1.347986617E1,-2.748379484E-5,7.513631135E-4,9.173732251E-4,1.186117836E-3
1.348982317E1,2.896985970E-4,1.395315863E-3,6.795525551E-4,1.578804393E-3
1.349978017E1,1.517214812E-3,1.502496190E-3,-3.072600812E-4,2.157277068E-3
1.350973717E1,1.462195069E-4,1.176521182E-4,-3.472082317E-4,3.946843312E-4
1.351969417E1,1.309719984E-3,-1.423269510E-3,-5.061961710E-4,1.999324161E-3
1.352965017E1,2.156933770E-4,-4.679942504E-4,2.181731164E-3,2.241761166E-3
1.353960717E1,-8.465722203E-6,-1.297462732E-3,4.079379141E-4,1.360108286E-3
1.354956417E1,2.046695678E-3,-2.015717328E-3,-1.896545291E-5,2.872705907E-3
1.355952117E1,2.676650649E-3,-2.086691558E-3,-1.795742661E-3,3.839717706E-3
1.356947817E1,3.315010341E-3,1.908438280E-4,-7.288809866E-4,3.399556209E-3
1.357943517E1,1.681876485E-3,2.476703376E-4,1.609919593E-3,2.341343675E-3
1.358939217E1,5.492342170E-4,-2.161425538E-3,3.050690517E-3,3.778906087E-3
1.359934917E1,-1.892189728E-3,1.662957482E-3,1.623552293E-3,2.996953720E-3
1.360930617E1,-6.153271534E-5,-1.570470631E-4,-4.001837224E-4,4.342776379E-4
1.361926383E1,-1.175779151E-3,-8.859373629E-4,-1.816155389E-3,2.337896922E-3
1.362921983E1,-2.132919384E-3,8.914563805E-4,5.769617856E-4,2.382629740E-3
1.363917683E1,-9.704725817E-4,-5.505820736E-4,9.390264750E-4,1.458330680E-3
1.364913383E1,-3.142696805E-4,-6.432598457E-4,1.000013202E-3,1.229867906E-3
1.365909083E1,3.383501898E-4,1.548709348E-3,2.750493586E-4,1.608923132E-3
1.366904783E1,2.297904110E-3,8.741300553E-4,2.470558509E-3,3.485416187E-3
1.367900483E1,-7.187831216E-5,-2.252139151E-3,-5.626790226E-4,2.322478187E-3
1.368896183E1,-7.797465660E-4,-1.732289791E-3,1.421907917E-3,2.372900072E-3
1.369891883E1,1.525248401E-3,1.853226684E-3,-3.601834178E-4,2.427048397E-3
1.370887583E1,-5.075423978E-4,-1.161806285E-4,9.314492345E-4,1.067096481E-3
1.371883283E1,-6.836326793E-5,4.899036139E-5,2.006681636E-3,2.008443372E-3
1.372878883E1,-1.825783402E-3,8.737714961E-4,4.458036274E-4,2.072607665E-3
1.373874583E1,5.777375773E-4,1.563950442E-3,-2.596322447E-4,1.687344243E-3
1.374870283E1,-3.100087866E-3,-1.198546030E-3,1.670893282E-3,3.720072811E-3
1.375865983E1,4.090461880E-4,-1.092820428E-3,6.718840450E-4,1.346478163E-3
1.376861683E1,-9.369153995E-4,-1.518925652E-3,9.951926768E-4,2.043368314E-3
1.377857383E1,-9.704381227E-6,1.104231924E-4,6.919167936E-4,7.007398274E-4
1.378853083E1,6.089480594E-4,-1.652138308E-4,1.815238968E-3,1.921771542E-3
1.379848783E1,3.868285101E-3,-8.776299655E-4,-1.667581499E-3,4.302870209E-3
1.380844483E1,7.539843209E-4,7.932372391E-4,-2.220187336E-3,2.475267558E-3
1.381840083E1,3.622684162E-4,2.417527139E-4,-8.627325296E-4,9.664316829E-4
1.382835783E1,4.093091004E-3,-5.681142211E-4,9.191893041E-4,4.233326908E-3
1.383831483E1,-9.063561447E-5,1.143297181E-3,2.837948501E-3,3.060930406E-3
1.384827183E1,-4.504285753E-4,-2.080192789E-3,1.455236226E-3,2.578332876E-3
1.385822883E1,5.579798017E-4,5.198977888E-4,1.083891839E-4,7.703138224E-4
1.386818583E1,-3.786538728E-4,1.780638471E-3,7.283724844E-4,1.960759699E-3
1.387814283E1,2.587677212E-3,-1.686485484E-4,-4.502646625E-4,2.631967696E-3
1.388809983E1,3.769872710E-4,-7.324405015E-4,1.076525077E-3,1.355542228E-3
1.389805683E1,-8.960748091E-4,3.155032173E-4,8.720308542E-4,1.289546492E-3
1.390801383E1,2.724759048E-3,-4.831785336E-4,2.131972462E-3,3.493290704E-3
1.391797083E1,1.288213767E-3,1.227036119E-3,4.246197641E-4,1.829047372E-3
1.392792683E1,6.051128730E-4,-1.698979177E-3,-7.679425180E-4,1.960211096E-3
1.393788383E1,6.879321299E-4,-1.232081093E-3,-5.654599518E-4,1.520203734E-3
1.394784083E1,-1.999729779E-3,-2.009058371E-4,7.091276348E-4,2.131230711E-3
1.395779783E1,-7.990701124E-5,3.844536841E-4,1.888848841E-3,1.929232933E-3
1.396775483E1,-3.424945753E-4,-1.146597788E-3,1.533582807E-3,1.945215989E-3
1.397771183E1,1.821009093E-3,-3.073364496E-8,2.232154831E-3,2.880727219E-3
1.398766883E1,1.845510211E-3,-1.411240548E-3,-4.102345556E-4,2.359194823E-3
1.399762583E1,-8.341057692E-4,2.465403639E-3,1.834195107E-3,3.184057039E-3
1.400758283E1,6.354264915E-4,-3.197304904E-4,1.358553767E-3,1.533513205E-3
1.401753983E1,1.875273068E-3,2.124300227E-4,-6.677955389E-5,1.888447803E-3
1.402749583E1,-1.077749766E-5,-1.794528216E-3,1.511676237E-3,2.346404210E-3
1.403745283E1,1.619766583E-3,9.675631300E-4,3.411546350E-4,1.917344173E-3
1.404740983E1,3.912504762E-4,-1.327282749E-3,2.367021516E-3,2.741814598E-3
1.405736683E1,-2.474808134E-4,-4.958510399E-4,3.492757678E-4,6.550637898E-4
1.406732383E1,7.615908980E-4,-2.635167912E-3,1.114550978E-4,2.745278284E-3
1.407728083E1,-1.548674889E-3,-9.410399944E-4,-3.019079566E-3,3.521191788E-3
1.408723783E1,-2.185170539E-3,1.194016077E-3,-1.130364835E-3,2.734660735E-3
1.409719483E1,4.251380451E-4,-1.758792438E-3,2.011381090E-3,2.705503111E-3
1.410715183E1,3.694780171E-4,-9.174998850E-4,4.623457789E-5,9.901806301E-4
1.411710883E1,4.845903255E-3,-3.132156096E-3,-1.111924648E-4,5.771095557E-3
1.412706483E1,-1.533432631E-3,-1.376867294E-3,4.541967064E-4,2.110325526E-3
1.413702183E1,-1.929351361E-3,1.629779115E-3,-2.211129293E-3,3.356734930E-3
1.414697883E1,-1.273148460E-3,-2.500783652E-3,5.718749017E-4,2.863890148E-3
1.415693583E1,2.973595401E-3,-4.904232919E-4,1.192791387E-3,3.241224446E-3
1.416689283E1,3.991175909E-4,8.086664602E-4,4.505682737E-4,1.008091298E-3
1.417684983E1,4.636016674E-4,3.448249772E-4,-1.094490290E-4,5.880560015E-4
1.418680683E1,1.638322021E-3,-2.573160455E-4,-2.955272794E-5,1.658669333E-3
1.419676383E1,1.037018606E-3,-1.535418443E-3,-6.584841758E-4,1.966346561E-3
1.420672083E1,8.487331215E-4,-1.144733280E-3,-5.287881941E-4,1.519993141E-3
1.421667783E1,-8.631730452E-5,-2.307222225E-3,1.268791035E-3,2.634493454E-3
1.422663483E1,1.024753437E-3,-2.139778808E-4,1.445889473E-3,1.785077732E-3
1.423659083E1,2.439656062E-3,-2.528158948E-4,1.510526985E-3,2.880543239E-3
1.424654783E1,-6.541381590E-4,-1.769158989E-4,7.022563368E-4,9.758893016E-4
1.425650483E1,-9.439531714E-4,5.706651136E-4,-1.629976556E-3,1.968128510E-3
1.426646183E1,7.423602510E-4,-2.313005738E-3,-1.617725939E-3,2.918583817E-3
1.427641883E1,3.003186313E-3,1.860140823E-3,2.629879862E-3,4.404034514E-3
1.428637583E1,1.791714341E-3,3.791563213E-4,2.532940358E-3,3.125665794E-3
1.429633283E1,4.359749146E-4,1.657604240E-3,2.396643162E-3,2.946459636E-3
1.430628983E1,2.583421301E-4,-1.901710406E-3,-2.033792436E-3,2.796346688E-3
1.431624683E1,2.930661431E-3,3.491826355E-4,-1.888126135E-3,3.503673106E-3
1.432620383E1,-1.110152807E-3,-1.091472805E-4,-7.869098336E-4,1.365129836E-3
1.433615983E1,2.035452053E-4,6.155911833E-4,1.114353538E-3,1.289250543E-3
1.434611683E1,1.621412113E-3,5.293050781E-4,1.522084698E-3,2.286019015E-3
1.435607383E1,-5.827983841E-6,1.146066934E-4,3.426793963E-3,3.428714850E-3
1.436603083E1,-9.637535550E-5,-8.742250502E-4,6.455183029E-5,8.818869465E-4
1.437598783E1,2.833747305E-3,1.739592291E-3,1.920107752E-3,3.839676928E-3
1.438594483E1,4.811109975E-4,-1.700147055E-3,-1.270091161E-3,2.176028345E-3
1.439590183E1,-6.048150826E-4,-9.495448321E-4,-1.636806875E-3,1.986598455E-3
1.440585883E1,1.297747251E-3,-7.530031726E-4,-5.347914994E-4,1.592847655E-3
1.441581583E1,5.192952231E-4,-7.927883416E-5,2.134980634E-3,2.198657538E-3
1.442577283E1,-1.061557094E-3,-6.537223235E-4,3.037791699E-3,3.283661789E-3
1.443572883E1,-1.896954607E-3,4.181079566E-5,3.569547087E-3,4.042505576E-3
1.444568583E1,-2.029177267E-4,-1.592838205E-3,2.434507012E-3,2.916356210E-3
1.445564283E1,-2.127161948E-3,-3.029489890E-4,-1.128369942E-3,2.426894058E-3
1.446559983E1,2.412994858E-3,-2.114697360E-3,-1.245282590E-3,3.441688225E-3
1.447555683E1,1.670154510E-3,7.021026686E-4,6.153304130E-4,1.913372876E-3
1.448551383E1,-6.534534041E-4,-2.873191610E-3,1.086443663E-3,3.140476271E-3
1.449547083E1,5.263043568E-5,1.712050289E-3,5.145868286E-3,5.423453381E-3
1.450542783E1,-1.866443548E-3,3.288043663E-4,8.880067617E-4,2.092911809E-3
1.451538483E1,-8.418262005E-4,2.828966826E-4,-1.924788579E-3,2.119790782E-3
1.452534183E1,2.852235921E-4,7.737167180E-4,-1.083496958E-3,1.361600424E-3
1.453529883E1,-8.180567529E-4,2.171332017E-4,-4.370901734E-4,9.525814915E-4
1.454525483E1,-2.227934543E-3,-8.665071800E-4,-5.830302835E-4,2.460579471E-3
1.455521183E1,1.568855252E-3,9.421370924E-4,1.467915252E-3,2.345997504E-3
1.456516883E1,1.646885881E-3,-1.615296118E-3,1.669250429E-3,2.847421930E-3
1.457512583E1,-4.768464714E-5,1.111826859E-3,4.668112844E-3,4.798928038E-3
1.458508283E1,-2.116694348E-3,1.499317586E-3,1.286964864E-3,2.895621997E-3
1.459503983E1,1.265385654E-4,-8.353274316E-4,8.367598057E-4,1.189096673E-3
1.460499683E1,1.900470117E-3,-1.464898698E-3,-2.974811941E-4,2.417893695E-3
1.461495383E1,4.239813425E-4,-1.862747595E-4,9.476505220E-4,1.054751144E-3
1.462491083E1,3.962842748E-4,1.215860248E-4,1.660311595E-3,1.711274081E-3
1.463486783E1,1.407290227E-3,5.590934306E-4,7.093138993E-4,1.672177459E-3
1.464482483E1,-9.757063817E-4,3.015659750E-4,6.459299475E-4,1.208375139E-3
1.465478083E1,-3.534301650E-4,-1.061248593E-3,1.044491306E-3,1.530399799E-3
1.466473783E1,3.027727362E-4,1.110292971E-3,2.418151125E-3,2.678035974E-3
1.467469483E1,-2.249161713E-3,8.543953300E-5,-5.348250270E-4,2.313453292E-3
1.468465183E1,6.361068226E-4,-6.927363575E-4,7.530674338E-5,9.434970357E-4
1.469460883E1,5.539003760E-4,-1.926164143E-3,2.289319411E-3,3.042679296E-3
1.470456583E1,1.581347897E-3,1.398526132E-3,9.790454060E-4,2.327029527E-3
1.471452283E1,1.771292882E-3,-8.701160550E-4,3.521131352E-3,4.036452207E-3
1.472447983E1,6.184102967E-4,9.155329317E-4,-1.001713797E-3,1.491329064E-3
1.473443683E1,8.574185194E-4,-2.027401701E-3,-7.288716733E-4,2.318788065E-3
1.474439383E1,-1.251804875E-3,1.316995360E-3,-4.124268889E-5,1.817468895E-3
1.475434983E1,2.708760323E-3,-1.191347837E-4,-3.707222641E-4,2.736605668E-3
1.476430683E1,-4.598686937E-4,-1.255239360E-3,-1.167805865E-3,1.775070592E-3
1.477426383E1,-8.499945980E-4,8.203238249E-4,1.039309427E-3,1.573399530E-3
1.478422083E1,2.794521861E-4,-1.998099498E-3,3.743190318E-4,2.051977063E-3
1.479417783E1,2.010319848E-3,8.967798203E-5,7.122755051E-5,2.013579250E-3
1.480413483E1,4.521042574E-4,-4.059527069E-3,1.625753939E-4,4.087858736E-3
1.481409183E1,5.322659854E-4,-1.713666134E-3,-1.333024353E-3,2.235377512E-3
1.482404883E1,2.960269805E-3,1.781732775E-3,-2.418261021E-3,4.217316133E-3
1.483400583E1,-4.249247722E-4,4.122545943E-4,1.398032531E-3,1.518225896E-3
1.484396283E1,7.055869792E-4,-6.426237524E-4,-8.965469897E-4,1.309432998E-3
1.485391983E1,3.019974800E-3,-1.133797690E-3,1.093912870E-4,3.227647975E-3
1.486387583E1,1.348042395E-3,5.890009925E-4,1.490240917E-3,2.094029240E-3
1.487383283E1,8.631516248E-4,-6.760088727E-4,5.076471716E-4,1.208190537E-3
1.488378983E1,1.058361377E-3,-8.294070140E-4,-1.248707995E-3,1.835024919E-3
1.489374683E1,1.254968811E-4,-7.128650323E-4,-9.349547327E-4,1.182398568E-3
1.490370383E1,-1.409815159E-3,4.892861471E-4,1.361686736E-4,1.498506464E-3
1.491366083E1,5.658746231E-4,6.493050605E-4,1.326870173E-3,1.581896206E-3
1.492361783E1,1.032460481E-3,-8.367383853E-4,4.327720031E-3,4.527169804E-3
1.493357483E1,-2.421257785E-3,2.259791829E-3,1.045709476E-3,3.473133553E-3
1.494353183E1,-1.192211639E-4,-1.986884512E-3,-2.000413835E-3,2.821981442E-3
1.495348883E1,5.181857850E-4,-5.231965333E-4,-2.864290029E-3,2.957432753E-3
1.496344583E1,-1.155877253E-3,1.353799365E-3,-2.229923382E-3,2.853310925E-3
1.497340183E1,-6.371224299E-4,4.496928304E-4,-8.629504591E-4,1.163113119E-3
1.498335883E1,-2.309587318E-3,-5.900049582E-4,1.961864531E-3,3.087266084E-3
1.499331583E1,1.331998385E-3,5.188649520E-4,-6.756819785E-4,1.581134615E-3
1.500327283E1,7.184059359E-4,-3.597121686E-4,3.652755171E-3,3.740069555E-3
1.501322983E1,-3.634004388E-4,2.424558625E-4,-6.025284529E-5,4.409933441E-4
1.502318683E1,8.773896843E-5,-9.498419240E-4,-9.572040290E-4,1.351346499E-3
1.503314383E1,-1.284698956E-4,4.550954327E-4,-5.723591894E-4,7.424361310E-4
1.504310083E1,-1.042999560E-3,7.070302963E-4,2.359114587E-4,1.281949351E-3
1.505305783E1,2.007867675E-3,6.963582709E-4,1.224560663E-3,2.452752792E-3
1.506301483E1,7.452631835E-4,8.300486952E-4,-1.749303192E-4,1.129158388E-3
1.507297183E1,1.363381278E-3,-1.972193830E-3,-6.248056889E-5,2.398387131E-3
1.508292783E1,2.951690461E-3,-2.471003681E-3,2.235295251E-3,4.451390865E-3
1.509288483E1,2.837860957E-4,8.448399603E-4,1.827973872E-3,2.033661128E-3
1.510284183E1,-4.751118831E-5,-1.365346834E-4,-1.977151260E-3,1.982429352E-3
1.511279883E1,5.787373520E-4,-5.617085844E-5,2.071820199E-5,5.818258604E-4
1.512275583E1,-6.423220038E-4,2.758258022E-3,2.668699250E-3,3.891339173E-3
1.513271283E1,-2.143331338E-3,-8.974634111E-4,1.139618456E-3,2.588057191E-3
1.514266983E1,4.830779508E-4,2.917781472E-3,2.799833193E-3,4.072576450E-3
1.515262683E1,-1.279407181E-3,-1.867590472E-3,6.503909826E-4,2.355373715E-3
1.516258383E1,-5.638159346E-4,5.462989211E-4,-1.180000603E-3,1.417297549E-3
1.517254083E1,1.117877546E-3,1.120517030E-3,1.414973289E-3,2.123053940E-3
1.518249783E1,-8.254309651E-4,9.974790737E-4,1.534283161E-3,2.007567085E-3
1.519245383E1,1.085773110E-3,1.362096518E-4,9.094588459E-4,1.422874453E-3
1.520241083E1,3.683175892E-4,2.360781655E-4,2.036241814E-3,2.082707726E-3
1.521236783E1,-5.169755314E-4,4.876805469E-4,1.208802685E-3,1.402248176E-3
1.522232483E1,2.943003550E-3,-2.255908214E-3,8.058659732E-4,3.794708386E-3
1.523228183E1,5.256324075E-4,-5.491776392E-4,5.480945110E-4,9.371729297E-4
1.524223883E1,5.695745349E-4,-2.143345773E-3,-1.074569300E-3,2.464354973E-3
1.525219583E1,-8.562733419E-4,1.090041362E-3,-1.124739647E-4,1.390699320E-3
1.526215283E1,-7.428226527E-4,3.012130037E-4,-4.083476961E-5,8.026096469E-4
1.527210983E1,2.941793296E-3,6.037764251E-5,1.200251281E-3,3.177797413E-3
1.528206683E1,2.163084922E-3,1.712336205E-3,-5.052369088E-4,2.804691782E-3
1.529202383E1,1.281785080E-3,-7.854737341E-4,1.568900421E-3,2.172876092E-3
1.530197983E1,2.547319280E-3,-2.520523034E-3,-3.374459222E-3,4.922280662E-3
1.531193683E1,1.869354164E-3,9.625935927E-4,-7.848925889E-4,2.244354649E-3
1.532189383E1,-1.099804183E-3,1.009198837E-3,3.759786487E-4,1.539289277E-3
1.533185083E1,1.690970617E-3,-1.060795970E-3,-1.285038888E-4,2.000295720E-3
1.534180783E1,-6.342353299E-4,3.922246397E-4,9.543374181E-4,1.211137700E-3
1.535176483E1,-1.065141056E-3,1.404968090E-3,8.443929255E-5,1.765103622E-3
1.536172183E1,1.953330357E-4,1.673968509E-4,-1.474574208E-3,1.496845281E-3
1.537167883E1,1.933648717E-3,4.169633612E-4,-2.043783665E-3,2.844276265E-3
1.538163583E1,6.356241647E-4,-2.072293311E-3,-1.063473523E-3,2.414413714E-3
1.539159283E1,-1.290794462E-3,-1.807481982E-3,-1.002594829E-3,2.436870503E-3
1.540154983E1,9.619735647E-4,-7.765721530E-4,3.998260945E-4,1.299353052E-3
1.541150683E1,1.759987790E-3,1.565745100E-3,4.593562335E-4,2.400025602E-3
1.542146283E1,-2.118165139E-4,-2.340845764E-3,1.850591972E-3,2.991507275E-3
1.543141983E1,-3.785484005E-4,1.097177155E-3,-2.153068781E-4,1.180446379E-3
1.544137683E1,5.671400577E-4,1.403028145E-4,-2.853479236E-4,6.501970181E-4
1.545133383E1,-3.071171232E-3,3.529712558E-6,-7.778462023E-4,3.168146131E-3
1.546129083E1,1.197343576E-3,-6.837584078E-5,2.399837598E-3,2.682820790E-3
1.547124783E1,2.016909420E-4,-2.191895619E-4,1.190232113E-3,1.226937563E-3
1.548120483E1,3.160995431E-3,1.592449844E-4,1.517267898E-3,3.509893582E-3
1.549116183E1,1.183302724E-3,-6.448114291E-4,9.683761746E-4,1.659439523E-3
1.550111883E1,4.850218538E-4,1.698499545E-4,2.160938457E-3,2.221204677E-3
1.551107583E1,9.785662405E-4,-2.641817555E-4,1.409817487E-4,1.023357093E-3
1.552103283E1,1.145546441E-3,-2.014144324E-3,2.939440310E-5,2.317308360E-3
1.553098883E1,1.907630591E-3,-5.337661132E-4,-6.100144237E-4,2.072698321E-3
1.554094583E1,-2.860152163E-4,2.185767516E-4,-1.170342788E-3,1.224452017E-3
1.555090283E1,-1.724439207E-4,-3.034416586E-4,1.535793766E-3,1.574952774E-3
1.556085983E1,1.828218810E-4,1.279008575E-3,-1.402471215E-3,1.906885493E-3
1.557081683E1,3.416726831E-4,2.664340660E-3,2.532027662E-3,3.691424583E-3
1.558077383E1,1.349412836E-3,-2.199923620E-3,-1.642210409E-3,3.058992312E-3
1.559073083E1,1.180910040E-3,-1.443643123E-3,-6.044283509E-5,1.866094136E-3
1.560068783E1,-3.615464084E-5,1.069847494E-3,-2.745613456E-4,1.105108480E-3
1.561064483E1,2.522817813E-4,4.047742113E-4,1.583531499E-3,1.653801762E-3
1.562060117E1,-2.193032764E-3,-3.241337836E-4,2.243462950E-3,3.153978665E-3
1.563055817E1,-1.056964742E-3,2.944013104E-4,8.639506996E-5,1.100595614E-3
1.564051417E1,4.493329208E-3,1.118117012E-3,-2.317907289E-3,5.178116185E-3
1.565047117E1,8.850705344E-4,-1.389106736E-3,-9.139906615E-4,1.883705471E-3
1.566042817E1,7.760012522E-5,-9.366357699E-4,-7.988885045E-5,9.432341031E-4
1.567038517E1,4.319762811E-4,2.787020057E-4,1.325348392E-3,1.421557834E-3
1.568034217E1,7.031904534E-5,-5.964133888E-4,3.391802311E-4,6.897078568E-4
1.569029917E1,1.243995503E-4,4.268130288E-4,1.756167039E-3,1.811564870E-3
1.570025617E1,1.314033638E-3,1.994882710E-3,1.939393580E-3,3.076928483E-3
1.571021317E1,-4.443549551E-5,1.470381394E-4,-3.303723410E-3,3.307292412E-3
1.572017017E1,-2.036480000E-3,-2.009855583E-3,-3.136210144E-3,4.245301441E-3
1.573012717E1,6.373444339E-4,1.689651981E-4,-2.479281276E-3,2.565461521E-3
1.574008417E1,6.762265693E-4,-3.905650228E-4,1.447018236E-3,1.644288656E-3
1.575004117E1,-1.556487055E-3,4.158709198E-4,3.703756258E-3,4.038986382E-3
1.575999717E1,-2.153194509E-4,1.506507397E-5,1.667769626E-3,1.681679205E-3
1.576995417E1,2.266399097E-4,-1.116022468E-4,1.191753894E-3,1.218235632E-3
1.577991117E1,-2.687079832E-4,1.640225761E-3,-2.250116318E-3,2.797421665E-3
1.578986817E1,1.714080572E-4,1.702896319E-3,-2.603013068E-3,3.115271037E-3
1.579982517E1,3.767379094E-4,2.424186096E-4,-3.538049757E-3,3.566299808E-3
1.580978217E1,9.173408616E-4,2.392067574E-3,3.773061559E-3,4.560646342E-3
1.581973917E1,3.895023838E-4,-4.046410322E-5,2.220705152E-3,2.254968031E-3
1.582969617E1,7.410458056E-4,-1.909752376E-3,8.102767169E-4,2.202918833E-3
1.583965317E1,5.277266027E-4,-1.210938208E-3,6.805360317E-5,1.322685905E-3
1.584961017E1,1.535781892E-3,-1.387239434E-3,-4.002889618E-3,4.506238405E-3
1.585956717E1,8.606704650E-4,-1.688975841E-3,-2.683559433E-3,3.285556919E-3
1.586952417E1,8.093885845E-4,-2.115477808E-3,-2.047494054E-4,2.274264399E-3
1.587948017E1,2.166801831E-3,1.468695700E-6,-1.469589770E-4,2.171780208E-3
