"Time (s)","Gyroscope x (rad/s)","Gyroscope y (rad/s)","Gyroscope z (rad/s)","Absolute (rad/s)"
-3.190541665E-3,3.447752679E-4,3.712754697E-4,-9.612921625E-3,9.626264989E-3
6.766458333E-3,1.996009145E-3,1.289052889E-3,-8.169751614E-3,8.508263706E-3
1.672345834E-2,2.021042863E-3,-6.356649101E-5,-7.662419695E-3,7.924729052E-3
2.668045833E-2,1.617521746E-3,-2.439711243E-4,-8.417561650E-3,8.575036014E-3
3.663745834E-2,8.220355376E-4,4.684245214E-4,-6.843899842E-3,6.908989001E-3
4.659445833E-2,2.900800668E-3,2.771075815E-4,-8.363282308E-3,8.856405822E-3
5.655145834E-2,2.714615548E-4,-1.062462106E-3,-9.798992425E-3,9.860160732E-3
6.650845833E-2,-2.543330193E-4,-2.212207764E-4,-1.047975197E-2,1.048517169E-2
7.646445833E-2,-7.475505117E-4,-1.931502484E-3,-8.328982629E-3,8.582626943E-3
8.642145833E-2,-1.003145007E-4,1.816581935E-4,-7.870200090E-3,7.872935422E-3
9.637845833E-2,-8.244280471E-4,1.155310310E-3,-8.235319518E-3,8.356728491E-3
1.063354583E-1,1.549548353E-3,-7.155044004E-4,-4.802135751E-3,5.096425651E-3
1.162924583E-1,1.942897215E-3,2.387344837E-3,-4.414113238E-3,5.381325175E-3
1.262494583E-1,-1.843901118E-4,4.707360640E-4,-8.668201044E-3,8.682931619E-3
1.362064583E-1,1.951731392E-3,-1.535423100E-3,-9.878341109E-3,1.018569598E-2
1.461634583E-1,5.069475155E-4,1.272717491E-3,-8.449058048E-3,8.559403455E-3
1.561194583E-1,5.269212415E-4,-2.461034805E-3,-8.496995084E-3,8.861899557E-3
1.660764583E-1,5.521471612E-4,1.326834783E-3,-7.463783491E-3,7.600882912E-3
1.760334583E-1,-3.139127512E-4,1.037348993E-3,-6.695994176E-3,6.783138813E-3
1.859904583E-1,1.819791622E-3,1.238397323E-3,-6.403073668E-3,6.770865667E-3
1.959474583E-1,9.912822861E-4,-1.975505613E-3,-8.593523875E-3,8.873213374E-3
2.059044583E-1,1.253818278E-3,1.069129445E-3,-7.182993926E-3,7.369565780E-3
2.158614583E-1,6.961523322E-4,1.037437469E-3,-9.978780523E-3,1.005668759E-2
2.258184583E-1,-1.634717337E-3,7.458981127E-4,-7.306329906E-3,7.524036248E-3
2.357744583E-1,1.884117373E-3,7.930863649E-5,-9.659232572E-3,9.841593469E-3
2.457314583E-1,-1.392986160E-3,1.026678830E-3,-8.961400017E-3,9.126947471E-3
2.556884583E-1,-1.505904133E-3,1.558251679E-4,-7.187734358E-3,7.345444435E-3
2.656454583E-1,-2.125079278E-3,9.800316766E-4,-7.642118260E-3,7.992396107E-3
2.756024583E-1,8.693790878E-4,-2.138633281E-4,-6.313999649E-3,6.377158387E-3
2.855594583E-1,7.680634153E-4,-2.135219984E-3,-9.893825278E-3,1.015070758E-2
2.955164583E-1,9.044172475E-4,-3.575598821E-4,-8.428553119E-3,8.484475665E-3
3.054734583E-1,2.670244779E-3,2.042986453E-4,-8.792530745E-3,9.191329720E-3
3.154294583E-1,-2.723189071E-3,1.686347649E-3,-5.431888159E-3,6.305944504E-3
3.253864583E-1,-1.488608541E-4,2.613769844E-3,-5.709005520E-3,6.280660505E-3
3.353434583E-1,-2.852502046E-3,-1.457976177E-4,-3.984075971E-3,4.902130783E-3
3.453004583E-1,1.547271037E-3,-1.687536947E-3,-7.813481614E-3,8.142009797E-3
3.552574583E-1,1.156052691E-3,-2.667410299E-4,-8.114951663E-3,8.201222414E-3
3.652144583E-1,4.685895983E-4,-2.346504480E-4,-9.564159438E-3,9.578506293E-3
3.751714583E-1,-1.333837863E-3,1.547536813E-3,-5.344647449E-3,5.721822260E-3
3.851284583E-1,7.281885482E-4,1.467449591E-3,-8.241331205E-3,8.402571445E-3
3.950854583E-1,-9.429450147E-4,-1.324875280E-3,-6.817870773E-3,7.009122748E-3
4.050414583E-1,2.472638153E-4,-6.520152092E-4,-7.860952988E-3,7.891821406E-3
4.149984583E-1,-8.560838178E-4,-1.367607154E-3,-7.484915201E-3,7.656839060E-3
4.249554583E-1,1.632048865E-3,-9.220847860E-4,-7.512513082E-3,7.742846806E-3
4.349124583E-1,1.006472390E-3,2.449117601E-4,-6.432069000E-3,6.514942829E-3
4.448694583E-1,-2.020792803E-3,-3.365973942E-3,-8.000502363E-3,8.911869736E-3
4.548264583E-1,-1.583768055E-3,-1.536915079E-3,-6.544285920E-3,6.906381644E-3
4.647834583E-1,-2.139816061E-4,4.176525399E-4,-6.530556828E-3,6.547395990E-3
4.747404583E-1,-1.799627673E-3,-1.733115874E-3,-8.079984225E-3,8.457452068E-3
4.846964583E-1,2.923956839E-3,-1.556696370E-4,-8.870799094E-3,9.341564816E-3
4.946534583E-1,2.472136403E-4,-2.723159268E-4,-6.546657532E-3,6.556980661E-3
5.046104583E-1,-2.704665530E-5,5.324278027E-5,-7.952926680E-3,7.953150891E-3
5.145674583E-1,-1.943457406E-3,-2.643207088E-3,-7.987281308E-3,8.634826755E-3
5.245244583E-1,2.399340970E-3,-2.024099231E-4,-7.128763478E-3,7.524431912E-3
5.344814583E-1,3.995732404E-4,-1.264478080E-3,-6.182009820E-3,6.322642565E-3
5.444384583E-1,8.720437763E-4,5.102884024E-4,-7.222715765E-3,7.293043098E-3
5.543954583E-1,1.762604807E-3,2.200064249E-3,-5.260498729E-3,5.968241389E-3
5.643514583E-1,3.966168733E-4,-1.554360613E-3,-7.637561765E-3,7.804209862E-3
5.743084583E-1,1.244418090E-4,3.993343562E-4,-4.859086126E-3,4.877055636E-3
5.842654583E-1,6.256377674E-4,-3.959350288E-4,-7.778677158E-3,7.813834238E-3
5.942224583E-1,8.173853857E-4,1.186248846E-3,-8.025285788E-3,8.153558559E-3
6.041794583E-1,1.861558994E-4,6.865998730E-4,-3.777327947E-3,3.843732538E-3
6.141364583E-1,-6.466144696E-4,4.075001925E-4,-4.436460324E-3,4.501815954E-3
6.240934583E-1,-1.494165044E-3,-2.247720025E-3,-6.580348592E-3,7.112366841E-3
6.340504583E-1,-9.149273392E-4,-3.872355446E-4,-8.503417484E-3,8.561258805E-3
6.440074583E-1,2.772977808E-3,-3.562290221E-4,-5.944751669E-3,6.569351372E-3
6.539634583E-1,1.635541674E-3,-3.019003198E-4,-5.137014668E-3,5.399542580E-3
6.639204583E-1,-2.047119197E-3,-1.448158175E-3,-4.350664560E-3,5.021567605E-3
6.738774583E-1,1.989700599E-3,-1.396493055E-3,-6.526466925E-3,6.964472115E-3
6.838344583E-1,-3.288131673E-3,-1.895645633E-3,-4.191552289E-3,5.654590423E-3
6.937914583E-1,8.498881944E-4,3.776289523E-4,-4.994495772E-3,5.080344632E-3
7.037484583E-1,1.037451555E-3,-8.061649278E-4,-7.062240038E-3,7.183414367E-3
7.137054583E-1,-2.514966764E-5,-1.656512730E-3,-6.537597161E-3,6.744245218E-3
7.236633333E-1,4.556049826E-4,-1.468918286E-3,-5.318342708E-3,5.536250174E-3
7.336193333E-1,3.999449546E-4,-8.875494823E-4,-5.013410468E-3,5.107052434E-3
7.435763333E-1,-5.041758996E-4,-4.314621910E-4,-5.708811339E-3,5.747249765E-3
7.535333333E-1,1.013026922E-3,1.272694208E-3,-5.780982785E-3,6.005475506E-3
7.634903333E-1,5.607660278E-4,1.378343441E-3,-5.968953483E-3,6.151641639E-3
7.734473333E-1,2.013253979E-3,-5.130339414E-4,-6.605182774E-3,6.924220887E-3
7.834043333E-1,-1.785066095E-3,-3.365883604E-4,-2.953050192E-3,3.467024391E-3
7.933613333E-1,-6.306625437E-5,-4.196790978E-4,-5.640179850E-3,5.656123818E-3
8.033183333E-1,2.034533303E-3,7.108598948E-5,-6.438334007E-3,6.752519808E-3
8.132743333E-1,1.294707181E-3,2.790972590E-3,-6.592797581E-3,7.275353918E-3
8.232313333E-1,6.989292451E-4,7.156347856E-4,-4.521440249E-3,4.630772847E-3
8.331883333E-1,7.271587383E-4,1.272502355E-3,-6.758229341E-3,6.915322545E-3
8.431453333E-1,5.464069545E-6,-1.162712462E-3,-5.237116478E-3,5.364635974E-3
8.531023333E-1,1.000421005E-3,-2.868467011E-3,-4.846164491E-3,5.719637703E-3
8.630593333E-1,1.925180317E-3,-1.042729244E-3,-4.172044806E-3,4.711641051E-3
8.730163333E-1,-1.027466380E-3,1.056641340E-3,-5.088705104E-3,5.297838967E-3
8.829733333E-1,-3.123759525E-4,-2.047261223E-4,-5.635901354E-3,5.648263060E-3
8.929293333E-1,-1.083777752E-4,-7.289927453E-5,-2.693108283E-3,2.696273775E-3
9.028863333E-1,-1.976653934E-3,1.351668499E-3,-3.860496916E-3,4.542863078E-3
9.128433333E-1,7.123397081E-4,1.776175573E-3,-5.335088819E-3,5.667927332E-3
9.228003333E-1,-2.920855302E-3,-1.700984314E-3,-4.551175516E-3,5.669033596E-3
9.327573333E-1,-1.371694496E-3,1.494276337E-3,-5.685948767E-3,6.036921479E-3
9.427143333E-1,4.709206987E-4,3.207957372E-3,-4.975563847E-3,5.938770276E-3
9.526713333E-1,-1.785575645E-3,-2.196128480E-3,-6.495696027E-3,7.085571788E-3
9.626283333E-1,6.586686941E-4,1.944415271E-4,-4.580709152E-3,4.631905471E-3
9.725853333E-1,-3.312903456E-3,1.332943328E-3,-2.056298777E-3,4.120731960E-3
9.825413333E-1,2.882752102E-3,-2.373883501E-3,-3.601953853E-3,5.188415376E-3
9.924983333E-1,2.843060065E-4,8.932827041E-4,-3.574257251E-3,3.695145300E-3
1.002455333E0,4.507680424E-4,-2.497350797E-4,-5.533766467E-3,5.557709128E-3
1.012412333E0,-9.979915339E-4,2.546682954E-4,-5.251471419E-3,5.351522690E-3
1.022369333E0,8.550070925E-4,7.057143375E-4,-3.202224616E-3,3.388703638E-3
1.032326333E0,9.791103657E-4,-2.878624946E-5,-3.031249624E-3,3.185586294E-3
1.042283333E0,2.162898192E-3,-9.977426380E-4,-5.517916288E-3,6.010076466E-3
1.052240333E0,8.832493331E-4,-1.189224422E-3,-3.653969616E-3,3.942826152E-3
1.062196333E0,1.140400767E-3,-3.762403503E-4,-4.594318103E-3,4.748666080E-3
1.072153333E0,4.104792606E-5,-7.080705836E-4,-4.800180439E-3,4.852296480E-3
1.082110333E0,1.541937003E-3,3.390097991E-4,-5.218666047E-3,5.452244737E-3
1.092067333E0,-3.316201502E-3,1.653721556E-4,-5.480987020E-3,6.408257101E-3
1.102024333E0,3.713141195E-4,1.657426357E-3,-4.717950709E-3,5.014378845E-3
1.111981333E0,-2.189581748E-3,-4.597874358E-4,-3.730450757E-3,4.349935122E-3
1.121938333E0,-4.480648786E-4,4.044929519E-4,-3.167305142E-3,3.224313655E-3
1.131895333E0,-4.038563929E-4,1.839837059E-4,-5.665350240E-3,5.682705635E-3
1.141851333E0,-7.747896016E-4,1.048196107E-3,-3.794466145E-3,4.012105100E-3
1.151808333E0,-4.032786237E-4,3.802757710E-4,-3.772095777E-3,3.812604079E-3
1.161765333E0,-2.112851944E-4,2.477774397E-4,-6.553026848E-3,6.561112402E-3
1.171722333E0,4.963167012E-4,1.519033685E-4,-4.343402572E-3,4.374305751E-3
1.181679333E0,1.754292287E-3,-5.430532619E-4,-5.918907933E-3,6.197250954E-3
1.191636333E0,-1.107274322E-3,-1.828295179E-3,-6.496015005E-3,6.838635144E-3
1.201593333E0,2.678238787E-3,9.313058108E-4,-3.086303826E-3,4.191129301E-3
1.211550333E0,-3.053416032E-3,1.023184508E-3,-2.558198757E-3,4.112740800E-3
1.221506333E0,4.581277026E-4,2.423729748E-4,-7.530430797E-3,7.548245733E-3
1.231463333E0,1.960949507E-3,8.463775739E-4,-4.298151936E-3,4.799561233E-3
1.241420333E0,-2.026336500E-3,1.096406952E-3,-3.001936246E-3,3.784147069E-3
1.251377333E0,-4.420219921E-4,-9.773960337E-4,-5.205436144E-3,5.314814380E-3
1.261334333E0,-2.286032075E-3,9.595435113E-4,-3.458448686E-3,4.255294785E-3
1.271291333E0,-2.259666799E-3,4.636636004E-4,-4.806540906E-3,5.331408206E-3
1.281248333E0,-2.172778826E-3,2.001885325E-3,-4.347856157E-3,5.256649678E-3
1.291205333E0,1.628617407E-3,1.441556029E-3,-5.466117524E-3,5.882934576E-3
1.301161333E0,-1.089168945E-4,7.256790996E-4,-6.872350350E-3,6.911416091E-3
1.311118333E0,-1.381907961E-3,9.051756933E-4,-5.371392705E-3,5.619686133E-3
1.321075333E0,-1.881111762E-3,1.274653710E-3,-5.718190689E-3,6.153131584E-3
1.331032333E0,-2.652629744E-3,3.534079529E-3,-7.671078201E-4,4.484932228E-3
1.340989333E0,2.729760017E-4,3.945893608E-3,-4.773441702E-3,6.199220753E-3
1.350946333E0,2.024022397E-4,-3.090389073E-4,-7.484806236E-3,7.493917273E-3
1.360903333E0,-1.095674234E-4,3.952560946E-4,-2.842832357E-3,2.872268826E-3
1.370860333E0,5.775280879E-4,2.552417107E-3,-5.905201193E-3,6.459084526E-3
1.380816333E0,-5.271988921E-4,1.162238419E-3,-4.135873169E-3,4.328300323E-3
1.390773333E0,-1.616697991E-3,1.920706593E-3,-3.500709310E-3,4.307875565E-3
1.400730333E0,9.386342135E-4,-2.083173022E-4,-3.869228065E-3,3.986898055E-3
1.410687333E0,-2.759431023E-3,-5.473373458E-4,-5.814666860E-3,6.459441805E-3
1.420644333E0,-7.264094893E-4,1.533322036E-3,-5.072329659E-3,5.348576949E-3
1.430601333E0,1.162837027E-3,-1.486702822E-3,-4.552213941E-3,4.927994216E-3
1.440558333E0,2.115557436E-4,1.489937305E-3,-1.950248145E-3,2.463358852E-3
1.450515333E0,7.002458442E-4,-7.377974689E-4,-4.388904665E-3,4.505238451E-3
1.460472333E0,-2.218341688E-3,5.680499598E-4,-2.750574611E-3,3.579019599E-3
1.470428333E0,-1.495027216E-3,-6.681894884E-4,-7.674759254E-3,7.847516370E-3
1.480385333E0,6.816603127E-4,8.623087779E-4,-4.492141772E-3,4.624670249E-3
1.490342333E0,-2.991371788E-3,8.892640471E-5,-4.081482533E-3,5.061097979E-3
1.500299333E0,2.535998356E-4,2.041762695E-3,-2.363071311E-3,3.133243336E-3
1.510256333E0,8.762468933E-4,-1.831272617E-3,-2.722864039E-3,3.396374036E-3
1.520213333E0,2.503038850E-4,-1.981901005E-4,-1.723608468E-3,1.752928265E-3
1.530170333E0,9.371331544E-4,-1.072239131E-3,-4.742834251E-3,4.952008889E-3
1.540127333E0,1.868845779E-3,3.385469317E-4,-2.565385774E-3,3.191927746E-3
1.550083333E0,-4.401148763E-4,-1.171198674E-3,-4.656499252E-3,4.821658710E-3
1.560040333E0,-6.590778939E-4,1.916547306E-3,-5.023788195E-3,5.417193469E-3
1.569997333E0,-1.038578339E-3,6.800414994E-4,-5.986254197E-3,6.113619281E-3
1.579954333E0,-2.974282252E-4,5.022203550E-4,-2.863227390E-3,2.922115658E-3
1.589911333E0,1.277831616E-3,-1.520451158E-3,-1.094355714E-3,2.267650721E-3
1.599868333E0,-8.326164680E-4,2.529121935E-3,-3.664088435E-3,4.529376559E-3
1.609825333E0,1.173542696E-3,7.647778839E-4,-3.744782414E-3,3.998184963E-3
1.619782333E0,-4.389616661E-3,-9.446963668E-4,-5.296316929E-3,6.943497582E-3
1.629738333E0,-4.227214959E-5,-4.394948483E-4,-6.864918396E-3,6.879102212E-3
1.639695333E0,-3.150127828E-3,-1.180320978E-4,-4.261632916E-3,5.300825598E-3
1.649652333E0,-1.185247325E-3,-5.697039887E-4,-2.818465699E-3,3.110164425E-3
1.659609333E0,-9.488440119E-4,1.004644670E-3,-3.892152105E-3,4.130189327E-3
1.669566333E0,1.984361559E-3,-4.654200748E-4,-1.016748138E-4,2.040746043E-3
1.679523333E0,6.883579772E-4,1.986538991E-4,7.756182458E-4,1.055880552E-3
1.689480333E0,-2.139209537E-4,8.005285636E-4,-3.582378384E-3,3.676961115E-3
1.699437333E0,-2.093699295E-3,2.656159922E-4,-3.509290982E-3,4.095027691E-3
1.709393333E0,-9.160496993E-4,-9.639654309E-4,-1.800873317E-3,2.238642693E-3
1.719350333E0,2.665626816E-4,1.069560647E-3,-4.153684713E-3,4.297454169E-3
1.729306708E0,-1.034391462E-3,3.838539124E-5,-3.892428707E-3,4.027709073E-3
1.739263708E0,-1.500681508E-3,-5.732197315E-5,-3.347008955E-3,3.668487391E-3
1.749220708E0,-1.676450251E-3,-8.085994050E-4,1.961469883E-3,2.704012305E-3
1.759177708E0,5.961314309E-5,-2.318806946E-3,-1.680069603E-3,2.864097284E-3
1.769134708E0,5.136820255E-4,1.764884219E-3,-8.723326027E-5,1.840188895E-3
1.779091708E0,-9.544000495E-4,-5.567623302E-4,-4.128651228E-3,4.273947205E-3
1.789047708E0,-1.491293311E-3,-1.210568473E-3,-3.890032414E-3,4.338407997E-3
1.799004708E0,-3.730225144E-4,9.402018040E-4,-4.520039540E-3,4.631833619E-3
1.808961708E0,1.029664418E-3,-5.695438012E-4,-5.051340442E-3,5.186581650E-3
1.818918708E0,7.439952460E-4,-4.917178303E-4,-3.984463867E-3,4.083046370E-3
1.828875708E0,-2.194270259E-3,-7.679779083E-5,-2.876323182E-3,3.618557021E-3
1.838832708E0,5.624179612E-4,9.611556306E-4,-2.052147407E-3,2.334832561E-3
1.848789708E0,-1.933871536E-4,-3.480548039E-4,-3.824747168E-3,3.845416965E-3
1.858746708E0,3.708231961E-4,-1.105702482E-3,-5.956427660E-3,6.069523728E-3
1.868702708E0,-2.092334442E-3,2.605146728E-3,-4.675447475E-3,5.746691395E-3
1.878659708E0,-1.038697199E-3,-1.943273470E-3,-3.668151330E-3,4.279081424E-3
1.888616708E0,-1.615271554E-3,-7.453281432E-5,-3.804771695E-3,4.134119615E-3
1.898573708E0,7.104866090E-4,-2.038264647E-4,-8.489000611E-4,1.125596625E-3
1.908530708E0,1.710237237E-3,2.173311077E-3,-1.010553911E-3,2.944386464E-3
1.918487708E0,-9.643975645E-4,-2.065178938E-3,-3.337394912E-3,4.041439287E-3
1.928444708E0,3.215728793E-5,-1.927101985E-4,-4.403724335E-3,4.408056185E-3
1.938401708E0,-1.044665929E-3,1.763598062E-3,-2.851885743E-3,3.512101553E-3
1.948357708E0,-7.690286729E-4,-1.113148406E-3,-3.795177210E-3,4.029128259E-3
1.958314708E0,-2.126499545E-3,3.201989457E-4,-1.578336582E-3,2.667522079E-3
1.968271708E0,-2.536360174E-3,-3.008507192E-4,-1.661160961E-3,3.046816343E-3
1.978228708E0,-4.576428328E-4,-3.552287817E-4,-2.849260811E-3,2.907561112E-3
1.988185708E0,1.361828879E-3,-9.190198034E-4,-3.024230246E-3,3.441677480E-3
1.998142708E0,2.714328934E-3,2.117743716E-4,-2.705407329E-3,3.838184305E-3
2.008099708E0,8.176256088E-4,-1.101430506E-3,-4.426875152E-3,4.634531735E-3
2.018056708E0,1.804303378E-3,9.245174006E-4,-4.255421925E-3,4.713688457E-3
2.028013708E0,5.534166121E-4,-1.727990806E-3,-4.192037974E-3,4.567866520E-3
2.037969708E0,6.598578766E-4,9.229453281E-4,-2.150152344E-3,2.431130519E-3
2.047926708E0,4.393481649E-4,-7.164971903E-4,-3.695318475E-3,3.789693084E-3
2.057883708E0,1.526691485E-3,5.789101124E-5,-2.936917823E-3,3.310532368E-3
2.067840708E0,2.033224795E-3,-3.138864413E-4,-4.798734095E-3,5.221147065E-3
2.077797708E0,1.051056897E-4,9.778514504E-4,-5.608172156E-3,5.693754086E-3
2.087754708E0,-1.870959764E-3,-1.320189796E-3,-4.201756790E-3,4.785201319E-3
2.097711708E0,4.425537772E-4,1.680089161E-3,-7.467912510E-4,1.891097725E-3
2.107667708E0,-1.787311048E-3,9.204633534E-5,1.245785737E-3,2.180581440E-3
2.117624708E0,9.856389370E-4,-4.254700616E-4,-3.223297652E-3,3.397374963E-3
2.127581708E0,1.245829859E-3,-4.728743806E-4,-2.645125147E-3,2.961821949E-3
2.137538708E0,1.511822920E-3,-6.040800363E-4,-3.619540483E-3,3.968827855E-3
2.147495708E0,8.694684948E-4,-2.558041364E-3,-3.069330938E-3,4.089051662E-3
2.157452708E0,1.910534920E-4,-6.441920996E-4,-2.778074704E-3,2.858178434E-3
2.167409708E0,-2.685426967E-3,-1.716646366E-3,-4.402602557E-3,5.435191075E-3
2.177366708E0,1.611496322E-3,-1.158100553E-3,-5.654862151E-3,5.992961140E-3
2.187322708E0,1.250371686E-3,-7.179751992E-5,-1.240673009E-3,1.762910591E-3
2.197279708E0,-8.662794717E-4,7.680524141E-5,-2.890519332E-3,3.018516387E-3
2.207236708E0,1.433892758E-3,-3.045592457E-4,-4.742336459E-4,1.540682422E-3
2.217193708E0,2.751814201E-3,-3.074769862E-3,-4.746567924E-3,6.289403641E-3
2.227150708E0,-1.906320918E-3,2.464577556E-4,-2.596597653E-3,3.230653222E-3
2.237107708E0,-1.280267490E-3,1.529321074E-3,-2.303817775E-3,3.047209237E-3
2.247064708E0,3.546470543E-4,1.272859052E-3,-2.536844462E-3,2.860336435E-3
2.257021708E0,4.732538946E-5,1.892873086E-3,-3.850703593E-3,4.291051896E-3
2.266977708E0,8.727284148E-5,1.383144408E-3,-1.198994461E-3,1.832564521E-3
2.276934708E0,-1.555670751E-3,-7.476601750E-4,-2.689293586E-3,3.195529254E-3
2.286891708E0,1.281661214E-3,3.578645177E-3,-2.871720120E-3,4.764045888E-3
2.296848708E0,-3.224673215E-3,4.428988323E-4,-4.198399372E-3,5.312366141E-3
2.306805708E0,-1.013450674E-3,-3.062087111E-3,-3.471623175E-3,4.738736879E-3
2.316762708E0,-1.328726532E-3,-1.268461347E-6,-3.433365375E-3,3.681509691E-3
2.326719708E0,-1.152958022E-3,-1.785320230E-3,-2.204582561E-3,3.062166683E-3
2.336676708E0,-1.967589604E-3,-4.015080631E-4,-8.506393060E-4,2.180872487E-3
2.346632708E0,1.097442582E-3,1.753326505E-4,-2.832564060E-3,3.042785058E-3
2.356589708E0,-6.259535439E-4,8.535366505E-4,-2.753170673E-3,2.949625638E-3
2.366546708E0,1.998926746E-4,6.311014295E-5,-3.372622188E-3,3.379130124E-3
2.376503708E0,-1.744744368E-3,-2.877861261E-4,-1.654176041E-3,2.421415318E-3
2.386460708E0,-2.621625317E-4,-4.046987742E-4,-4.082978703E-3,4.111353230E-3
2.396417708E0,6.973969284E-4,-2.749889158E-3,-2.622245811E-3,3.863214458E-3
2.406374708E0,9.236158803E-6,-1.121366397E-3,-4.105626605E-3,4.256021349E-3
2.416331708E0,-1.086747507E-4,-2.384296618E-3,-2.185197081E-3,3.236010947E-3
2.426287708E0,4.961291561E-4,-1.517970115E-3,-4.160996061E-3,4.456934555E-3
2.436244708E0,-1.245429274E-3,-1.129935496E-3,2.311072312E-4,1.697427127E-3
2.446201708E0,-4.169198219E-4,3.486517817E-4,-1.245349180E-3,1.358776944E-3
2.456158708E0,1.708249212E-3,7.163379341E-4,8.363842499E-4,2.032435490E-3
2.466115708E0,-2.211923944E-3,2.610111609E-3,-1.737827435E-3,3.837360335E-3
2.476072708E0,-4.022627836E-4,2.637370490E-3,-5.016930401E-3,5.682176440E-3
2.486029708E0,8.802523371E-5,-8.439142257E-4,-3.174289130E-3,3.285734490E-3
2.495986708E0,1.537472010E-3,-9.975163266E-4,-3.856881056E-3,4.270174526E-3
2.505943708E0,8.852638421E-4,1.662848517E-4,-1.221150625E-3,1.517416084E-3
2.515899708E0,8.093437646E-4,1.685881987E-3,-2.453920897E-3,3.085281701E-3
2.525856708E0,-1.145150047E-3,-6.015067920E-4,-1.875748858E-3,2.278511099E-3
2.535813708E0,-1.067334088E-3,-3.356062807E-3,-2.295887098E-4,3.529174209E-3
2.545770708E0,6.504193880E-5,-2.462306060E-3,-2.940952778E-3,3.836194055E-3
2.555727708E0,-2.731499495E-3,5.035279319E-4,-4.488203675E-3,5.278124865E-3
2.565684708E0,-2.382092644E-3,1.563466154E-3,-2.635176294E-3,3.881101116E-3
2.575641708E0,-4.959922517E-4,-8.998475969E-4,-4.448464140E-3,4.565585091E-3
2.585597708E0,-2.204676159E-3,-1.505183987E-3,-3.602644429E-3,4.483884775E-3
2.595554708E0,-1.139209839E-3,2.547151409E-3,-2.570499200E-3,3.793843104E-3
2.605511708E0,1.113025472E-3,-4.992382601E-4,-5.204099696E-3,5.345158388E-3
2.615468708E0,-3.044535406E-4,-1.014679670E-3,-1.398371998E-3,1.754340627E-3
2.625425708E0,1.565844286E-5,-2.128680237E-3,-2.280677203E-3,3.119777755E-3
2.635382708E0,2.449015155E-4,2.004243433E-4,-2.867207397E-3,2.884618679E-3
2.645339708E0,1.174078323E-3,-1.835029572E-3,-2.882653847E-3,3.613237695E-3
2.655296708E0,5.123970332E-4,1.208960079E-3,-2.980723511E-3,3.257122632E-3
2.665252708E0,-2.231990453E-3,6.869798526E-4,-1.439020038E-3,2.743082457E-3
2.675209708E0,7.760767476E-4,-8.193133399E-4,-1.186907291E-3,1.637778491E-3
2.685166708E0,3.138833214E-3,1.387914643E-3,-2.533401363E-3,4.265759424E-3
2.695123708E0,1.331439009E-3,2.443883568E-4,-3.647475038E-3,3.890569323E-3
2.705080708E0,-2.228408353E-3,6.092414260E-4,-1.472471282E-3,2.739552989E-3
2.715037708E0,-1.851487323E-3,-4.636887461E-4,-2.765016630E-3,3.359810936E-3
2.724995083E0,7.778516156E-4,1.135805622E-3,-1.523717307E-3,2.053490194E-3
2.734952083E0,4.835263826E-4,-2.233004197E-4,-7.051983848E-4,8.837225821E-4
2.744908083E0,1.061965013E-3,4.967395216E-5,-6.884206086E-4,1.266554430E-3
2.754865083E0,2.758421004E-3,-6.540399045E-4,-2.615289297E-3,3.856992706E-3
2.764822083E0,-5.175333936E-4,2.706097439E-4,-3.792673349E-3,3.837374308E-3
2.774779083E0,-2.388309920E-3,3.550564870E-4,-3.330159932E-3,4.113399392E-3
2.784736083E0,-2.713215305E-3,7.215077057E-4,-1.407890581E-3,3.140742993E-3
2.794693083E0,-2.408769215E-4,1.033987850E-3,-1.746166963E-3,2.043587930E-3
2.804650083E0,-5.519341212E-4,-4.006456584E-5,-4.570449702E-3,4.603829594E-3
2.814607083E0,1.127138035E-3,-2.411660738E-3,-4.711323418E-4,2.703426224E-3
2.824563083E0,1.820625272E-3,5.188817158E-4,-2.368634567E-3,3.032217724E-3
2.834520083E0,-1.754981931E-4,-4.037991166E-4,-4.763632547E-3,4.783936495E-3
2.844477083E0,1.766478876E-3,-6.674528122E-4,-1.730558462E-3,2.561400685E-3
2.854434083E0,-1.026714686E-3,-1.292625442E-3,-5.778749473E-4,1.748989147E-3
2.864391083E0,-2.931407420E-3,3.766436130E-4,-2.309462521E-3,3.750816846E-3
2.874348083E0,-9.628671687E-4,-1.202341169E-3,-4.141744692E-3,4.418912373E-3
2.884305083E0,-7.402268238E-4,-3.139106557E-4,-1.926793717E-3,2.087824149E-3
2.894262083E0,5.644222256E-4,1.712767407E-4,4.333374090E-4,7.319081095E-4
2.904218083E0,6.509749801E-4,4.008412361E-4,-5.483040586E-4,9.407866187E-4
2.914175083E0,-1.186648151E-4,-1.309430227E-4,-1.909964718E-3,1.918122164E-3
2.924132083E0,5.923992721E-4,-1.108056866E-3,-4.203212913E-3,4.386995066E-3
2.934089083E0,1.851401757E-4,3.631170839E-4,-2.148366533E-3,2.186689201E-3
2.944046083E0,1.726311515E-3,-1.380899921E-4,-2.842120361E-3,3.328192969E-3
2.954003083E0,-2.572322264E-3,-1.075581647E-3,-7.630740292E-4,2.890674607E-3
2.963960083E0,1.474084798E-3,-1.250551082E-3,-2.513303421E-3,3.170725168E-3
2.973917083E0,5.861204118E-4,-3.366852179E-4,-2.716162242E-3,2.799005430E-3
2.983873083E0,-5.222872132E-4,6.971322000E-5,-3.330287524E-3,3.371714528E-3
2.993830083E0,2.825695556E-4,1.271408983E-3,-1.499292906E-3,1.986002410E-3
3.003787083E0,-1.592488261E-4,2.537209541E-3,-2.757369541E-3,3.750450536E-3
3.013744083E0,1.169304946E-3,-5.707237870E-5,-8.407016285E-4,1.441287806E-3
3.023701083E0,-8.387183771E-4,9.522652254E-4,-2.030868083E-3,2.394719764E-3
3.033658083E0,-1.743552159E-3,-9.559802711E-4,-5.182018504E-4,2.054849281E-3
3.043615083E0,6.852507940E-4,1.249384135E-3,-3.658335656E-3,3.926060257E-3
3.053572083E0,-1.176609658E-6,1.067761332E-5,-1.767132897E-3,1.767165547E-3
3.063528083E0,9.985740762E-4,-1.315310597E-3,-7.530008443E-4,1.814993781E-3
3.073485083E0,-2.433829941E-3,-1.214351505E-4,1.731395489E-3,2.989315141E-3
3.083442083E0,1.026681159E-3,1.606690697E-3,-2.441373654E-4,1.922272679E-3
3.093399083E0,1.566361054E-3,9.504221380E-4,9.027118795E-4,2.042468587E-3
3.103356083E0,-4.797456786E-4,-5.276324227E-4,-2.783635631E-3,2.873530793E-3
3.113313083E0,1.453605131E-3,4.275236279E-5,-3.351045307E-3,3.652985120E-3
3.123270083E0,1.693023252E-3,1.151897013E-4,-2.131317742E-3,2.724355285E-3
3.133227083E0,-8.515606169E-5,-6.826575845E-4,3.175567836E-4,7.577039286E-4
3.143183083E0,8.139271522E-4,4.734201357E-4,-1.263295766E-3,1.575601544E-3
3.153140083E0,6.852415390E-4,-9.481655434E-4,-1.861643977E-4,1.184580536E-3
3.163097083E0,5.563445156E-4,-1.194774173E-3,-1.602433156E-3,2.074800368E-3
3.173054083E0,-2.538776025E-4,-1.138357446E-3,-3.063380718E-4,1.205883297E-3
3.183011083E0,-3.667955752E-4,-8.017336950E-4,-2.657376695E-3,2.799815496E-3
3.192968083E0,2.123326063E-3,-1.836109906E-3,-1.768197864E-3,3.317579968E-3
3.202925083E0,5.619147560E-4,-9.780386463E-4,-1.776986290E-3,2.104753682E-3
3.212882083E0,2.252802020E-3,-1.047550701E-3,-2.735061105E-3,3.695001849E-3
3.222838083E0,9.571741102E-4,2.297013998E-4,-1.281774137E-3,1.616134261E-3
3.232795083E0,-4.829250975E-4,-4.414999858E-4,-1.435510814E-3,1.577602670E-3
3.242752083E0,2.537053078E-4,-1.959501766E-3,-2.174803987E-3,2.938330467E-3
3.252709083E0,-1.692693797E-3,2.174415626E-3,-2.263703849E-3,3.566181532E-3
3.262666083E0,1.258088741E-3,-2.281052992E-3,-1.195509918E-3,2.866222950E-3
3.272623083E0,-7.082788507E-4,9.251385927E-5,-3.439202905E-3,3.512596527E-3
3.282580083E0,-1.796712750E-3,1.444068737E-3,-2.014944796E-3,3.061619466E-3
3.292537083E0,-1.380029134E-4,-9.906850755E-5,-2.935441211E-3,2.940352781E-3
3.302493083E0,2.221557777E-3,-2.559283748E-4,-2.361795865E-3,3.252521791E-3
3.312450083E0,-2.122788224E-3,1.670026220E-3,-8.187107742E-4,2.822322582E-3
3.322407083E0,-1.329835504E-5,-1.852270216E-3,-1.110060606E-3,2.159471312E-3
3.332364083E0,1.918856986E-3,-1.352719031E-3,-1.675299369E-3,2.884179066E-3
3.342321083E0,-2.966179512E-3,-2.854209393E-3,5.176058039E-5,4.116723372E-3
3.352278083E0,4.374091513E-4,1.445424743E-3,-3.064484801E-3,3.416379158E-3
3.362235083E0,1.503472449E-3,-1.052087173E-3,-3.492987249E-3,3.945665565E-3
3.372192083E0,9.330320754E-4,-4.432871938E-4,-2.061787061E-3,2.306082886E-3
3.382148083E0,1.486703288E-3,-7.204245776E-5,-1.455385238E-3,2.081735567E-3
3.392105083E0,2.981501166E-5,-6.517479196E-4,6.250347942E-4,9.035113611E-4
3.402062083E0,3.545187414E-3,-9.036827832E-4,-3.952221014E-4,3.679836529E-3
3.412019083E0,-1.781665487E-4,1.422131434E-3,-2.343541943E-3,2.747069342E-3
3.421976083E0,-1.312949462E-4,2.081796527E-3,-2.373902127E-3,3.160146587E-3
3.431933083E0,1.672983402E-3,1.355647109E-3,-1.324925106E-3,2.528256135E-3
3.441890083E0,2.182445955E-3,1.009702682E-3,-2.014683560E-3,3.137119650E-3
3.451847083E0,9.593244176E-4,4.210108891E-4,-9.657749906E-4,1.424877131E-3
3.461803083E0,3.196331672E-4,-6.953859702E-4,5.620801821E-4,9.495583922E-4
3.471760083E0,6.682400126E-4,5.348464474E-4,-1.070121769E-3,1.370316035E-3
3.481717083E0,1.653343206E-3,-3.134179860E-5,-3.353249747E-3,3.738824673E-3
3.491674083E0,8.316942258E-4,5.047814921E-4,-2.830067184E-3,2.992624251E-3
3.501631083E0,-8.474289207E-4,2.892038785E-3,-3.142456058E-3,4.353969934E-3
3.511588083E0,-2.801096532E-3,-1.581906341E-3,-2.847104333E-4,3.229493689E-3
3.521545083E0,1.643332653E-4,6.958954036E-4,-1.803777181E-3,1.940331918E-3
3.531502083E0,1.045183744E-3,1.385011710E-3,5.479529500E-4,1.819593068E-3
3.541458083E0,2.203925047E-3,-1.408910379E-3,-1.463532448E-3,2.997372398E-3
3.551415083E0,-1.428820309E-3,2.785385586E-3,-1.200771891E-3,3.352872421E-3
3.561372083E0,1.209306996E-3,-7.254593074E-4,-1.166949980E-3,1.830433521E-3
3.571329083E0,-9.835476521E-4,1.053400338E-3,-1.272133086E-3,1.922326935E-3
3.581286083E0,2.064174041E-3,-4.584761336E-4,-3.924909979E-4,2.150596201E-3
3.591243083E0,-3.507174551E-4,1.529208384E-3,-7.534818724E-5,1.570719060E-3
3.601200083E0,-5.264859647E-4,1.349179074E-3,-1.559794415E-3,2.128480740E-3
3.611157083E0,5.036662333E-4,1.703330316E-3,-6.505427882E-5,1.777426763E-3
3.621113083E0,-3.621274373E-4,-6.234729663E-4,-1.855497714E-3,1.990659837E-3
3.631070083E0,-1.153455116E-3,2.679331228E-3,-3.167987335E-3,4.306439166E-3
3.641027083E0,1.004237914E-3,1.478778198E-3,-2.889687661E-3,3.397877798E-3
3.650984083E0,-1.671819948E-3,5.912575871E-4,-2.363700885E-3,2.954936437E-3
3.660941083E0,-5.354492459E-4,2.684826031E-4,-1.539985184E-3,1.652375009E-3
3.670898083E0,-1.490401221E-3,1.542193815E-3,-1.484807581E-5,2.144732624E-3
3.680855083E0,-8.083657594E-4,2.156728879E-4,2.039514482E-3,2.204447622E-3
3.690811083E0,4.093024181E-4,1.886924729E-4,2.693734365E-3,2.731178893E-3
3.700768083E0,-1.321183518E-4,-3.388794139E-4,-1.316719688E-3,1.366032669E-3
3.710725083E0,-9.915478295E-4,3.836620599E-4,-4.523459822E-3,4.646724915E-3
3.720682083E0,2.590725198E-4,1.755190082E-3,-3.799612634E-3,4.193431407E-3
3.730638458E0,1.758208149E-3,-8.681081235E-4,-3.007993102E-3,3.590672655E-3
3.740595458E0,8.159817662E-4,-3.826711327E-5,-2.074289136E-3,2.229342063E-3
3.750552458E0,2.167697530E-3,-3.441600129E-4,-2.192820888E-3,3.102550909E-3
3.760509458E0,1.432398683E-3,9.884852916E-4,4.445076920E-4,1.796233907E-3
3.770465458E0,-2.732395660E-3,-9.320518002E-4,3.964169882E-4,2.914078419E-3
3.780422458E0,2.311700955E-4,-3.015709110E-3,1.736450940E-6,3.024556837E-3
3.790379458E0,-2.988521010E-5,-3.818618134E-4,-9.654113092E-4,1.038619548E-3
3.800336458E0,-3.760961117E-4,-4.481747746E-4,-2.952662297E-3,3.010070357E-3
3.810293458E0,7.253938820E-4,-4.099756479E-4,-1.244991086E-3,1.498091827E-3
3.820250458E0,3.179302439E-4,-8.786916733E-4,1.071692444E-3,1.421866165E-3
3.830207458E0,9.261147352E-4,6.460668519E-4,-2.414148301E-3,2.665183464E-3
3.840164458E0,2.724547405E-3,1.565656625E-3,-2.084449865E-3,3.770858054E-3
3.850120458E0,-6.690439768E-4,1.501862891E-3,-1.544366591E-3,2.255721648E-3
3.860077458E0,-1.414462924E-3,1.548201777E-3,-4.476506729E-3,4.943353780E-3
3.870034458E0,9.504711488E-4,6.398176774E-4,-2.159109339E-3,2.444282145E-3
3.879991458E0,-1.818683697E-3,-1.827334985E-3,-4.008901305E-4,2.609114109E-3
3.889948458E0,-1.102504553E-3,1.129415818E-3,7.389485836E-4,1.742739621E-3
3.899905458E0,-7.642831188E-4,-7.891254500E-4,-2.669364680E-3,2.886581967E-3
3.909862458E0,1.970326062E-3,2.550622448E-4,-6.149457768E-4,2.079759565E-3
3.919819458E0,-5.695306463E-4,5.357600749E-4,-2.808858175E-3,2.915662577E-3
3.929775458E0,1.569890417E-3,-4.897965118E-4,-4.702204838E-3,4.981484406E-3
3.939732458E0,-1.071432838E-3,1.432472840E-3,5.766330287E-5,1.789768650E-3
3.949689458E0,1.642186893E-3,-2.168407664E-3,-1.298548654E-3,3.014133075E-3
3.959646458E0,-1.552008442E-3,-6.557321176E-4,5.653980188E-4,1.777185903E-3
3.969603458E0,-3.316906514E-4,-1.582596451E-3,9.353994392E-4,1.868047731E-3
3.979560458E0,9.556813748E-4,7.082549855E-4,6.376579404E-4,1.349651682E-3
3.989517458E0,-1.103642862E-4,2.090447582E-3,-1.801240724E-3,2.761633487E-3
3.999474458E0,3.538166406E-3,-2.363689244E-3,-2.090992406E-3,4.741086120E-3
4.009430458E0,7.675498491E-4,6.388975307E-4,-3.204971086E-3,3.356957326E-3
4.019387458E0,-1.015436486E-3,-1.228511333E-3,-3.704580013E-3,4.032897770E-3
4.029344458E0,2.169704530E-4,1.309585758E-3,-1.752655488E-3,2.198611446E-3
4.039301458E0,4.752970999E-4,-1.150908880E-3,-6.714044139E-5,1.246998966E-3
4.049258458E0,-2.575112041E-3,-1.324377023E-3,2.170228399E-4,2.903838053E-3
4.059215458E0,3.652839223E-4,1.149966381E-3,-1.874091104E-3,2.228917335E-3
4.069172458E0,-1.936648041E-4,-1.242885366E-3,-3.334044944E-3,3.563442967E-3
4.079129458E0,9.099491872E-4,-7.800282910E-4,-3.864014056E-3,4.045621866E-3
4.089085458E0,-6.045345217E-4,1.264798455E-3,-2.442907076E-3,2.816553231E-3
4.099042458E0,4.239784321E-4,-6.846357137E-4,-9.869569913E-4,1.273800563E-3
4.108999458E0,-8.394601755E-4,-2.455851063E-3,2.852696925E-4,2.610991503E-3
4.118956458E0,-1.328416634E-3,1.315717585E-3,2.197419526E-3,2.885213353E-3
4.128913458E0,-2.946623834E-3,-1.903447323E-3,-1.103011426E-3,3.677273165E-3
4.138870458E0,-9.704148397E-5,-7.822569460E-4,-1.606881153E-3,1.789807257E-3
4.148827458E0,-3.742669243E-3,-1.025554724E-3,-4.175570328E-3,5.700414294E-3
4.158784458E0,4.856316373E-4,-8.724229410E-4,-3.214967903E-3,3.366448944E-3
4.168740458E0,4.618688952E-3,-1.993662678E-3,-4.628165625E-3,6.835707393E-3
4.178697458E0,3.134227591E-4,2.588387579E-4,6.861723959E-4,7.975361342E-4
4.188654458E0,-7.224192377E-4,1.488008536E-3,3.500096500E-4,1.690729344E-3
4.198611458E0,-1.751396339E-4,-2.157593146E-3,-9.056711569E-4,2.346512800E-3
4.208568458E0,2.105424879E-3,1.304839738E-3,-3.699036315E-4,2.504445919E-3
4.218525458E0,3.452984383E-3,-4.504499957E-4,-1.205337234E-3,3.684948330E-3
4.228482458E0,-4.845431540E-4,-1.447618939E-3,-4.145821091E-3,4.417942414E-3
4.238439458E0,1.001766883E-3,-9.599942714E-4,2.443995327E-4,1.408849538E-3
4.248395458E0,7.263035513E-5,2.121096477E-4,-2.366746310E-3,2.377341744E-3
4.258352458E0,-5.891651381E-4,1.879514195E-3,6.354358047E-4,2.069654037E-3
4.268309458E0,-1.485864632E-4,5.807951093E-4,1.610307489E-3,1.718281439E-3
4.278266458E0,6.314533530E-4,-7.667643949E-4,-1.548356377E-4,1.005303461E-3
4.288223458E0,2.265605610E-3,-1.209169626E-3,-1.233326271E-3,2.848886389E-3
4.298180458E0,-7.277873810E-4,-8.238097653E-4,-3.356398083E-3,3.531818950E-3
4.308137458E0,-6.140872138E-4,7.680049166E-4,-3.537296783E-3,3.671430674E-3
4.318094458E0,-6.029020296E-4,6.968984380E-4,-2.042997163E-3,2.241204073E-3
4.328050458E0,1.200442202E-3,-6.981482729E-4,-1.230062917E-4,1.394131644E-3
4.338007458E0,1.135727391E-3,-3.234418109E-4,8.690208197E-4,1.466181604E-3
4.347964458E0,2.760244533E-4,1.505166292E-4,2.249325393E-3,2.271191202E-3
4.357921458E0,3.561855992E-4,-6.103487685E-4,-2.648760565E-3,2.741409552E-3
4.367878458E0,4.654204240E-4,1.420928165E-4,-1.351327170E-3,1.436277013E-3
4.377835458E0,2.891826443E-3,5.191965029E-4,-3.232051153E-3,4.367880475E-3
4.387792458E0,5.431788741E-4,-6.142398342E-4,-4.659823142E-3,4.731414754E-3
4.397749458E0,-5.340697244E-4,3.974949941E-4,5.764840171E-4,8.806625703E-4
4.407705458E0,5.688720848E-4,4.282705486E-4,-3.363471478E-6,7.120691151E-4
4.417662458E0,-1.869784552E-3,-6.178198382E-4,-2.558310516E-4,1.985760597E-3
4.427619458E0,-1.056543551E-4,1.642004587E-3,-6.589358672E-4,1.772438541E-3
4.437576458E0,2.856047126E-3,-1.020357013E-3,-9.430954233E-4,3.176092347E-3
4.447533458E0,2.089550719E-3,3.962051123E-4,-4.603536800E-3,5.071070081E-3
4.457490458E0,-2.325970214E-3,-1.208082773E-3,-2.649042755E-3,3.726530416E-3
4.467447458E0,-1.534533803E-3,-2.511250786E-3,-2.007246483E-3,3.562332515E-3
4.477404458E0,1.469861018E-4,1.556994393E-3,1.927907579E-4,1.575755289E-3
4.487360458E0,7.715397514E-4,-1.148127951E-3,-5.590789951E-4,1.491992192E-3
4.497317458E0,3.450413467E-3,-7.049785927E-4,-1.374006271E-3,3.780243530E-3
4.507274458E0,-2.196165035E-3,1.994334161E-3,-1.043148804E-3,3.144625420E-3
4.517231458E0,8.216919377E-5,1.961672679E-4,-3.244783729E-3,3.251746427E-3
4.527188458E0,-4.264187301E-4,1.434958540E-3,-2.117836848E-3,2.593486429E-3
4.537145458E0,-1.090344624E-3,1.053860411E-3,-4.608425312E-3,4.851500491E-3
4.547102458E0,9.109266102E-4,-2.826714888E-3,-1.239672303E-3,3.218212511E-3
4.557058458E0,-1.928801998E-3,1.214099117E-3,3.254674375E-4,2.302225633E-3
4.567015458E0,-2.634166740E-4,8.285082877E-4,9.647645056E-4,1.298685827E-3
4.576972458E0,-3.944442142E-4,-3.116019070E-5,-7.894593291E-4,8.830646793E-4
4.586929458E0,1.896291738E-3,-1.097501256E-3,-6.471639499E-4,2.284568349E-3
4.596886458E0,4.973332398E-4,-9.467666969E-4,-7.361136377E-4,1.298295351E-3
4.606843458E0,3.205109388E-3,1.625498757E-3,-6.862753071E-4,3.658680936E-3
4.616800458E0,2.890057396E-3,9.421315044E-4,-2.819466870E-3,4.146014587E-3
4.626757458E0,-1.953520346E-3,-2.870578319E-4,-6.407350302E-4,2.075857732E-3
4.636713458E0,-1.692530583E-3,1.201387495E-4,-3.677803557E-3,4.050349627E-3
4.646670458E0,4.449168919E-4,1.319115981E-3,-3.254343756E-4,1.429659241E-3
4.656627458E0,-7.200264372E-5,1.326771453E-4,-2.066343091E-3,2.071849748E-3
4.666584458E0,-3.439787542E-4,-8.542612195E-4,-2.639788669E-3,2.795812553E-3
4.676541458E0,4.115599440E-4,4.722597077E-4,3.663874231E-4,7.257069401E-4
4.686498458E0,-1.220122096E-3,3.293992020E-3,-5.768337287E-4,3.559749782E-3
4.696455458E0,2.759705763E-3,-2.447517589E-3,-1.660473645E-3,4.045181204E-3
4.706412458E0,6.265917327E-4,-3.047874197E-4,-2.121700440E-3,2.233187257E-3
4.716368458E0,-1.540688798E-3,-1.858475618E-3,-2.886471339E-4,2.431248807E-3
4.726325625E0,2.422960475E-3,4.328470677E-4,1.529599540E-3,2.897890405E-3
4.736282625E0,9.076219285E-4,3.572134301E-4,-1.383099705E-3,1.692437235E-3
4.746239625E0,2.764584497E-5,-1.210443676E-3,-4.204036668E-4,1.281669781E-3
4.756196625E0,-1.873052213E-3,-2.211526036E-3,-1.424415037E-3,3.229261557E-3
4.766153625E0,-8.695700672E-5,1.245878637E-3,-2.397444565E-3,2.703241673E-3
4.776110625E0,-4.488804843E-4,-1.850379631E-4,-1.076516230E-3,1.180940274E-3
4.786067625E0,1.864265068E-3,1.440316439E-3,7.938030176E-4,2.485984497E-3
4.796023625E0,1.898619812E-3,1.557761803E-3,1.135486644E-3,2.705680865E-3
4.805980625E0,1.598270959E-3,-7.113227621E-4,2.252655104E-4,1.763857897E-3
4.815937625E0,1.639017370E-3,1.943848096E-3,5.784006789E-4,2.607579472E-3
4.825894625E0,-1.880851109E-3,-6.042849272E-4,-2.470774110E-3,3.163461059E-3
4.835851625E0,1.955698943E-3,-8.120108396E-4,-3.122449387E-3,3.772772208E-3
4.845808625E0,3.342615440E-3,9.007407352E-4,-3.032786306E-3,4.602412914E-3
4.855765625E0,1.119674766E-3,-8.662668988E-4,-4.271156620E-3,4.499652075E-3
4.865722625E0,-3.754758276E-3,-1.214928925E-4,-1.802106388E-3,4.166600253E-3
4.875678625E0,2.162813907E-4,6.239255890E-4,1.406697556E-4,6.751657284E-4
4.885635625E0,1.583474921E-3,-8.814437315E-4,5.588773638E-4,1.896491441E-3
4.895592625E0,-7.321436424E-4,-3.821011633E-4,1.750109252E-3,1.935179063E-3
4.905549625E0,-2.375924960E-4,-1.140162349E-3,-1.980809961E-3,2.297831255E-3
4.915506625E0,4.284640308E-4,2.026036382E-4,-1.964564901E-3,2.020926745E-3
4.925463625E0,1.323433477E-3,-5.371402949E-4,-1.632433850E-3,2.169063424E-3
4.935420625E0,-1.168040326E-4,-1.846617088E-3,3.641373478E-4,1.885797937E-3
4.945377625E0,-1.797125791E-3,1.427549869E-3,-1.412336715E-4,2.299457912E-3
4.955333625E0,2.875124104E-3,9.863264859E-5,-1.691970974E-4,2.881786715E-3
4.965290625E0,-2.657971345E-4,1.809112728E-4,-1.310103573E-3,1.348980495E-3
4.975247625E0,-2.135991817E-4,1.344446093E-3,-2.477685921E-4,1.383672354E-3
4.985204625E0,4.001272842E-3,8.000889793E-4,-2.677208278E-3,4.880345367E-3
4.995161625E0,1.940180082E-4,-3.288248554E-4,-2.231660765E-3,2.264084482E-3
5.005118625E0,-1.927077537E-4,-1.559379511E-3,-7.382188924E-4,1.736020700E-3
5.015075625E0,-4.819270689E-4,7.149595767E-4,1.033315901E-3,1.345794430E-3
5.025032625E0,1.144891372E-3,1.927589998E-3,-3.014365211E-3,3.756697629E-3
5.034988625E0,6.596634630E-4,-8.817790076E-4,-2.245244570E-3,2.500762540E-3
5.044945625E0,-3.554089926E-4,-1.316780224E-3,-3.293586895E-3,3.564819820E-3
5.054902625E0,-2.581545385E-3,2.459622920E-4,-3.473316319E-4,2.616393182E-3
5.064859625E0,9.671201697E-4,2.060644329E-4,-6.943987682E-5,9.912647828E-4
5.074816625E0,-1.700568246E-3,3.219116479E-4,-1.900810748E-4,1.741174972E-3
5.084773625E0,1.147352858E-3,-1.251025125E-3,7.103662938E-5,1.698978707E-3
5.094730625E0,-1.886786427E-3,1.202012412E-3,-2.227270976E-3,3.156823223E-3
5.104687625E0,1.313850749E-3,-1.459992491E-3,-1.543367282E-3,2.497952047E-3
5.114643625E0,1.164181158E-3,2.059907652E-3,-9.473520331E-4,2.548727757E-3
5.124600625E0,8.628506330E-4,-1.308430918E-3,1.801568083E-3,2.387917553E-3
5.134557625E0,2.231449122E-3,-1.039450988E-3,-3.045651596E-3,3.916097188E-3
5.144514625E0,1.520238584E-3,-1.078302041E-3,-4.698298872E-4,1.922134430E-3
5.154471625E0,-3.985690419E-4,-2.060475759E-3,-3.269610927E-3,3.885199254E-3
5.164428625E0,2.923769644E-4,-5.755359307E-4,1.366054639E-3,1.510904092E-3
5.174385625E0,-9.990669787E-5,-2.407258376E-3,-6.289193407E-4,2.490063007E-3
5.184342625E0,2.426344436E-4,-3.758259118E-4,-2.897802275E-3,2.932128001E-3
5.194298625E0,2.191986423E-4,-1.411529258E-3,-4.299690481E-3,4.530761650E-3
5.204255625E0,3.869349370E-3,1.529909670E-3,-3.085264936E-3,5.179898442E-3
5.214212625E0,-1.883344958E-3,1.077810302E-4,-1.180571970E-3,2.225388765E-3
5.224169625E0,-3.364064032E-4,1.569492742E-4,-8.141039871E-4,8.947444577E-4
5.234126625E0,-5.364097888E-4,-1.761059277E-3,-1.033814624E-3,2.111359258E-3
5.244083625E0,2.630949020E-3,1.688965596E-3,-1.913262997E-3,3.665388496E-3
5.254040625E0,6.681992672E-4,-1.348103397E-3,2.121426165E-3,2.600831022E-3
5.263997625E0,1.446719863E-3,-8.076308295E-4,-3.316874616E-3,3.707684336E-3
5.273953625E0,6.935779238E-4,5.487175658E-4,-1.804731786E-3,2.009775640E-3
5.283910625E0,2.926745219E-3,-2.985466272E-4,-2.597097307E-3,3.924268351E-3
5.293867625E0,-2.030995442E-3,8.498076349E-4,-1.151532866E-3,2.484581140E-3
5.303824625E0,2.002593596E-3,9.145904332E-4,-1.322851516E-3,2.568422260E-3
5.313781625E0,5.422485992E-5,9.625274688E-4,-9.577320889E-4,1.358915088E-3
5.323738625E0,1.082192757E-3,1.209643669E-3,4.209745675E-4,1.676782203E-3
5.333695625E0,-3.164483700E-3,2.884566784E-4,-9.066113271E-4,3.304407427E-3
5.343652625E0,4.922056105E-4,1.960759982E-4,-1.504961401E-4,5.507823965E-4
5.353608625E0,-9.237972554E-4,-1.344029792E-3,-1.534541603E-3,2.239338157E-3
5.363565625E0,3.642299213E-3,1.655111089E-3,-2.564908005E-3,4.752314104E-3
5.373522625E0,1.924293814E-3,1.398381777E-3,-2.652792260E-3,3.563100483E-3
5.383479625E0,-1.853554277E-3,5.771545693E-4,-1.117466949E-3,2.239978401E-3
5.393436625E0,-2.973147202E-3,-5.012378097E-6,-2.346249297E-3,3.787415369E-3
5.403393625E0,2.187704667E-3,-1.520010643E-3,1.980438828E-4,2.671274124E-3
5.413350625E0,-1.838994795E-3,5.058553070E-4,5.722180940E-4,1.991287270E-3
5.423307625E0,-9.378347313E-4,1.496917568E-3,2.484987490E-4,1.783829537E-3
5.433263625E0,1.272056368E-3,1.519554295E-3,-1.107316464E-3,2.270093040E-3
5.443220625E0,1.681959257E-3,5.515720695E-4,-2.536429092E-4,1.788170410E-3
5.453177625E0,6.680937950E-4,-1.839930192E-4,-8.224942721E-4,1.075499687E-3
5.463134625E0,2.081126673E-3,5.129650235E-4,-2.086781897E-3,2.991467872E-3
5.473091625E0,-6.504775956E-4,-1.443926245E-3,8.110036142E-4,1.779261354E-3
5.483048625E0,-2.582994290E-3,-5.596913397E-4,-1.537664793E-4,2.647405905E-3
5.493005625E0,4.428894026E-4,3.753444180E-4,-4.414824303E-3,4.452831468E-3
5.502962625E0,1.901822281E-3,-1.961242408E-3,-5.747094750E-3,6.363371578E-3
5.512918625E0,-2.452181652E-4,-1.503711566E-3,-1.099812798E-4,1.527539297E-3
5.522875625E0,1.158412546E-3,-7.753642276E-4,9.964406490E-5,1.397511450E-3
5.532832625E0,4.779748851E-4,-2.487244084E-3,1.708193216E-3,3.054957805E-3
5.542789625E0,9.933533147E-5,-4.849396646E-5,-6.329361349E-4,6.425163996E-4
5.552746625E0,-4.897559993E-4,9.408704937E-4,-1.469434705E-3,1.812273869E-3
5.562703625E0,-2.380157821E-5,-1.789722592E-4,-1.647351310E-3,1.657215714E-3
5.572660625E0,2.587427851E-3,-1.606159844E-3,-3.417287953E-3,4.577377992E-3
5.582617625E0,1.700626919E-3,-4.985015839E-4,-2.928953618E-4,1.796224774E-3
5.592573625E0,2.066278830E-3,-9.296676144E-4,-1.003486104E-4,2.268007919E-3
5.602530625E0,-8.844035910E-4,-3.922358155E-4,-3.348151222E-5,9.680597391E-4
5.612487625E0,-1.246037427E-4,-2.203452401E-3,-2.888785675E-4,2.225798599E-3
5.622444625E0,-1.635393128E-4,-4.233047366E-4,-1.017959323E-3,1.114528236E-3
5.632401625E0,-4.045553505E-4,-1.140227541E-3,-2.998819109E-3,3.233682100E-3
5.642358625E0,1.907360856E-3,5.981773138E-4,-1.539673191E-3,2.523179555E-3
5.652315625E0,2.030665288E-3,5.433158949E-4,8.645327762E-5,2.103869730E-3
5.662272625E0,2.148849890E-4,1.662833616E-3,8.200877346E-4,1.866476650E-3
5.672228625E0,-1.565970713E-3,-8.754255250E-4,-7.130941376E-4,1.930579543E-3
5.682185625E0,6.440394209E-4,-6.245430559E-4,-1.060510520E-3,1.389072844E-3
5.692142625E0,-2.100614365E-3,-1.386740245E-3,-3.720833920E-4,2.544420419E-3
5.702099625E0,-1.937429304E-3,-1.717424951E-3,-2.596148755E-3,3.666492756E-3
5.712056625E0,2.666110871E-3,-7.195388898E-4,-3.193229903E-3,4.221682201E-3
5.722013625E0,9.146883967E-4,-9.825211018E-4,-1.527877524E-3,2.033817177E-3
5.731971333E0,-1.836623298E-3,4.438674077E-4,6.916010752E-4,2.012092309E-3
5.741928333E0,-5.875648931E-4,-1.956059597E-3,-3.075272311E-3,3.691707117E-3
5.751884333E0,6.215102039E-4,-1.094238833E-4,2.827624558E-3,2.897189873E-3
5.761841333E0,2.561085625E-3,9.711273015E-5,-1.823442522E-3,3.145398717E-3
5.771798333E0,9.717110661E-4,1.101624221E-4,-6.963927299E-4,1.200550286E-3
5.781755333E0,8.893604390E-4,-1.372314990E-3,-2.951498609E-3,3.374248725E-3
5.791712333E0,1.874729991E-3,1.784432679E-4,1.355898101E-3,2.320541790E-3
5.801669333E0,9.623658261E-4,-1.384197734E-3,-1.798500773E-3,2.465107783E-3
5.811626333E0,-2.578945132E-4,-5.050888285E-4,3.215624020E-5,5.680302179E-4
5.821583333E0,7.392031257E-4,-1.996638253E-3,2.116921823E-3,3.002389645E-3
5.831539333E0,-1.510916045E-4,6.103301421E-4,-3.998228814E-3,4.047365218E-3
5.841496333E0,1.397148706E-3,-2.976134419E-5,-6.091347430E-3,6.249593887E-3
5.851453333E0,-2.548100892E-4,-2.894187346E-4,-5.875631701E-3,5.888271332E-3
5.861410333E0,2.677981276E-3,-4.568877630E-3,9.659836069E-4,5.383247239E-3
5.871367333E0,-1.188129652E-3,8.429316804E-4,3.158563981E-3,3.478320329E-3
5.881324333E0,-2.801574999E-3,1.516317017E-3,4.934915341E-3,5.873791723E-3
5.891281333E0,3.308351152E-4,-1.183329150E-3,1.639519818E-3,2.048839912E-3
5.901238333E0,9.040158475E-4,-1.165097579E-3,3.158510663E-4,1.508130935E-3
5.911194333E0,5.886976141E-4,3.798017278E-4,-1.143827569E-3,1.341326113E-3
5.921151333E0,6.494924310E-4,6.856322289E-4,-3.933717497E-3,4.045499390E-3
5.931108333E0,3.355056979E-4,-1.498159952E-3,-3.155276179E-3,3.508962109E-3
5.941065333E0,7.398920716E-4,-5.311407149E-4,-3.501004539E-4,9.757669109E-4
5.951022333E0,6.972815027E-4,1.188728958E-3,2.869927790E-3,3.183671395E-3
5.960979333E0,6.505260826E-4,1.038993709E-3,8.871438913E-4,1.513180886E-3
5.970936333E0,-3.729267046E-4,-8.153654635E-4,-2.340607345E-3,2.506459238E-3
5.980893333E0,-4.834891297E-4,7.603690028E-5,-2.357421443E-3,2.407691676E-3
5.990849333E0,-4.110510927E-4,-4.848241806E-4,-1.135829836E-3,1.301586303E-3
6.000806333E0,8.398044156E-4,4.735058174E-4,-5.206698552E-5,9.654999671E-4
6.010763333E0,-1.396451844E-3,1.691103913E-3,-6.265104748E-4,2.280882630E-3
6.020720333E0,-2.045746660E-4,-4.930859432E-4,-1.035409048E-3,1.164927654E-3
6.030677333E0,2.605502959E-5,-2.121226862E-4,-2.708672546E-3,2.717090698E-3
6.040634333E0,2.017547376E-5,-1.209171489E-3,-3.724135458E-4,1.265383178E-3
6.050591333E0,2.164504258E-4,9.695608169E-4,1.367961988E-3,1.690626796E-3
6.060548333E0,-6.890228251E-4,9.083189070E-6,-2.956500743E-3,3.035742347E-3
6.070504333E0,4.023406655E-4,3.502340987E-4,-4.938752390E-4,7.269488887E-4
6.080461333E0,-2.390412847E-4,-9.581744671E-4,-4.437463358E-4,1.082658698E-3
6.090418333E0,2.506145276E-3,9.366646409E-4,-2.079726197E-3,3.388711532E-3
6.100375333E0,-5.649006926E-4,-2.715341747E-3,7.288735360E-4,2.867655876E-3
6.110332333E0,3.074575216E-3,5.393074825E-4,1.425290015E-3,3.431518169E-3
6.120289333E0,-2.037278842E-3,-1.245382242E-3,-2.278360073E-3,3.300364621E-3
6.130246333E0,-9.440511931E-4,5.679642782E-4,-9.342622943E-4,1.444528335E-3
6.140203333E0,-8.228055667E-4,3.176573664E-4,-1.382613555E-3,1.639980318E-3
6.150159333E0,-8.989719208E-4,-2.046164125E-3,-8.007124998E-4,2.374042681E-3
6.160116333E0,2.103240695E-3,2.214629203E-4,-1.875805203E-3,2.826890943E-3
6.170073333E0,3.578048199E-4,1.329337247E-3,-6.579421461E-4,1.525794767E-3
6.180030333E0,1.282958547E-4,-3.764685243E-4,-4.742620513E-4,6.189611211E-4
6.189987333E0,-6.638129707E-5,2.360462211E-3,-3.176837694E-3,3.958343853E-3
6.199944333E0,-2.044141293E-4,-1.320777461E-3,2.029337455E-3,2.429907147E-3
6.209901333E0,1.147140167E-3,-1.394813880E-3,-1.490488648E-5,1.806006223E-3
6.219858333E0,-3.039600560E-4,-1.763579436E-3,1.479131635E-3,2.321730935E-3
6.229814333E0,-1.990539953E-3,-1.658384688E-3,-5.672411062E-4,2.652216347E-3
6.239771333E0,-1.704500290E-3,-2.064123750E-3,3.938572481E-4,2.705744190E-3
6.249728333E0,8.673142875E-4,-6.816769019E-4,-1.601383556E-3,1.944568529E-3
6.259685333E0,1.557700452E-3,-4.841862246E-4,-2.401538193E-3,2.903145310E-3
6.269642333E0,2.993567614E-4,-2.162726596E-4,-1.951997168E-3,1.986625601E-3
6.279599333E0,-1.503939508E-3,3.818478435E-4,-1.258943230E-4,1.556756628E-3
6.289556333E0,-7.569226436E-4,1.316617243E-3,-2.555229235E-3,2.972475281E-3
6.299513333E0,5.260256585E-4,-2.585402690E-3,-1.196195371E-3,2.896876495E-3
6.309469333E0,-8.963686414E-4,-4.490157589E-4,-8.973889053E-4,1.345510587E-3
6.319426333E0,3.637472400E-4,2.929493785E-4,1.677468885E-3,1.741273457E-3
6.329383333E0,-9.995249566E-4,9.504845366E-4,3.911624663E-4,1.433694203E-3
6.339340333E0,-2.405184787E-3,-7.681734860E-4,-4.648310132E-4,2.567308364E-3
6.349297333E0,-3.247809131E-3,-1.907208003E-3,-9.750924073E-4,3.890567018E-3
6.359254333E0,-1.022988115E-3,-6.175078452E-4,-2.787740901E-3,3.033038073E-3
6.369211333E0,2.971487120E-3,-2.766232938E-4,1.630415209E-4,2.988785487E-3
6.379168333E0,-7.409481332E-4,5.271006376E-5,6.262739189E-4,9.715974003E-4
6.389125333E0,1.912093023E-3,2.740183845E-4,-2.107578330E-4,1.943091523E-3
6.399081333E0,6.313100457E-4,1.427816227E-3,2.195793204E-4,1.576523590E-3
6.409038333E0,1.897643087E-3,-1.642010175E-3,1.127864234E-4,2.511964864E-3
6.418995333E0,2.216878813E-3,1.493252814E-3,-2.653766423E-4,2.686034326E-3
6.428952333E0,-7.349688094E-4,1.703642309E-3,-2.526666969E-3,3.134744366E-3
6.438909333E0,1.182078151E-3,-6.739683449E-4,-6.187190302E-4,1.494776011E-3
6.448866333E0,-1.012100140E-3,1.682928763E-3,-9.446898475E-4,2.179228034E-3
6.458823333E0,-3.296012292E-4,9.785629809E-4,2.025513444E-3,2.273527477E-3
6.468780333E0,-9.695589542E-4,-8.084252477E-5,3.967238590E-4,1.050699719E-3
6.478736333E0,-9.891635273E-5,-9.596524760E-4,-1.232985873E-3,1.565557882E-3
6.488693333E0,-3.710914170E-4,5.492949858E-4,-3.269873559E-5,6.637040218E-4
6.498650333E0,-1.239926787E-3,1.592442393E-3,-1.272660214E-3,2.385991457E-3
6.508607333E0,1.045331708E-3,-4.363534972E-4,-2.196244430E-3,2.471156076E-3
6.518564333E0,4.139808007E-4,2.731509507E-3,-2.560938708E-3,3.767085260E-3
6.528521333E0,1.322118682E-3,-3.380505368E-4,-2.122049220E-3,2.522968265E-3
6.538478333E0,-2.224152442E-3,4.865657538E-4,-2.020710614E-3,3.044153692E-3
6.548435333E0,2.696303651E-3,1.294302754E-3,-5.549071357E-4,3.041906462E-3
6.558391333E0,2.025849186E-3,-1.942301169E-4,-2.620820887E-3,3.318206200E-3
6.568348333E0,4.796601832E-3,-3.569498658E-4,-1.540110447E-3,5.050420035E-3
6.578305333E0,9.618634358E-4,-1.539739780E-3,-1.318408176E-3,2.243697836E-3
6.588262333E0,-3.145796247E-3,1.707185991E-3,-4.028133117E-4,3.601774090E-3
6.598219333E0,-8.309248369E-5,-1.076329499E-5,-2.086015884E-3,2.087697889E-3
6.608176333E0,4.711113870E-4,-1.476833597E-3,-7.690824568E-4,1.730454055E-3
6.618133333E0,-2.103028353E-3,-1.416093670E-3,8.915821090E-4,2.687558035E-3
6.628090333E0,-1.313134679E-3,-2.506125718E-3,-9.563853964E-4,2.986580290E-3
6.638046333E0,-6.055929698E-4,5.926275626E-4,-9.877826087E-4,1.301408758E-3
6.648003333E0,4.879009211E-4,-1.134964637E-3,-2.590206917E-3,2.869732376E-3
6.657960333E0,-1.015739981E-4,1.581683755E-4,-1.734054182E-3,1.744212836E-3
6.667917333E0,3.443626221E-3,-8.013099432E-6,-2.899986226E-3,4.502060181E-3
6.677874333E0,3.105537733E-3,-2.145147882E-3,3.199228086E-4,3.787924848E-3
6.687831333E0,2.861592220E-3,-1.536882482E-3,-1.193551812E-3,3.460532290E-3
6.697788333E0,-1.521607977E-3,1.145955175E-4,-2.306937240E-4,1.543257128E-3
6.707745333E0,1.822824124E-4,2.235004678E-3,-1.420103945E-4,2.246917832E-3
6.717701333E0,-2.526051598E-3,2.078256570E-3,-1.273992937E-3,3.510433741E-3
6.727657583E0,-9.904729668E-4,-2.450849861E-4,-5.067368038E-4,1.139247794E-3
6.737614583E0,-9.331272449E-4,8.047781885E-4,-1.414060593E-3,1.875623029E-3
6.747571583E0,-1.141119981E-3,1.404521987E-3,7.897051983E-4,1.974454639E-3
6.757528583E0,-2.227694495E-3,-1.027360559E-4,2.260491252E-3,3.175373704E-3
6.767485583E0,-2.594411606E-3,7.438827306E-4,9.555425495E-4,2.863109265E-3
6.777442583E0,1.481567044E-3,-1.628696918E-5,-1.258626580E-4,1.486992797E-3
6.787399583E0,-4.436320160E-4,-2.292225137E-3,-3.853488714E-3,4.505605477E-3
6.797355583E0,7.883314393E-4,-2.898611128E-4,-2.182608470E-3,2.338646116E-3
6.807312583E0,-2.654814161E-4,-9.788209572E-4,-5.277199671E-4,1.143266903E-3
6.817269583E0,-6.968950620E-4,-5.505727604E-4,-3.493172117E-4,9.543665995E-4
6.827226583E0,-5.067455349E-4,-1.476287842E-3,5.612173118E-4,1.658668653E-3
6.837183583E0,-1.033200533E-3,3.577703610E-4,-1.039917581E-3,1.508950479E-3
6.847140583E0,-1.222285093E-3,-2.872468904E-4,-1.765628345E-3,2.166549117E-3
6.857097583E0,6.439659628E-4,-2.327427268E-3,-1.143051311E-3,2.671736542E-3
6.867054583E0,-2.063936321E-3,7.660780102E-5,-2.332951874E-3,3.115825145E-3
6.877010583E0,-3.661299124E-4,-7.239934057E-4,-1.769261435E-3,1.946407868E-3
6.886967583E0,6.567902747E-4,2.765562385E-4,-5.841548555E-4,9.214628116E-4
6.896924583E0,6.221220829E-4,-3.527025692E-3,-1.622116659E-3,3.931692838E-3
6.906881583E0,-1.466062618E-3,-9.128665552E-4,-1.104930881E-3,2.050252960E-3
6.916838583E0,7.223987486E-4,-1.730676740E-4,-1.503578387E-4,7.579049093E-4
6.926795583E0,-6.725650746E-4,-5.512367934E-4,1.736225560E-3,1.941825167E-3
6.936752583E0,1.875077607E-3,-1.171296462E-3,-1.702106092E-3,2.790164258E-3
6.946709583E0,-1.483168569E-3,-3.547715023E-4,-8.898414671E-4,1.765635767E-3
6.956665583E0,-1.210745075E-3,-1.614818349E-3,1.030384097E-3,2.266105321E-3
6.966622583E0,9.626607643E-4,-7.580788806E-4,-1.604547258E-3,2.018903475E-3
6.976579583E0,8.585034520E-4,-9.869802743E-4,-3.957198933E-3,4.167802974E-3
6.986536583E0,-2.565522678E-3,-1.057820395E-3,-9.233262390E-4,2.924623385E-3
6.996493583E0,-1.782015781E-3,5.089156330E-4,6.500179879E-4,1.963949783E-3
7.006450583E0,-1.738073654E-3,1.271378249E-3,5.770474672E-4,2.229413927E-3
7.016407583E0,1.638270915E-3,3.917878494E-4,1.422183122E-3,2.204548512E-3
7.026364583E0,5.671475083E-4,1.357981935E-3,-7.197973318E-4,1.638254996E-3
7.036321583E0,-1.731796656E-3,-4.811584949E-4,-6.487341598E-4,1.910887010E-3
7.046277583E0,3.143099602E-4,-1.423118636E-3,-8.776318282E-6,1.457441054E-3
7.056234583E0,-2.555026906E-3,2.988334745E-5,-1.296363771E-4,2.558488048E-3
7.066191583E0,3.739177482E-4,7.297620177E-4,-7.757190615E-4,1.128763548E-3
7.076148583E0,-2.079812577E-3,-6.374167278E-4,-2.962227445E-3,3.675147871E-3
7.086105583E0,1.857671072E-3,-1.342089847E-3,3.217371646E-3,3.950142691E-3
7.096062583E0,-4.447866231E-4,1.327490434E-3,-6.317184307E-4,1.535947319E-3
7.106019583E0,1.658045454E-3,7.389318198E-4,5.991947837E-4,1.911588175E-3
7.115976583E0,1.800458529E-3,6.313435733E-5,-1.002012752E-3,2.061471905E-3
7.125932583E0,-1.095606713E-4,1.853311434E-3,-7.098643109E-4,1.987630286E-3
7.135889583E0,1.252242597E-3,-7.220171392E-5,-6.837416440E-4,1.428575250E-3
7.145846583E0,-8.220935706E-4,8.093006909E-5,8.635548875E-4,1.195037472E-3
7.155803583E0,4.251194187E-4,-8.485959843E-4,8.210777305E-4,1.254994145E-3
7.165760583E0,3.233867465E-4,-1.767120324E-3,-1.316641923E-3,2.227294139E-3
7.175717583E0,2.047203714E-3,2.150317654E-3,-1.130008604E-3,3.176763842E-3
7.185674583E0,-2.101202263E-3,-1.802146435E-4,-2.533227671E-3,3.296175162E-3
7.195631583E0,1.833008602E-3,6.417687982E-4,-9.575365111E-4,2.165332283E-3
7.205587583E0,-6.104416680E-4,7.461644709E-4,-1.790040173E-3,2.033136559E-3
7.215544583E0,6.305487477E-4,6.527816877E-4,-2.912589349E-3,3.050719976E-3
7.225501583E0,-2.255518921E-3,-2.548238263E-4,-5.618175492E-4,2.338362620E-3
7.235458583E0,-1.147103379E-3,1.001844183E-3,-3.770221956E-4,1.568975355E-3
7.245415583E0,4.686365137E-4,7.224781439E-4,5.486928858E-4,1.021106622E-3
7.255372583E0,-7.891833084E-4,8.654017001E-4,-8.289553225E-4,1.434885822E-3
7.265329583E0,-1.433135825E-3,-8.752401918E-4,1.391037367E-4,1.685014402E-3
7.275286583E0,-1.327009173E-3,-4.347702488E-4,-5.776230246E-4,1.511167388E-3
7.285242583E0,-2.801206429E-4,2.672392875E-4,-2.163535450E-3,2.197901284E-3
7.295199583E0,-7.602665573E-4,-4.102122039E-4,2.680118196E-4,9.044941270E-4
7.305156583E0,1.742367167E-4,-5.236631259E-4,-9.562433697E-4,1.104075579E-3
7.315113583E0,4.218183458E-4,-1.488141716E-4,1.338682603E-3,1.411434549E-3
7.325070583E0,1.214907737E-3,-7.514869794E-4,1.543746330E-4,1.436859429E-3
7.335027583E0,-2.994047478E-3,-8.174199611E-4,3.851442598E-4,3.127432140E-3
7.344984583E0,6.286505377E-4,-1.028874889E-3,-8.273925632E-4,1.462314429E-3
7.354941583E0,-6.536022993E-4,-2.338923514E-5,-6.389142945E-4,9.143054729E-4
7.364898583E0,8.148647030E-4,-3.911722451E-4,2.814745530E-4,9.467038257E-4
7.374854583E0,6.799133262E-4,1.232453622E-3,-1.246014144E-3,1.879833851E-3
7.384811583E0,-1.152341487E-3,4.968885332E-4,-7.608765736E-5,1.257210582E-3
7.394768583E0,-6.460428704E-4,1.304154284E-3,6.535709836E-4,1.595413682E-3
7.404725583E0,1.968382392E-3,1.092255116E-5,-8.524460718E-4,2.145067097E-3
7.414682583E0,-1.244854648E-4,-1.217281446E-3,2.050539479E-5,1.223801953E-3
7.424639583E0,-7.372787222E-4,5.193660036E-4,-1.167796552E-3,1.475489664E-3
7.434596583E0,4.959071521E-4,-1.330847852E-3,1.039118506E-4,1.424035667E-3
7.444553583E0,1.920131035E-5,-6.493451074E-4,1.078628935E-3,1.259149768E-3
7.454509583E0,-1.985853538E-3,7.396433502E-4,2.779697534E-3,3.495340461E-3
7.464466583E0,8.072697092E-4,1.682401635E-3,1.532805618E-3,2.414881510E-3
7.474423583E0,9.981532348E-4,-1.212268136E-3,-1.484240871E-3,2.160757941E-3
7.484380583E0,-6.058687577E-4,3.198487684E-4,-1.018453855E-3,1.227447938E-3
7.494337583E0,1.907056780E-3,6.548035890E-4,-2.799102105E-3,3.449725481E-3
7.504294583E0,-4.370575771E-4,-1.209142618E-3,-3.617769107E-4,1.335637574E-3
7.514251583E0,-6.841132417E-4,-9.577106684E-4,1.581655815E-4,1.187534001E-3
7.524208583E0,-1.224735053E-3,-6.879325956E-4,1.349930186E-3,1.948214237E-3
7.534164583E0,-1.763646258E-3,6.782105193E-4,-6.992183626E-4,2.014776402E-3
7.544121583E0,-1.738079824E-3,1.004714519E-3,-1.329855062E-3,2.408087877E-3
7.554078583E0,4.197048256E-4,3.173016012E-6,2.362011001E-3,2.399011916E-3
7.564035583E0,3.301375546E-5,1.789415255E-4,-4.271175712E-4,4.642622074E-4
7.573992583E0,-1.187653514E-3,-6.544813514E-4,-2.941181883E-4,1.387577824E-3
7.583949583E0,-1.300837845E-3,1.191888936E-3,-5.191550590E-4,1.839103126E-3
7.593906583E0,-1.211935887E-3,-1.808796078E-4,-6.904150359E-4,1.406477497E-3
7.603863583E0,7.329705986E-4,-1.045075245E-3,-7.466077805E-4,1.478800644E-3
7.613819583E0,2.352846786E-5,-2.124547027E-3,5.718003958E-4,2.200274835E-3
7.623776583E0,-2.645757748E-3,-1.229192130E-3,-1.731035300E-3,3.392260391E-3
7.633733583E0,2.869384363E-3,-4.960447550E-4,-1.537975855E-3,3.293143901E-3
7.643690583E0,-9.152339771E-4,7.147435099E-5,-1.505752094E-3,1.763533721E-3
7.653647583E0,5.693151616E-4,1.139407977E-4,3.159395419E-4,6.609992834E-4
7.663604583E0,2.878542058E-3,2.284571528E-4,-2.597026061E-3,3.883650527E-3
7.673561583E0,5.823116517E-4,2.535279840E-3,-1.191569027E-3,2.861217830E-3
7.683518583E0,1.507493900E-3,4.385728389E-4,2.526626922E-4,1.590195721E-3
7.693475583E0,7.252441719E-6,-3.214739263E-4,4.216786474E-4,5.302932819E-4
7.703431583E0,-3.093466163E-3,-9.041735902E-4,1.374291256E-3,3.503675104E-3
7.713388583E0,-1.027752412E-3,1.571469009E-3,1.678700093E-3,2.518694874E-3
7.723345583E0,2.843869152E-4,7.035443559E-4,-7.636845112E-4,1.076598630E-3
7.733302958E0,7.818025770E-4,1.574978232E-4,1.706560142E-4,8.155637982E-4
7.743259958E0,-3.015713301E-4,5.298079923E-4,-2.358814701E-3,2.436318651E-3
7.753216958E0,-1.207728172E-3,9.183585644E-4,-1.761839725E-3,2.325095483E-3
7.763173958E0,-1.251404174E-3,-6.221793592E-5,-5.608517677E-5,1.254204539E-3
7.773130958E0,2.783040982E-4,2.871220931E-3,2.909251489E-4,2.899310306E-3
7.783086958E0,-1.642634044E-3,-1.759217121E-3,-5.972390063E-4,2.479876189E-3
7.793043958E0,-3.186544869E-3,-3.537908196E-5,2.129620872E-3,3.832832496E-3
7.803000958E0,1.671739155E-4,-5.070250481E-4,-2.610986121E-4,5.943012727E-4
7.812957958E0,1.348179765E-3,1.776563004E-3,-1.158867963E-4,2.233202753E-3
7.822914958E0,7.497675251E-4,1.597598195E-3,-5.398620851E-4,1.845514130E-3
7.832871958E0,-1.046156744E-3,5.387291312E-4,1.277277246E-3,1.736695187E-3
7.842828958E0,8.728459943E-5,-2.873845398E-3,2.341172658E-4,2.884686615E-3
7.852785958E0,-1.203180291E-3,-9.226240218E-4,2.126839943E-3,2.611958277E-3
7.862741958E0,-3.791982308E-4,6.843265146E-4,2.357293852E-4,8.171061252E-4
7.872698958E0,-4.148202715E-4,1.723377034E-3,-7.291818038E-4,1.916718645E-3
7.882655958E0,-1.884618890E-3,1.691152342E-3,1.352078747E-3,2.870522869E-3
7.892612958E0,-3.594123991E-4,1.696838066E-3,1.071062870E-4,1.737788379E-3
7.902569958E0,1.993188635E-4,-1.080572605E-3,2.451220527E-3,2.686232908E-3
7.912526958E0,-3.135156585E-4,-1.097229309E-3,-6.548268721E-4,1.315675666E-3
7.922483958E0,-6.759719690E-4,1.311600208E-3,-1.246581785E-3,1.931631268E-3
7.932440958E0,-3.125892254E-3,-1.721365377E-3,-2.090780530E-3,4.135899463E-3
7.942396958E0,-2.437465126E-3,-2.339892089E-4,-2.664158586E-3,3.618525689E-3
7.952353958E0,1.877259929E-3,-6.697438657E-4,-9.549981914E-4,2.210131949E-3
7.962310958E0,2.087916015E-3,-8.809324354E-4,-1.656741370E-3,2.807174239E-3
7.972267958E0,2.859853208E-3,1.745702699E-3,2.003748901E-3,3.904004091E-3
7.982224958E0,1.598047558E-3,-7.917573676E-4,1.624781173E-3,2.412581519E-3
7.992181958E0,-1.928815618E-5,-1.238780096E-3,-1.131573226E-3,1.677917199E-3
8.002138958E0,-9.106481448E-4,-1.082681119E-4,-2.053560223E-3,2.249024593E-3
8.012095958E0,2.046990674E-3,-1.471528783E-3,-6.625107490E-4,2.606623922E-3
8.022052958E0,6.128783571E-4,-1.050482504E-3,-4.222937860E-4,1.287425887E-3
8.032008958E0,-1.776307239E-3,7.156217471E-4,1.341374591E-3,2.338090607E-3
8.041965958E0,-3.167043906E-5,2.959072590E-4,4.659937695E-4,5.529143838E-4
8.051922958E0,-2.533835359E-3,4.871655256E-4,3.111157566E-4,2.598931490E-3
8.061879958E0,5.631543463E-4,-2.918094397E-4,-2.414097078E-3,2.496028900E-3
8.071836958E0,-6.327338051E-4,1.890826970E-3,-1.407869160E-3,2.440834749E-3
8.081793958E0,-5.621600430E-4,-9.611528367E-4,7.364759222E-5,1.115913374E-3
8.091750958E0,-1.022596727E-3,-5.578957498E-4,-1.854185946E-3,2.189739084E-3
8.101707958E0,1.477046288E-3,4.770793021E-5,-1.785252243E-4,1.488560727E-3
8.111663958E0,-1.366073731E-3,-1.485547051E-3,-2.325288951E-3,3.078956997E-3
8.121620958E0,-1.314323163E-4,5.219439045E-4,2.790163271E-4,6.062590238E-4
8.131577958E0,1.215472585E-3,2.944190055E-4,-2.259185072E-3,2.582241922E-3
8.141534958E0,-5.384852411E-4,2.323677763E-4,-9.030662477E-5,5.933939879E-4
8.151491958E0,-2.707014792E-3,-1.429724507E-3,-6.231204607E-4,3.124151142E-3
8.161448958E0,3.002268495E-4,2.896124497E-4,-5.392311141E-4,6.817490202E-4
8.171405958E0,9.228063864E-4,5.505196750E-4,-3.242968582E-3,3.416356065E-3
8.181362958E0,-2.870677272E-4,1.673574559E-3,-2.069845796E-3,2.677222685E-3
8.191319958E0,-8.188938955E-4,2.374244854E-3,-2.067862079E-5,2.511583852E-3
8.201275958E0,2.295926679E-4,-4.167482257E-4,7.386365905E-5,4.815056769E-4
8.211232958E0,8.594340761E-4,6.365682930E-4,7.296344265E-4,1.294686263E-3
8.221189958E0,1.333743101E-3,-3.703730181E-4,-1.507421024E-3,2.046549529E-3
8.231146958E0,-2.183562610E-4,-1.146747731E-3,2.489316743E-3,2.749437699E-3
8.241103958E0,1.882611541E-3,9.064562619E-6,-6.215218455E-4,1.982573526E-3
8.251060958E0,1.104368130E-4,5.506603047E-4,-1.376055181E-3,1.486253990E-3
8.261017958E0,7.456006715E-4,-1.093043014E-3,-8.825715631E-4,1.590470357E-3
8.270974958E0,1.039374154E-3,-8.107190952E-4,-2.326703165E-3,2.674156259E-3
8.280930958E0,-2.068534959E-3,-2.298360690E-3,5.718814209E-4,3.144574232E-3
8.290887958E0,2.200785093E-5,-1.323942095E-3,-1.714471728E-4,1.335178321E-3
8.300844958E0,-2.528303303E-4,1.311256550E-3,2.118072473E-3,2.503906531E-3
8.310801958E0,2.894110512E-4,-9.359903634E-4,2.475604415E-3,2.662415057E-3
8.320758958E0,3.506637877E-4,1.890422776E-3,-7.337704301E-4,2.057931585E-3
8.330715958E0,3.329728264E-3,4.430161789E-4,1.175037585E-3,3.558660840E-3
8.340672958E0,1.613654895E-4,-1.414006576E-3,-4.012878053E-4,1.478676882E-3
8.350629958E0,-2.784579992E-3,1.491358504E-3,-4.368848167E-4,3.188871942E-3
8.360585958E0,-2.845832612E-3,-7.491586730E-4,-2.216408961E-3,3.684083421E-3
8.370542958E0,7.603033446E-4,-2.387445420E-4,-2.482383978E-3,2.607161358E-3
8.380499958E0,-1.582213095E-3,-1.145550981E-3,4.968941212E-4,2.015586539E-3
8.390456958E0,-2.750088461E-4,4.695905373E-4,-3.008915111E-3,3.057730414E-3
8.400413958E0,-2.887836192E-3,1.602233388E-3,-1.021930948E-3,3.457035227E-3
8.410370958E0,1.021867385E-3,-4.906924441E-4,-2.684760839E-4,1.164934090E-3
8.420327958E0,-4.396752920E-4,-9.618047625E-4,1.772304066E-3,2.063842161E-3
8.430284958E0,1.548099564E-3,-6.739525124E-4,-6.367811002E-4,1.804526093E-3
8.440241958E0,3.531391267E-4,7.156850770E-4,-1.535331365E-3,1.730362613E-3
8.450197958E0,1.138388878E-3,5.503408611E-4,-8.758134209E-4,1.538133105E-3
8.460154958E0,-5.556478864E-4,-4.693828523E-4,1.954147592E-5,7.276308851E-4
8.470111958E0,-1.606342848E-4,-8.278219029E-4,-1.497640274E-3,1.718725943E-3
8.480068958E0,1.584801474E-3,2.579160966E-3,2.119465731E-3,3.695375757E-3
8.490025958E0,1.190020237E-3,-1.365272328E-3,-1.180334948E-4,1.814951405E-3
8.499982958E0,-1.943987794E-3,3.988053650E-4,8.785212412E-4,2.170238198E-3
8.509939958E0,-2.558997367E-4,-2.487009391E-3,9.106006473E-5,2.501797818E-3
8.519896958E0,6.594287697E-4,2.439572476E-3,-8.325246163E-4,2.660724977E-3
8.529852958E0,1.363801071E-3,-3.734957427E-4,6.053722464E-4,1.538157336E-3
8.539809958E0,6.711127935E-4,-1.163921319E-3,2.366786823E-3,2.721540939E-3
8.549766958E0,9.157618042E-4,1.462642103E-5,-7.542227395E-4,1.186459251E-3
8.559723958E0,1.232411596E-3,-3.369451500E-3,-2.028013114E-3,4.121271521E-3
8.569680958E0,-2.347831149E-3,-8.989004418E-4,-4.127942957E-4,2.547691551E-3
8.579637958E0,-1.749579096E-4,1.475308090E-3,-6.636646576E-4,1.627143205E-3
8.589594958E0,-1.485279761E-3,-5.942266434E-4,-1.851413865E-3,2.446813146E-3
8.599551958E0,-7.531768642E-4,1.436966471E-3,3.305796999E-3,3.682450520E-3
8.609508958E0,-1.385467593E-3,-1.140452921E-3,-4.943595268E-4,1.861328734E-3
8.619464958E0,-9.737429209E-4,-4.650754854E-4,-8.573480882E-4,1.378229381E-3
8.629421958E0,-2.657133155E-4,8.148029447E-4,-2.030944452E-3,2.204369019E-3
8.639378958E0,7.529457216E-4,-2.413747832E-3,-1.717757434E-3,3.056762414E-3
8.649335958E0,-2.146402840E-4,-7.662223652E-4,6.887982599E-4,1.052430619E-3
8.659292958E0,-1.173111959E-3,4.487121478E-4,-7.378570735E-4,1.456697402E-3
8.669249958E0,1.221900457E-3,-6.082234904E-4,-7.315268740E-4,1.548582612E-3
8.679206958E0,-8.170156507E-4,-8.945129812E-4,9.065838531E-4,1.513129978E-3
8.689163958E0,1.642679679E-3,-8.478853852E-4,5.096504465E-4,1.917563489E-3
8.699119958E0,1.807795605E-3,9.028762579E-4,1.463594846E-3,2.495079229E-3
8.709076958E0,-6.134464638E-4,-1.708976924E-4,3.341347910E-4,7.191443832E-4
8.719033958E0,2.065207809E-5,2.016623504E-3,-1.564965583E-3,2.552707219E-3
8.728991083E0,3.159171902E-3,2.507034689E-3,-1.478052698E-3,4.295373071E-3
8.738948083E0,-7.976463530E-5,6.193863228E-4,3.289021552E-4,7.058175696E-4
8.748905083E0,-4.560820526E-4,9.602764621E-4,-2.083815634E-4,1.083311866E-3
8.758862083E0,1.036353409E-3,-1.024045050E-3,1.323202159E-3,1.968136329E-3
8.768819083E0,2.364368644E-3,-1.967443153E-3,7.887487300E-4,3.175404888E-3
8.778776083E0,5.167955533E-5,7.385946810E-4,-3.987550735E-4,8.409509427E-4
8.788732083E0,1.403084025E-5,4.229405895E-4,-2.203409560E-3,2.243677627E-3
8.798689083E0,-2.484546974E-3,-8.670939133E-4,-1.770645380E-3,3.171751974E-3
8.808646083E0,-3.074738197E-3,-4.610028118E-4,1.866654493E-4,3.114704250E-3
8.818603083E0,-3.154366743E-3,4.660431296E-4,1.971782651E-3,3.749020215E-3
8.828560083E0,1.975018065E-3,8.952021599E-4,1.165939961E-3,2.462011222E-3
8.838517083E0,-1.328633283E-3,-5.756616592E-4,-2.505956218E-4,1.469507031E-3
8.848474083E0,-4.052781966E-3,-6.800275296E-4,2.036858350E-4,4.114482595E-3
8.858431083E0,-3.491239622E-4,6.350418553E-4,-4.360056482E-4,8.457343698E-4
8.868387083E0,-4.368787631E-5,1.153890043E-3,-2.575838007E-4,1.183097746E-3
8.878344083E0,-2.914042911E-3,-2.041104250E-3,-1.333233900E-3,3.799376959E-3
8.888301083E0,7.131291786E-4,-5.376245826E-5,-3.073150292E-4,7.783868926E-4
8.898258083E0,6.113963900E-4,-5.286037922E-4,-1.746900380E-4,8.268882175E-4
8.908215083E0,-8.162569720E-4,-3.900043666E-4,-1.582444180E-3,1.822774926E-3
8.918172083E0,-5.486092996E-4,1.002562232E-3,2.215811983E-4,1.164131187E-3
8.928129083E0,-2.393506002E-4,3.196317703E-4,-5.502813030E-3,5.517282340E-3
8.938086083E0,-8.834933396E-5,-3.376370296E-4,6.638979539E-5,3.552632453E-4
8.948043083E0,2.443621401E-3,-1.031319611E-3,-1.430092379E-5,2.652378217E-3
8.957999083E0,-7.638897514E-4,-3.218307160E-3,2.531947568E-3,4.165547625E-3
8.967956083E0,-2.005757531E-3,8.790474385E-4,6.954227574E-4,2.297694602E-3
8.977913083E0,-8.129277267E-4,-6.469441578E-4,6.959554739E-4,1.250496803E-3
8.987870083E0,8.039759705E-4,1.324153505E-3,-3.157876898E-3,3.517377769E-3
8.997827083E0,-2.159856027E-3,-1.099322923E-3,-1.295795199E-3,2.748194706E-3
9.007784083E0,-1.910137944E-3,-1.930816099E-3,-1.542462036E-3,3.123438315E-3
9.017741083E0,8.718001773E-4,3.113411367E-5,-6.067892537E-5,8.744637294E-4
9.027698083E0,-2.352016745E-4,3.995535895E-3,-4.679867998E-4,4.029719415E-3
9.037654083E0,-6.336105289E-4,-1.973407343E-3,3.233008087E-3,3.840330732E-3
9.047611083E0,1.519419136E-3,-3.186361864E-4,4.895715974E-4,1.627834107E-3
9.057568083E0,-1.202597748E-3,-6.515309215E-4,-6.670388393E-4,1.521734109E-3
9.067525083E0,7.124278927E-4,-2.175719477E-3,1.059376169E-3,2.522615035E-3
9.077482083E0,-3.259385703E-4,6.669387221E-4,-7.667527534E-4,1.067217408E-3
9.087439083E0,4.420557525E-5,3.604106605E-4,-8.740462363E-4,9.464707075E-4
9.097396083E0,-1.180315856E-3,1.784669235E-3,1.413342543E-3,2.564318027E-3
9.107353083E0,-1.919699134E-4,9.034434333E-4,1.698294654E-3,1.933201288E-3
9.117310083E0,-1.243385836E-3,1.870533451E-4,-1.201354899E-3,1.739037344E-3
9.127266083E0,-1.695306855E-3,-4.213219509E-4,1.263117883E-3,2.155700421E-3
9.137223083E0,-1.062539755E-3,1.824787818E-3,-2.572806552E-4,2.127212883E-3
9.147180083E0,5.942372372E-4,2.599135041E-5,-2.212119289E-4,6.346086683E-4
9.157137083E0,-1.867855201E-3,5.263993517E-4,-4.971157759E-4,2.003273177E-3
9.167094083E0,-1.716080238E-3,6.103264168E-4,-9.454893880E-4,2.052164687E-3
9.177051083E0,1.678384840E-3,-2.241386101E-3,-7.822378539E-4,2.907349890E-3
9.187008083E0,-1.004474820E-3,-2.260734327E-3,-2.307896037E-3,3.383234174E-3
9.196965083E0,-1.079043490E-3,-2.314615995E-5,-1.048220787E-3,1.504538938E-3
9.206921083E0,7.000437472E-5,2.829618752E-4,-2.316301689E-4,3.723178352E-4
9.216878083E0,-3.584918100E-3,-1.872867346E-3,1.067459583E-3,4.183149512E-3
9.226835083E0,1.718918094E-3,-1.257996075E-3,2.249120735E-4,2.141919462E-3
9.236792083E0,3.203630447E-3,2.333736047E-4,-1.442493405E-3,3.521150168E-3
9.246749083E0,1.705870614E-3,-1.380132511E-3,-1.002929639E-3,2.412597804E-3
9.256706083E0,-1.674479689E-3,-9.178081527E-4,-8.162423037E-4,2.076657297E-3
9.266663083E0,-1.830047346E-3,-5.077160895E-4,1.118752174E-3,2.204190405E-3
9.276620083E0,-7.317598211E-4,-5.703000352E-4,-5.465224385E-4,1.076755005E-3
9.286577083E0,9.992935229E-4,-4.435954615E-4,1.507798675E-3,1.862477201E-3
9.296533083E0,-7.956770714E-4,9.819949046E-4,1.069759019E-4,1.268408388E-3
9.306490083E0,-3.838525154E-3,-2.794005908E-3,1.161262393E-3,4.887665569E-3
9.316447083E0,3.357133828E-4,2.132356167E-4,1.086427830E-3,1.156934887E-3
9.326404083E0,3.148417454E-5,2.182968892E-3,4.579527304E-4,2.230709560E-3
9.336361083E0,2.748970874E-4,5.009165034E-4,-1.299733762E-3,1.419786464E-3
9.346318083E0,-1.542017912E-3,-2.389764413E-4,-3.378814552E-3,3.721735718E-3
9.356275083E0,-1.709186472E-5,-1.134597696E-3,3.655897453E-4,1.192166065E-3
9.366232083E0,1.339249313E-3,-7.893331349E-5,-6.267055869E-4,1.480735994E-3
9.376189083E0,-2.504224656E-3,-2.586971968E-4,1.930462196E-3,3.172498961E-3
9.386145083E0,-1.630803454E-3,2.016695216E-4,4.644960165E-3,4.927052408E-3
9.396102083E0,-1.322425669E-4,-8.494798094E-4,-2.387445420E-4,8.922460420E-4
9.406059083E0,3.094809363E-4,-4.341667518E-4,-1.305298880E-3,1.409994462E-3
9.416016083E0,1.539523946E-4,-9.713266045E-4,-1.929810271E-3,2.165951152E-3
9.425973083E0,1.764666871E-3,1.147996634E-3,-2.668234054E-3,3.398737766E-3
9.435930083E0,-5.653328262E-4,-2.237977460E-4,-1.580066513E-3,1.693014123E-3
9.445887083E0,7.937286282E-4,4.912056029E-4,1.916413195E-3,2.131649037E-3
9.455844083E0,5.950568011E-4,-1.028926112E-3,1.772336196E-3,2.134000265E-3
9.465800083E0,-3.102671122E-3,-6.351284683E-4,8.870032616E-4,3.288879908E-3
9.475757083E0,-7.132829633E-4,-1.035667956E-3,-6.078286096E-4,1.396723423E-3
9.485714083E0,8.359039784E-4,1.239274628E-3,-2.631121315E-4,1.517815885E-3
9.495671083E0,1.860954682E-3,-1.231872477E-3,-1.009329222E-3,2.449368818E-3
9.505628083E0,3.886021441E-4,3.727050498E-4,7.191207260E-6,5.384908486E-4
9.515585083E0,8.477311349E-4,-4.882952198E-4,-1.774197444E-3,2.026044637E-3
9.525542083E0,-2.254883293E-5,2.322473563E-3,8.520418778E-4,2.473937603E-3
9.535499083E0,-5.112388171E-4,-1.096492633E-3,6.070309319E-4,1.353568534E-3
9.545456083E0,1.974058105E-3,-1.138639636E-3,1.173484139E-3,2.563292930E-3
9.555412083E0,-1.116806525E-3,-2.635242417E-4,-2.415392082E-3,2.674101859E-3
9.565369083E0,2.332470613E-4,-9.174570441E-4,-1.384631731E-3,1.677300405E-3
9.575326083E0,1.871623797E-3,1.189103350E-3,-1.508735120E-3,2.682018657E-3
9.585283083E0,8.447420551E-4,5.797101185E-4,-8.573061787E-4,1.335899265E-3
9.595240083E0,-1.901509706E-3,1.165866852E-4,2.153930254E-3,2.875542933E-3
9.605197083E0,-8.351751603E-4,-7.182387635E-4,-2.741287462E-4,1.135134811E-3
9.615154083E0,-7.111416198E-5,8.112145588E-4,-3.111469559E-4,8.717446373E-4
9.625111083E0,-7.902735379E-4,-1.339979470E-3,-1.914091874E-3,2.466541089E-3
9.635068083E0,4.009584663E-4,1.097345725E-3,-7.119406946E-4,1.368135550E-3
9.645024083E0,-1.355598215E-4,-1.204658300E-3,5.093957298E-4,1.314938057E-3
9.654981083E0,1.630914980E-3,5.660774186E-4,2.761630807E-3,3.256828523E-3
9.664938083E0,1.007855637E-3,6.071971729E-4,1.632482279E-3,2.012326957E-3
9.674895083E0,-1.811899361E-3,1.854621805E-3,2.557131927E-3,3.641637685E-3
9.684852083E0,1.188528026E-3,-1.273903064E-3,-1.984913368E-3,2.641081022E-3
9.694809083E0,9.280708036E-4,-6.792191416E-4,-3.556977492E-3,3.738280746E-3
9.704766083E0,3.809644841E-4,5.499273539E-4,-2.569776494E-3,2.655429393E-3
9.714723083E0,1.532781636E-3,6.300890818E-4,1.305123325E-3,2.109449855E-3
9.724679083E0,2.090747468E-3,2.043474466E-3,2.581806853E-3,3.900351202E-3
9.734635125E0,-2.292815596E-3,7.406715304E-5,5.972194485E-4,2.370476823E-3
9.744592125E0,-1.538879820E-3,-1.278599724E-3,-8.503235877E-4,2.173940790E-3
9.754549125E0,1.964774914E-3,1.317449845E-3,-8.686995134E-4,2.520050278E-3
9.764506125E0,9.371042252E-4,2.644746564E-3,-2.115875483E-3,3.514225061E-3
9.774463125E0,-8.781064535E-4,3.653466702E-4,-6.002699956E-4,1.124665817E-3
9.784420125E0,-8.812732995E-4,-2.139227465E-3,-1.228827983E-3,2.619724220E-3
9.794377125E0,1.517436001E-3,-4.015145823E-4,3.683905117E-3,4.004370474E-3
9.804333125E0,1.852998859E-3,-2.463208511E-4,2.196133602E-3,2.883969753E-3
9.814290125E0,3.359016497E-3,1.527877524E-3,1.242988277E-3,3.893895403E-3
9.824247125E0,1.120241825E-3,-1.305301674E-3,-3.571491688E-4,1.756789610E-3
9.834204125E0,-9.138805326E-4,2.148468047E-5,2.472726163E-3,2.636287900E-3
9.844161125E0,2.282957546E-3,7.174378261E-4,-1.452974975E-3,2.799597912E-3
9.854118125E0,1.881619100E-3,-1.163286157E-3,4.668976180E-4,2.260910991E-3
9.864075125E0,2.364486223E-3,-3.997888416E-4,3.170282580E-4,2.418911560E-3
9.874032125E0,1.317597576E-3,-1.802209765E-3,3.150365315E-3,3.861194767E-3
9.883989125E0,1.948563615E-3,-1.883208752E-4,-1.284056343E-4,1.961849362E-3
9.893945125E0,-6.940910826E-4,5.483096465E-4,6.764014252E-4,1.113519101E-3
9.903902125E0,8.265019278E-4,3.639524803E-4,1.331171952E-3,1.608597405E-3
9.913859125E0,4.901447101E-4,-3.140885383E-4,-2.282205038E-3,2.355281996E-3
9.923816125E0,1.969629433E-3,1.685786061E-3,-1.324313227E-3,2.911205982E-3
9.933773125E0,1.781343832E-3,1.542774029E-3,-8.579934947E-4,2.507885641E-3
9.943730125E0,1.620235620E-3,6.046360359E-4,-8.079446852E-4,1.908801408E-3
9.953687125E0,1.923303353E-3,3.939801827E-4,7.481407374E-4,2.100959479E-3
9.963644125E0,6.513155531E-4,-1.561213285E-4,1.711762045E-3,1.838128156E-3
9.973601125E0,-2.009182237E-3,-1.039225608E-3,-2.448095474E-3,3.333162849E-3
9.983557125E0,-1.138937660E-4,1.824077219E-3,-9.678825736E-4,2.068097233E-3
9.993514125E0,-3.887319472E-4,1.608893275E-3,-1.852318645E-3,2.484096306E-3
1.000347113E1,1.539567951E-3,-6.453897804E-4,1.899106428E-5,1.669478393E-3
1.001342812E1,-1.828531735E-3,1.921737567E-4,6.608129479E-4,1.953748400E-3
1.002338513E1,8.628334035E-4,1.310948282E-4,2.595637925E-3,2.738430860E-3
1.003334212E1,8.764155209E-4,-1.562600955E-4,8.419463411E-4,1.225314255E-3
1.004329913E1,-8.849385194E-4,-1.005739905E-3,-1.071060076E-3,1.715167230E-3
1.005325613E1,-4.521748051E-4,2.285927534E-3,-8.731875569E-4,2.488449970E-3
1.006321313E1,-5.146960029E-4,-6.220061332E-4,-1.120679080E-3,1.381204260E-3
1.007316913E1,-2.515757224E-4,2.586037852E-3,9.920066223E-4,2.781179472E-3
1.008312613E1,-2.649472561E-3,-1.475019380E-4,-4.028719850E-4,2.683983515E-3
1.009308313E1,3.446126357E-5,-2.614388242E-3,3.540736856E-3,4.401480540E-3
1.010304012E1,-1.040271949E-3,-1.747524366E-4,2.090550493E-3,2.341603192E-3
1.011299713E1,-2.996467520E-4,1.560563222E-3,-3.513806034E-3,3.856420437E-3
1.012295412E1,6.913073594E-4,-1.742159948E-4,-8.795945905E-4,1.132229536E-3
1.013291113E1,8.023612318E-4,-2.185701393E-3,-2.519303467E-3,3.430446630E-3
1.014286812E1,-1.718374318E-3,3.785863519E-4,1.457640901E-4,1.765611819E-3
1.015282513E1,5.475827493E-5,-1.391321421E-4,1.020915806E-5,1.498681038E-4
1.016278113E1,9.339337703E-5,-7.143048570E-4,3.450100077E-3,3.524506248E-3
1.017273813E1,-8.485666476E-4,-1.891292632E-4,3.627466736E-3,3.730194386E-3
1.018269513E1,1.119112130E-3,6.807018071E-4,1.951939426E-3,2.350709347E-3
1.019265213E1,-3.022169694E-4,-9.683268145E-4,-1.459836494E-3,1.777671090E-3
1.020260913E1,-3.879301948E-4,2.258215100E-4,-1.629550941E-3,1.690243018E-3
1.021256612E1,-2.036693506E-3,-8.508944884E-4,-9.903926402E-4,2.419301438E-3
1.022252313E1,-9.118786547E-4,-6.413953379E-4,-1.000571996E-3,1.498017016E-3
1.023248012E1,-8.476965595E-4,-2.027731389E-4,2.262332942E-3,2.424429159E-3
1.024243713E1,-4.080203362E-4,-1.193485223E-3,3.449312877E-3,3.672689327E-3
1.025239312E1,4.489849089E-4,-1.309598796E-3,1.761667430E-3,2.240559883E-3
1.026235013E1,-1.525622793E-5,-8.973935619E-4,1.168578397E-3,1.473473253E-3
1.027230713E1,3.466673661E-4,-3.043068573E-4,-6.743287668E-4,8.170068615E-4
1.028226413E1,3.393174848E-4,-2.242160030E-3,-1.511469018E-3,2.725244309E-3
1.029222113E1,-8.306091186E-4,-2.211534418E-3,-8.001388051E-4,2.494196884E-3
1.030217812E1,5.365803372E-4,5.588317290E-4,-5.150139332E-4,9.302960341E-4
1.031213513E1,1.931277802E-3,5.758758634E-4,4.786113277E-4,2.071360848E-3
1.032209212E1,-5.664260825E-4,-1.958984882E-3,2.532899380E-4,2.054900500E-3
1.033204813E1,-1.782425330E-3,-1.132340170E-3,3.723388771E-3,4.280520793E-3
1.034200512E1,1.941272756E-3,-8.681574836E-4,1.415474340E-3,2.554565509E-3
1.035196213E1,-4.846006632E-4,-2.287622541E-3,3.566015512E-4,2.365421603E-3
1.036191912E1,3.576112213E-4,3.592465073E-4,3.161937930E-4,5.974297894E-4
1.037187613E1,2.891679760E-4,-4.860404879E-4,-1.797024161E-3,1.883918604E-3
1.038183313E1,6.265591364E-4,1.414549537E-3,4.925718531E-5,1.547886628E-3
1.039179013E1,-1.707967836E-3,3.620674834E-4,1.324378420E-3,2.191397999E-3
1.040174713E1,6.899609580E-4,1.686494797E-3,2.007824834E-3,2.711396576E-3
1.041170412E1,-5.902205594E-4,8.617136627E-4,2.383064479E-3,2.601904505E-3
1.042166013E1,2.351582982E-3,7.217936218E-4,2.509437036E-3,3.514000966E-3
1.043161712E1,-5.299574696E-4,1.771079376E-3,-3.598527983E-4,1.883366962E-3
1.044157413E1,2.931116614E-5,2.834519371E-3,-6.948602386E-4,2.918593833E-3
1.045153112E1,-4.889400443E-4,-6.004255265E-4,-1.451730262E-3,1.645324872E-3
1.046148813E1,1.198002603E-3,5.402117968E-4,-1.811373979E-3,2.237881747E-3
1.047144513E1,3.260837402E-4,-6.936304271E-4,1.782562118E-3,1.940356019E-3
1.048140213E1,9.757408989E-4,1.308663748E-3,-5.265255459E-4,1.715196857E-3
1.049135913E1,2.394673182E-3,1.855943352E-3,-5.784570239E-4,3.084412084E-3
1.050131613E1,-1.672519604E-3,6.613098085E-4,-6.623421796E-4,1.916598458E-3
1.051127213E1,6.079452578E-4,1.318844035E-3,-2.478884067E-3,2.872945047E-3
1.052122912E1,6.636999897E-4,-1.348461956E-4,2.297798172E-3,2.395528670E-3
1.053118613E1,7.141300011E-5,2.651605755E-4,1.971827354E-3,1.990857369E-3
1.054114312E1,3.623964731E-4,-1.215824857E-3,6.963931955E-4,1.447247308E-3
1.055110013E1,1.691047568E-3,1.559695229E-4,-7.965750992E-4,1.875766579E-3
1.056105712E1,-2.434792696E-4,8.478648961E-4,-1.539055258E-3,1.773935772E-3
1.057101413E1,-2.902645618E-3,-2.725264058E-4,-1.561691985E-3,3.307340938E-3
1.058097113E1,-2.444003243E-3,1.808125526E-4,-1.126243267E-3,2.697085265E-3
1.059092813E1,-2.365091350E-4,-2.592603676E-3,-2.087911125E-3,3.337199913E-3
1.060088413E1,-1.571418485E-3,-2.775706351E-3,4.607073497E-3,5.603483560E-3
1.061084113E1,4.538660869E-5,-1.056212932E-4,-3.637168556E-4,3.814521633E-4
1.062079813E1,3.328885650E-4,1.356819645E-3,-2.018944360E-4,1.411572070E-3
1.063075512E1,1.384304604E-3,1.416740008E-3,-1.038926188E-3,2.236698261E-3
1.064071213E1,-1.866185339E-3,7.533431053E-4,3.243712708E-4,2.038477441E-3
1.065066912E1,8.361242362E-4,-2.089315094E-3,-2.387259621E-3,3.280754456E-3
1.066062613E1,3.935592249E-4,-3.690971062E-4,-1.280972734E-3,1.389968591E-3
1.067058313E1,9.847809561E-4,-8.133128285E-4,1.520672347E-3,1.985879069E-3
1.068054013E1,-6.758831441E-4,7.660053670E-4,2.446237486E-3,2.650973422E-3
1.069049613E1,3.170786891E-3,1.817421056E-3,1.138625666E-3,3.827972990E-3
1.070045313E1,-3.307320876E-4,4.640473053E-4,2.816328779E-3,2.873400669E-3
1.071041013E1,-3.653531894E-4,3.820220008E-4,-6.089452654E-6,5.286405618E-4
1.072036712E1,1.769943978E-3,6.008381024E-4,-4.212677479E-3,4.608726467E-3
1.073032413E1,-1.280973433E-3,-9.344741702E-4,-5.356511101E-4,1.673635869E-3
1.074028225E1,7.483775262E-4,2.693906426E-4,8.141472936E-4,1.138189815E-3
1.075023925E1,-4.247450270E-4,1.511462033E-4,1.878879033E-3,1.932211151E-3
1.076019625E1,1.456954051E-3,-1.750793308E-3,3.839268582E-3,4.464076115E-3
1.077015325E1,-2.035249025E-3,-1.095049083E-5,-9.688362479E-5,2.037583113E-3
1.078010925E1,-1.111530466E-3,-1.094374806E-3,-1.571079250E-3,2.213921002E-3
1.079006625E1,-1.399418106E-3,-1.026997343E-3,-2.658715006E-3,3.175194492E-3
1.080002325E1,-1.628069906E-3,1.232675277E-3,-9.665559046E-4,2.259276493E-3
1.080998025E1,2.585050883E-3,-1.399181783E-4,-2.379715443E-5,2.588944084E-3
1.081993725E1,-1.053735847E-3,-1.719859429E-3,1.684583258E-3,2.627945289E-3
1.082989425E1,-7.741039153E-4,2.321488224E-3,1.582317986E-3,2.914150760E-3
1.083985125E1,1.135080820E-4,3.242930397E-4,-6.637023762E-5,3.499358066E-4
1.084980825E1,-3.058050293E-3,3.085806966E-4,-1.662136521E-3,3.494222583E-3
1.085976525E1,2.275976585E-3,-1.868009567E-3,-8.864928968E-4,3.074963222E-3
1.086972125E1,-1.468427829E-3,-1.624597237E-3,-2.834328916E-3,3.581761700E-3
1.087967825E1,-2.635116922E-3,1.387839206E-3,1.223130617E-3,3.219625344E-3
1.088963525E1,-2.075853059E-3,-1.251885667E-3,3.284151200E-3,4.081915329E-3
1.089959225E1,2.260191832E-5,-6.725732237E-5,9.078797884E-4,9.106481781E-4
1.090954925E1,-6.024420727E-4,-2.618565224E-3,4.892311990E-4,2.731147643E-3
1.091950625E1,-1.203902997E-3,-7.025189698E-4,-2.115975600E-3,2.533824790E-3
1.092946325E1,-4.891105928E-4,-6.399340928E-4,-2.567382064E-3,2.690761133E-3
1.093942025E1,-2.005921444E-3,2.904897556E-3,-3.879796248E-3,5.245471340E-3
1.094937625E1,2.072709613E-3,-5.044816062E-4,-1.284279395E-3,2.489979999E-3
1.095933325E1,1.974447863E-3,-9.460290894E-4,1.276764553E-3,2.534470976E-3
1.096929025E1,-4.903078079E-4,9.261732921E-4,3.866688581E-3,4.006180138E-3
1.097924725E1,-2.109890804E-3,5.420483649E-5,1.604299527E-3,2.651104362E-3
1.098920425E1,-1.436910126E-3,-6.515327841E-4,-3.752284683E-4,1.621728116E-3
1.099916125E1,-7.408726960E-4,-6.761066616E-4,-4.128049128E-3,4.248152795E-3