"Time (s)","Gyroscope x (rad/s)","Gyroscope y (rad/s)","Gyroscope z (rad/s)","Absolute (rad/s)"
3.402958333E-3,2.364384942E-3,-7.681278512E-4,-2.413285077E-1,2.413413121E-1
1.335895833E-2,2.642685082E-3,-5.209481344E-3,-2.363981903E-1,2.364703509E-1
2.331495833E-2,1.075513544E-3,-2.677384764E-4,-2.352000624E-1,2.352026738E-1
3.327095833E-2,2.007087227E-3,-6.131501868E-4,-2.459595054E-1,2.459684587E-1
4.322695833E-2,2.601215616E-3,-1.408951357E-3,-2.576354444E-1,2.576524280E-1
5.318295833E-2,3.200426698E-3,-1.586051658E-3,-2.642406225E-1,2.642647628E-1
6.313895833E-2,2.636328107E-3,-2.079773694E-3,-2.620093822E-1,2.620308991E-1
7.309495833E-2,3.703190479E-3,-2.210535109E-3,-2.529245317E-1,2.529612991E-1
8.305095833E-2,2.677190350E-3,-1.345781609E-3,-2.458710819E-1,2.458893398E-1
9.300695833E-2,3.338985844E-3,-4.450761713E-3,-2.412092090E-1,2.412733732E-1
1.029629583E-1,-4.459765041E-4,-3.082059324E-3,-2.462961972E-1,2.463158840E-1
1.129189583E-1,4.079799168E-3,-2.454351634E-3,-2.571328580E-1,2.571769338E-1
1.228751250E-1,5.011434667E-3,-3.754487261E-4,-2.667614222E-1,2.668087551E-1
1.328311250E-1,2.993024653E-3,-3.236749209E-3,-2.636428475E-1,2.636797030E-1
1.427871250E-1,2.726854756E-3,-3.835679963E-4,-2.551515996E-1,2.551664587E-1
1.527431250E-1,2.875192789E-3,-4.378310405E-3,-2.468901873E-1,2.469457449E-1
1.626991250E-1,1.558823045E-3,-3.125335090E-3,-2.416800410E-1,2.417052748E-1
1.726551250E-1,1.272799447E-3,-3.387656994E-3,-2.431178838E-1,2.431448162E-1
1.826111250E-1,2.220533788E-3,-2.010216005E-3,-2.475470603E-1,2.475651809E-1
1.925661250E-1,3.553978633E-3,-2.191577107E-3,-2.560204566E-1,2.560545019E-1
2.025221250E-1,4.936881829E-3,-4.463942721E-3,-2.608308494E-1,2.609157557E-1
2.124781250E-1,3.429266158E-3,-2.109974623E-3,-2.583485246E-1,2.583798986E-1
2.224341250E-1,2.705137245E-3,-1.937427558E-3,-2.494598627E-1,2.494820525E-1
2.323901250E-1,3.569332883E-3,-1.993619837E-3,-2.450688481E-1,2.451029477E-1
2.423461250E-1,3.063577693E-3,-9.926259518E-4,-2.521864474E-1,2.522070083E-1
2.523021250E-1,2.181272488E-3,-2.826478332E-3,-2.577140927E-1,2.577388223E-1
2.622581250E-1,3.156183753E-3,-1.538838260E-3,-2.606629729E-1,2.606866222E-1
2.722141250E-1,2.425678540E-3,-8.653244004E-4,-2.596173882E-1,2.596301619E-1
2.821701250E-1,2.751420252E-3,-1.425102353E-3,-2.530269921E-1,2.530459641E-1
2.921261250E-1,3.465414047E-3,-3.294642083E-3,-2.488793880E-1,2.489253172E-1
3.020821250E-1,1.790542388E-3,-2.220300026E-3,-2.441353947E-1,2.441520565E-1
3.120381250E-1,2.919988940E-3,-8.628871292E-4,-2.419310957E-1,2.419502552E-1
3.219941250E-1,2.846807940E-3,-2.497976646E-3,-2.481472641E-1,2.481761650E-1
3.319501250E-1,3.427909687E-3,-2.534993924E-3,-2.542813122E-1,2.543170512E-1
3.419061250E-1,1.987830270E-3,-4.829038866E-3,-2.554072738E-1,2.554606556E-1
3.518621250E-1,4.157241434E-3,-3.228746355E-3,-2.551262975E-1,2.551805932E-1
3.618181250E-1,2.778392285E-3,-3.879507072E-3,-2.556110919E-1,2.556556284E-1
3.717741250E-1,3.747782903E-3,-2.910915762E-3,-2.567879260E-1,2.568317703E-1
3.817301250E-1,3.997378983E-3,-1.356865279E-3,-2.570124567E-1,2.570471221E-1
3.916861250E-1,4.196583293E-3,-3.232263029E-3,-2.578090131E-1,2.578634253E-1
4.016421250E-1,5.067129619E-3,-2.798945643E-3,-2.550883889E-1,2.551540634E-1
4.115981250E-1,1.478520222E-3,-9.150253609E-4,-2.539520264E-1,2.539579788E-1
4.215541250E-1,4.363061395E-3,-4.419265315E-3,-2.523319125E-1,2.524083206E-1
4.315091250E-1,2.440525452E-3,-3.739892505E-3,-2.493228018E-1,2.493627929E-1
4.414651250E-1,7.333793910E-4,-2.903621644E-3,-2.484836876E-1,2.485017342E-1
4.514211250E-1,1.504098182E-3,-4.241061397E-3,-2.481585145E-1,2.481993095E-1
4.613771250E-1,4.198697861E-3,-1.884670928E-3,-2.525987327E-1,2.526406555E-1
4.713331250E-1,4.204823170E-3,-3.058858216E-3,-2.529244423E-1,2.529778857E-1
4.812891250E-1,5.194799742E-4,-3.315038979E-3,-2.515782118E-1,2.516005882E-1
4.912451250E-1,6.983770989E-3,-2.727812156E-3,-2.508050799E-1,2.509171221E-1
5.012011250E-1,4.083544482E-3,-7.401593029E-5,-2.491811067E-1,2.492145757E-1
5.111571250E-1,7.865510415E-4,-1.516117714E-3,-2.558259368E-1,2.558316384E-1
5.211131250E-1,2.269776305E-3,8.890125901E-5,-2.584148049E-1,2.584247883E-1
5.310691250E-1,2.299071057E-3,-2.519398928E-3,-2.605658174E-1,2.605881392E-1
5.410251250E-1,3.497084603E-3,-3.817698918E-3,-2.594061196E-1,2.594577794E-1
5.509811250E-1,3.208131529E-3,-4.447003826E-3,-2.532494366E-1,2.533087940E-1
5.609371250E-1,-6.881256122E-4,-1.932866871E-3,-2.431017756E-1,2.431104334E-1
5.708931250E-1,1.233611372E-3,-3.306258470E-3,-2.389909178E-1,2.390169700E-1
5.808491250E-1,2.916134894E-3,3.645457327E-4,-2.399010658E-1,2.399190658E-1
5.908051250E-1,2.537965775E-3,-1.653331332E-3,-2.459293902E-1,2.459480428E-1
6.007611250E-1,3.866256913E-3,-3.065283410E-3,-2.548201978E-1,2.548679602E-1
6.107171250E-1,6.728089880E-3,-3.474078141E-3,-2.595723271E-1,2.596827477E-1
6.206731250E-1,2.972357906E-3,-2.670167945E-3,-2.549022436E-1,2.549335570E-1
6.306291250E-1,1.373395789E-3,-5.313088186E-3,-2.512137592E-1,2.512736913E-1
6.405851250E-1,1.646750607E-3,-3.020024858E-3,-2.452877760E-1,2.453118941E-1
6.505411250E-1,1.804409781E-3,-1.999768429E-3,-2.477402836E-1,2.477549255E-1
6.604971250E-1,2.496016677E-4,-2.980751917E-3,-2.503065467E-1,2.503244185E-1
6.704531250E-1,1.082372153E-3,-2.492594533E-3,-2.576041222E-1,2.576184549E-1
6.804081250E-1,5.845956970E-3,-1.739706844E-3,-2.582190335E-1,2.582910588E-1
6.903641250E-1,4.046459217E-3,-3.380481154E-3,-2.562690675E-1,2.563233046E-1
7.003201250E-1,5.189509131E-3,-4.220801406E-3,-2.523807585E-1,2.524693911E-1
7.102761250E-1,3.337546717E-3,-4.059678875E-3,-2.453318983E-1,2.453881834E-1
7.202321250E-1,4.776699934E-4,-2.132382244E-3,-2.435816526E-1,2.435914545E-1
7.301881250E-1,3.030842636E-3,-2.849571407E-3,-2.441552877E-1,2.441907259E-1
7.401441250E-1,4.279353190E-3,-4.627946764E-4,-2.469661683E-1,2.470036747E-1
7.501001250E-1,1.985040028E-3,-1.405287534E-3,-2.544270158E-1,2.544386401E-1
7.600561250E-1,3.020566888E-3,-2.453134395E-3,-2.600931525E-1,2.601222591E-1
7.700121250E-1,6.643531378E-3,-1.515968703E-3,-2.616937160E-1,2.617824205E-1
7.799681250E-1,2.944165142E-3,-2.977847122E-3,-2.514173090E-1,2.514521803E-1
7.899241250E-1,-4.822579212E-4,-2.114982344E-3,-2.466505170E-1,2.466600561E-1
7.998801250E-1,-1.891755965E-4,-2.377186902E-3,-2.443029135E-1,2.443145521E-1
8.098361250E-1,3.541114274E-3,-2.684965730E-4,-2.490713000E-1,2.490966160E-1
8.197921250E-1,2.729790285E-4,-1.650843769E-4,-2.500954568E-1,2.500956603E-1
8.297481250E-1,3.945744596E-3,-4.242916591E-3,-2.495755851E-1,2.496428327E-1
8.397041250E-1,2.519051544E-3,-3.225895576E-3,-2.521497011E-1,2.521829173E-1
8.496601250E-1,3.018660704E-3,-4.336433485E-3,-2.512804270E-1,2.513359703E-1
8.596161250E-1,6.006644107E-3,-1.846576110E-3,-2.525503039E-1,2.526284735E-1
8.695721250E-1,1.192714088E-3,-2.721156925E-4,-2.495385408E-1,2.495415396E-1
8.795281250E-1,4.392626579E-4,-2.874178812E-3,-2.507897615E-1,2.508066154E-1
8.894841250E-1,5.338147283E-3,-1.643531956E-3,-2.526316047E-1,2.526933412E-1
8.994401250E-1,1.543999184E-3,-3.191010095E-3,-2.548367381E-1,2.548613929E-1
9.093961250E-1,3.012732603E-3,-4.455568269E-4,-2.541613579E-1,2.541796037E-1
9.193521250E-1,4.236221313E-3,-2.576771192E-3,-2.548946440E-1,2.549428659E-1
9.293071250E-1,4.165647551E-3,-2.500338480E-3,-2.527470589E-1,2.527937501E-1
9.392631250E-1,4.472348373E-3,-1.826049760E-3,-2.540618777E-1,2.541078001E-1
9.492191250E-1,6.112056784E-3,-3.051636741E-3,-2.528714538E-1,2.529637165E-1
9.591751250E-1,4.792695399E-3,-1.958440989E-4,-2.510630190E-1,2.511088366E-1
9.691311250E-1,1.289573498E-3,-4.467135295E-4,-2.482040972E-1,2.482078492E-1
9.790871250E-1,4.016848281E-3,-2.528605051E-3,-2.534074187E-1,2.534518668E-1
9.890431250E-1,4.033093806E-3,-3.164036199E-3,-2.481298447E-1,2.481827891E-1
9.989991250E-1,2.326518297E-3,-2.492619678E-4,-2.480040044E-1,2.480150419E-1
1.008955125E0,1.022634562E-3,-8.356906474E-4,-2.460564375E-1,2.460599817E-1
1.018911125E0,-1.070551574E-3,-1.033746637E-3,-2.491369843E-1,2.491414291E-1
1.028867125E0,4.856579937E-3,-1.355457120E-3,-2.557855844E-1,2.558352768E-1
1.038823125E0,4.792485852E-3,-3.168788739E-3,-2.622601688E-1,2.623230933E-1
1.048779125E0,3.685676027E-3,-2.372769639E-3,-2.579937875E-1,2.580310226E-1
1.058735125E0,2.185554709E-3,-2.065483481E-3,-2.510942519E-1,2.511122582E-1
1.068691125E0,2.991693560E-3,-2.575212158E-3,-2.471346557E-1,2.471661789E-1
1.078647125E0,2.615900245E-3,-2.354728989E-3,-2.492007017E-1,2.492255553E-1
1.088603125E0,1.687522396E-3,-1.370424405E-3,-2.517975271E-1,2.518069110E-1
1.098559125E0,2.948185429E-3,-1.522838138E-3,-2.538366318E-1,2.538583197E-1
1.108515125E0,1.497295452E-3,-2.965206280E-3,-2.547080219E-1,2.547296817E-1
1.118471208E0,1.454496291E-3,-2.753837034E-4,-2.513164878E-1,2.513208476E-1
1.128427208E0,1.572740613E-3,-2.668499947E-3,-2.445437908E-1,2.445634070E-1
1.138383208E0,1.656372449E-3,-1.139379106E-3,-2.446608841E-1,2.446691439E-1
1.148339208E0,2.546933480E-3,-3.387087025E-3,-2.480058372E-1,2.480420418E-1
1.158295208E0,2.163961763E-3,-4.893457517E-4,-2.513843179E-1,2.513941079E-1
1.168250208E0,4.414599389E-3,-2.270733938E-3,-2.542493343E-1,2.542977958E-1
1.178206208E0,3.800166538E-3,-3.716208972E-3,-2.519819438E-1,2.520379961E-1
1.188162208E0,1.044327510E-3,-1.194728538E-3,-2.520016432E-1,2.520066391E-1
1.198118208E0,1.691603335E-3,-2.031705342E-3,-2.476831973E-1,2.476973063E-1
1.208074208E0,2.842621412E-3,-2.894836478E-3,-2.503961325E-1,2.504289994E-1
1.218030208E0,4.655434168E-4,-1.152738929E-3,-2.508958280E-1,2.508989080E-1
1.227986208E0,4.205686972E-3,-4.048394039E-3,-2.530423403E-1,2.531096665E-1
1.237942208E0,3.438297892E-3,8.369013667E-4,-2.549036741E-1,2.549282357E-1
1.247898208E0,4.111545160E-3,-1.558612101E-3,-2.562469542E-1,2.562846769E-1
1.257854208E0,3.652588930E-3,-3.667622805E-4,-2.548041940E-1,2.548306363E-1
1.267810208E0,3.541268874E-3,-7.531866431E-4,-2.487809211E-1,2.488072639E-1
1.277766208E0,1.102287439E-3,-3.892787732E-3,-2.451512218E-1,2.451846047E-1
1.287722208E0,3.570238827E-3,-1.579831354E-3,-2.454806566E-1,2.455117008E-1
1.297678208E0,-7.756011328E-4,-2.917789854E-3,-2.533211410E-1,2.533391315E-1
1.307634208E0,2.194888890E-3,-2.328432165E-3,-2.579411864E-1,2.579610335E-1
1.317590208E0,2.486795653E-3,-1.740274951E-3,-2.580401301E-1,2.580579808E-1
1.327546208E0,1.247626729E-3,-1.845204271E-3,-2.565074563E-1,2.565171271E-1
1.337502208E0,3.012788948E-3,-2.492312342E-4,-2.496470958E-1,2.496653990E-1
1.347458208E0,1.654843334E-3,-7.898528129E-4,-2.455274463E-1,2.455342934E-1
1.357414208E0,1.751442906E-3,-1.624743454E-3,-2.445295751E-1,2.445412449E-1
1.367370208E0,-4.422029015E-4,-7.517598569E-4,-2.471567839E-1,2.471583228E-1
1.377326208E0,1.662457595E-3,-1.046965830E-3,-2.566356659E-1,2.566431860E-1
1.387281208E0,1.829437679E-3,-8.381735533E-4,-2.622168362E-1,2.622245575E-1
1.397237208E0,4.245864227E-3,-1.695222221E-3,-2.613393664E-1,2.613793519E-1
1.407193208E0,3.203769214E-3,-2.711217850E-3,-2.588354647E-1,2.588694896E-1
1.417149208E0,2.264072886E-3,5.552265793E-5,-2.513033152E-1,2.513135200E-1
1.427105208E0,4.370899871E-3,-2.664541826E-4,-2.494825125E-1,2.495209406E-1
1.437061208E0,1.701134024E-4,-1.521077938E-3,-2.445619851E-1,2.445667745E-1
1.447017208E0,2.854283084E-4,-1.212950796E-3,-2.454711795E-1,2.454743422E-1
1.456973208E0,3.701307112E-3,-1.978093758E-3,-2.500055432E-1,2.500407650E-1
1.466929208E0,2.819800749E-3,-9.336015210E-4,-2.533478141E-1,2.533652261E-1
1.476885208E0,1.174877514E-3,-3.412600607E-3,-2.536460161E-1,2.536716927E-1
1.486841208E0,2.141338773E-3,-3.927123733E-3,-2.543986142E-1,2.544379345E-1
1.496797208E0,-7.493956946E-4,-1.488008536E-3,-2.535622418E-1,2.535677153E-1
1.506753208E0,2.954795025E-3,-1.746335067E-3,-2.551489472E-1,2.551720317E-1
1.516709208E0,2.535544336E-3,-2.411336638E-3,-2.523269057E-1,2.523511658E-1
1.526665208E0,1.326469239E-3,-5.266172811E-4,-2.500475049E-1,2.500515778E-1
1.536621208E0,1.555964584E-3,-2.837019973E-3,-2.446709722E-1,2.446923668E-1
1.546577208E0,9.761943948E-4,-3.012789413E-3,-2.441729605E-1,2.441934981E-1
1.556533208E0,9.598222096E-5,-2.130358480E-3,-2.467620075E-1,2.467712219E-1
1.566489208E0,3.569010645E-3,-2.687225118E-3,-2.505545914E-1,2.505944179E-1
1.576445208E0,1.360441092E-5,-1.965151168E-3,-2.536926568E-1,2.537002682E-1
1.586401208E0,4.328191746E-3,-1.897507347E-3,-2.616555095E-1,2.616981838E-1
1.596357208E0,4.209698178E-3,-1.093941741E-3,-2.639369667E-1,2.639728028E-1
1.606313208E0,2.819528105E-3,-1.785032451E-3,-2.569818795E-1,2.570035456E-1
1.616269208E0,2.220042050E-3,-2.454793081E-3,-2.484191358E-1,2.484411834E-1
1.626224208E0,2.045338508E-3,-3.562401980E-3,-2.452033758E-1,2.452377818E-1
1.636180208E0,2.897536149E-3,-2.166968770E-3,-2.499503791E-1,2.499765659E-1
1.646136208E0,4.283977672E-3,2.812752500E-4,-2.517088652E-1,2.517454754E-1
1.656092208E0,2.600086387E-3,-2.389892936E-3,-2.578355968E-1,2.578597817E-1
1.666048208E0,5.617714021E-3,-1.621837728E-3,-2.559556663E-1,2.560224447E-1
1.676004208E0,7.652741624E-4,-1.436841674E-3,-2.544738948E-1,2.544791019E-1
1.685960208E0,3.863862017E-3,-7.670568302E-4,-2.540384829E-1,2.540690233E-1
1.695916208E0,3.634052351E-3,-2.285270020E-3,-2.531514764E-1,2.531878725E-1
1.705872208E0,3.127785400E-3,6.603542715E-5,-2.483777702E-1,2.483974721E-1
1.715828208E0,4.803589545E-3,-1.822335646E-3,-2.476768643E-1,2.477301445E-1
1.725784208E0,3.205959219E-3,-1.346428879E-3,-2.493591905E-1,2.493834335E-1
1.735740208E0,1.800639788E-3,6.005074829E-4,-2.463179231E-1,2.463252365E-1
1.745696208E0,1.111680060E-3,-2.233628184E-3,-2.500753701E-1,2.500878159E-1
1.755652208E0,1.888576662E-3,-3.254229203E-3,-2.517419457E-1,2.517700617E-1
1.765608208E0,4.134686664E-3,-1.241944730E-3,-2.535912693E-1,2.536280148E-1
1.775564208E0,-8.335738676E-4,-3.393297084E-3,-2.551642358E-1,2.551881591E-1
1.785520208E0,3.575821873E-3,-1.828956418E-3,-2.495582700E-1,2.495905882E-1
1.795476208E0,3.709705081E-3,-2.299100161E-3,-2.457953542E-1,2.458340984E-1
1.805432208E0,1.144548412E-3,-3.579015844E-3,-2.480955124E-1,2.481239662E-1
1.815388208E0,2.697444288E-3,-3.787589259E-3,-2.488858253E-1,2.489292592E-1
1.825344208E0,4.734384420E-4,-1.015239395E-3,-2.539341152E-1,2.539365860E-1
1.835300208E0,2.863655565E-3,-1.973609440E-3,-2.591208518E-1,2.591441905E-1
1.845256208E0,3.208801383E-3,-2.872693352E-3,-2.564278543E-1,2.564640194E-1
1.855211208E0,4.058593418E-3,-7.003890350E-4,-2.529755235E-1,2.530090477E-1
1.865167208E0,1.171726501E-3,-5.973251536E-4,-2.485642433E-1,2.485677228E-1
1.875123208E0,1.247989014E-3,1.353024505E-3,-2.459516227E-1,2.459585105E-1
1.885079208E0,1.356113353E-3,5.997717381E-6,-2.475322038E-1,2.475359186E-1
1.895035208E0,1.606222009E-3,-8.929977193E-4,-2.561634183E-1,2.561700105E-1
1.904991208E0,2.537795808E-3,-1.329756342E-3,-2.610149086E-1,2.610306326E-1
1.914947208E0,5.340839736E-3,-3.799951635E-3,-2.617115378E-1,2.617936081E-1
1.924903208E0,1.248359913E-3,-1.940798014E-3,-2.541793287E-1,2.541898035E-1
1.934859208E0,4.900035914E-3,-2.240459435E-3,-2.464238554E-1,2.464827510E-1
1.944815208E0,-3.346735029E-4,4.948731512E-4,-2.438560277E-1,2.438567595E-1
1.954771208E0,-7.126003038E-5,-4.058507271E-3,-2.421762049E-1,2.422102202E-1
1.964727208E0,1.821448561E-3,-3.345846198E-3,-2.462689579E-1,2.462984205E-1
1.974683208E0,-6.617163308E-4,-7.176753134E-4,-2.521423697E-1,2.521442594E-1
1.984639208E0,4.263800103E-3,8.842162788E-4,-2.576585710E-1,2.576953648E-1
1.994595208E0,1.159732230E-3,-9.962655604E-4,-2.545328140E-1,2.545374058E-1
2.004551208E0,3.389460035E-4,-2.940107137E-3,-2.481825054E-1,2.482001513E-1
2.014507208E0,2.559241373E-3,-2.148595639E-3,-2.417246550E-1,2.417477508E-1
2.024463208E0,2.260700800E-3,-3.182049841E-4,-2.391070426E-1,2.391179412E-1
2.034419208E0,2.259173431E-3,-1.489168964E-3,-2.460328788E-1,2.460477574E-1
2.044375208E0,1.246373286E-3,-4.976311699E-3,-2.555100024E-1,2.555614964E-1
2.054331208E0,4.170489497E-3,2.037286758E-4,-2.605462670E-1,2.605797225E-1
2.064287208E0,3.069538623E-3,-3.956395201E-3,-2.663154900E-1,2.663625637E-1
2.074242208E0,4.181879107E-3,-2.555527724E-3,-2.647589743E-1,2.648043302E-1
2.084198208E0,1.300605130E-3,-3.086188808E-4,-2.539872825E-1,2.539908000E-1
2.094154208E0,-3.325403668E-5,-4.827063531E-4,-2.441039830E-1,2.441044626E-1
2.104110208E0,-1.144591020E-3,-3.073429689E-3,-2.356761396E-1,2.356989581E-1
2.114066208E0,1.885792706E-3,-3.121320158E-3,-2.390230596E-1,2.390508772E-1
2.124022083E0,7.699282141E-4,-3.228379413E-3,-2.460095882E-1,2.460319750E-1
2.133978083E0,3.453813028E-3,-1.728544012E-4,-2.572671175E-1,2.572903583E-1
2.143934083E0,5.870631896E-3,-2.270892262E-3,-2.653423548E-1,2.654170049E-1
2.153890083E0,5.057769828E-3,-2.308979630E-3,-2.588206828E-1,2.588803937E-1
2.163846083E0,3.349618521E-3,-2.309512347E-3,-2.487600744E-1,2.487933448E-1
2.173802083E0,1.354666427E-3,-2.534753643E-3,-2.433080822E-1,2.433250562E-1
2.183758083E0,2.332092845E-4,-3.478844650E-3,-2.420595884E-1,2.420846982E-1
2.193714083E0,-1.438769046E-3,-1.891669817E-3,-2.483954430E-1,2.484068126E-1
2.203670083E0,3.340539755E-3,-1.485804096E-3,-2.574099898E-1,2.574359526E-1
2.213626083E0,4.546501674E-3,-9.624967352E-4,-2.610874772E-1,2.611288338E-1
2.223582083E0,2.834089100E-3,-7.252087817E-4,-2.569577098E-1,2.569743618E-1
2.233538083E0,2.536031883E-3,-1.132705249E-3,-2.526770532E-1,2.526923182E-1
2.243494083E0,2.447614912E-3,-3.143125214E-3,-2.436356246E-1,2.436681917E-1
2.253450083E0,1.852152636E-3,-2.306324430E-3,-2.433272600E-1,2.433452384E-1
2.263406083E0,4.939821549E-3,-3.076214343E-4,-2.515207231E-1,2.515694151E-1
2.273362083E0,2.886733040E-3,-1.555028372E-3,-2.578129470E-1,2.578337972E-1
2.283318083E0,2.265417716E-3,-8.056154475E-4,-2.653158903E-1,2.653267849E-1
2.293273083E0,7.236296777E-3,-8.466131985E-4,-2.605140507E-1,2.606159077E-1
2.303229083E0,4.433852620E-3,-3.005638719E-3,-2.499671280E-1,2.500245148E-1
2.313185083E0,2.231557155E-3,-1.992563717E-3,-2.432144284E-1,2.432328275E-1
2.323141083E0,-1.913386746E-3,2.458235249E-4,-2.406197190E-1,2.406274520E-1
2.333097083E0,5.185213406E-3,-1.651297323E-3,-2.491571605E-1,2.492165802E-1
2.343053083E0,3.895177972E-3,-2.024405636E-3,-2.565018833E-1,2.565394448E-1
2.353009083E0,5.299445707E-3,-2.132168040E-3,-2.606184781E-1,2.606810721E-1
2.362965083E0,5.817430560E-3,-1.201126724E-3,-2.586621046E-1,2.587303028E-1
2.372921083E0,1.457041129E-3,-2.405363135E-3,-2.522289455E-1,2.522446227E-1
2.382877083E0,2.564117080E-3,-9.160861373E-5,-2.446863651E-1,2.446998169E-1
2.392833083E0,1.898518298E-3,-1.006390899E-3,-2.391489297E-1,2.391585829E-1
2.402789083E0,-1.989696873E-3,-2.882854082E-3,-2.426837534E-1,2.427090313E-1
2.412745083E0,1.797600184E-3,-3.201335669E-3,-2.485877275E-1,2.486148391E-1
2.422701083E0,5.658882437E-4,-2.310242504E-3,-2.564970553E-1,2.565080833E-1
2.432657083E0,2.674034797E-3,-5.716811866E-4,-2.563433945E-1,2.563579786E-1
2.442613083E0,-4.676964600E-4,-1.723231748E-3,-2.520996332E-1,2.521059566E-1
2.452569083E0,1.272551250E-3,-2.864754759E-3,-2.463921010E-1,2.464120404E-1
2.462525083E0,1.412404818E-4,-3.727619536E-3,-2.479172945E-1,2.479453569E-1
2.472481083E0,9.115703870E-5,-3.164353780E-3,-2.513913512E-1,2.514112824E-1
2.482437083E0,2.227278426E-3,-2.196826972E-3,-2.564276457E-1,2.564467280E-1
2.492393083E0,4.021572880E-3,-9.225122631E-4,-2.577272356E-1,2.577602608E-1
2.502348083E0,1.223123167E-3,6.215889007E-4,-2.551479638E-1,2.551516526E-1
2.512304083E0,3.580194898E-3,-1.569218002E-3,-2.523352206E-1,2.523654964E-1
2.522260083E0,1.212112140E-3,-8.230004460E-4,-2.491093427E-1,2.491136511E-1
2.532216083E0,1.940974500E-3,-2.732330933E-3,-2.442997247E-1,2.443227138E-1
2.542172083E0,1.548158238E-3,-2.253495157E-3,-2.432491034E-1,2.432644679E-1
2.552128083E0,1.251754817E-3,1.493943855E-3,-2.483997792E-1,2.484074255E-1
2.562084083E0,2.937802114E-3,-9.694807231E-4,-2.518554926E-1,2.518744920E-1
2.572040083E0,3.001650097E-3,-2.827613614E-3,-2.538221478E-1,2.538556441E-1
2.581996083E0,1.430651406E-3,-2.644121647E-3,-2.554522753E-1,2.554699651E-1
2.591952083E0,1.749423100E-3,-5.305418745E-4,-2.554197013E-1,2.554262433E-1
2.601908083E0,1.112661324E-3,-5.420903675E-3,-2.530777156E-1,2.531382120E-1
2.611864083E0,2.529455349E-3,-6.049070507E-4,-2.516749501E-1,2.516883878E-1
2.621820083E0,1.449277159E-3,-1.823303290E-3,-2.486890256E-1,2.486999323E-1
2.631776083E0,2.342420048E-4,1.518521458E-4,-2.491554767E-1,2.491556331E-1
2.641732083E0,1.265684376E-3,-7.632104680E-4,-2.469543815E-1,2.469588042E-1
2.651688083E0,2.891946584E-3,-2.405057661E-3,-2.500086129E-1,2.500369056E-1
2.661644083E0,7.694073138E-4,-3.195217811E-3,-2.508653700E-1,2.508868974E-1
2.671600083E0,2.923048800E-3,-2.158850431E-3,-2.524543703E-1,2.524805218E-1
2.681556083E0,1.898264280E-3,-1.494924538E-3,-2.563902736E-1,2.564016587E-1
2.691512083E0,3.834515344E-3,-7.426422089E-4,-2.516860068E-1,2.517163106E-1
2.701468083E0,1.508777030E-3,-2.070227638E-3,-2.496356219E-1,2.496487652E-1
2.711423083E0,2.470335923E-3,-3.043763340E-3,-2.461420894E-1,2.461733032E-1
2.721379083E0,-1.150608296E-4,-1.623233780E-3,-2.449362129E-1,2.449416186E-1
2.731335083E0,2.367785783E-4,-6.231795996E-4,-2.497549653E-1,2.497558550E-1
2.741291083E0,1.581674907E-3,-8.032089099E-4,-2.601982951E-1,2.602043420E-1
2.751247083E0,3.586292500E-3,-1.638810150E-3,-2.591804266E-1,2.592104179E-1
2.761203083E0,4.016925581E-3,-9.053759277E-4,-2.562677264E-1,2.563008057E-1
2.771159083E0,1.462060725E-3,-3.330876119E-3,-2.491914630E-1,2.492180122E-1
2.781115083E0,2.128649969E-3,-2.517547458E-3,-2.416163683E-1,2.416388599E-1
2.791071083E0,2.385700122E-3,-9.588887915E-4,-2.428348362E-1,2.428484481E-1
2.801027083E0,-1.214361051E-3,-2.006043680E-3,-2.484538406E-1,2.484649066E-1
2.810983083E0,2.560986439E-3,-2.497704700E-3,-2.555041015E-1,2.555291433E-1
2.820939083E0,5.226028734E-4,-4.433023743E-3,-2.615420222E-1,2.615801105E-1
2.830895083E0,4.198343086E-4,-2.044284716E-3,-2.616738379E-1,2.616821599E-1
2.840851083E0,6.046576891E-4,-1.459187828E-3,-2.541107535E-1,2.541156625E-1
2.850807083E0,2.871497069E-3,-2.394104376E-3,-2.479910851E-1,2.480192644E-1
2.860763083E0,2.695728559E-3,-2.396767959E-3,-2.437729090E-1,2.437995952E-1
2.870719083E0,2.461026423E-3,-2.100322396E-3,-2.442314178E-1,2.442528473E-1
2.880675083E0,4.015779588E-3,-3.399944864E-3,-2.464945763E-1,2.465507296E-1
2.890631083E0,2.515964443E-3,-2.031744458E-3,-2.612580359E-1,2.612780499E-1
2.900587083E0,2.411036054E-3,-2.499661408E-3,-2.633678019E-1,2.633906993E-1
2.910543083E0,3.215617733E-3,-2.395109273E-3,-2.596952021E-1,2.597261534E-1
2.920498083E0,2.619069535E-3,-1.526120119E-3,-2.526375651E-1,2.526557498E-1
2.930454083E0,3.015775699E-3,-1.624977216E-3,-2.461059391E-1,2.461297803E-1
2.940410083E0,2.356643323E-3,-1.563192345E-3,-2.408557832E-1,2.408723846E-1
2.950366083E0,2.737649018E-3,-7.747979835E-4,-2.462085187E-1,2.462249576E-1
2.960322083E0,3.892129520E-3,-1.496780664E-3,-2.564789951E-1,2.565128924E-1
2.970278083E0,4.938519094E-3,-1.247153617E-3,-2.631888688E-1,2.632381526E-1
2.980234083E0,6.012838334E-3,-1.325183548E-3,-2.624045610E-1,2.624767875E-1
2.990190083E0,5.676449277E-3,-4.851119593E-4,-2.599326074E-1,2.599950342E-1
3.000146083E0,1.881977543E-3,-1.282487065E-4,-2.473462522E-1,2.473534450E-1
3.010102083E0,1.003413578E-3,-2.194354311E-3,-2.387588769E-1,2.387710689E-1
3.020058083E0,-1.054943539E-3,-6.888695061E-4,-2.453150451E-1,2.453182806E-1
3.030014083E0,2.492489293E-3,-2.581357025E-3,-2.527974546E-1,2.528229202E-1
3.039970083E0,2.354803961E-3,-5.909102038E-4,-2.630434334E-1,2.630546372E-1
3.049926083E0,3.125580028E-3,1.832004637E-5,-2.636014223E-1,2.636199526E-1
3.059882083E0,2.701072022E-3,-4.120459780E-4,-2.557642758E-1,2.557788700E-1
3.069838083E0,2.648341935E-3,-2.243913710E-3,-2.462295592E-1,2.462540247E-1
3.079794083E0,4.653968383E-3,1.721533947E-3,-2.449698895E-1,2.450201418E-1
3.089750083E0,2.469103085E-3,-1.010829583E-3,-2.438715845E-1,2.438861783E-1
3.099706083E0,3.718636872E-4,-8.843299001E-4,-2.443602681E-1,2.443621512E-1
3.109662083E0,3.062402830E-3,-2.807610668E-3,-2.537356913E-1,2.537697027E-1
3.119617875E0,2.280765213E-3,-2.161527053E-3,-2.554067969E-1,2.554261263E-1
3.129572875E0,3.919511568E-3,-2.492431551E-3,-2.520917058E-1,2.521344937E-1
3.139528875E0,3.577561816E-3,-1.640752889E-3,-2.466775030E-1,2.467089003E-1
3.149484875E0,2.260394860E-3,-1.643109135E-3,-2.414348423E-1,2.414510143E-1
3.159440875E0,2.028966323E-3,-2.335264347E-3,-2.454732507E-1,2.454927433E-1
3.169396875E0,4.108032212E-3,-1.412346959E-3,-2.522974908E-1,2.523348857E-1
3.179352875E0,3.762620036E-3,-1.131650060E-3,-2.598049343E-1,2.598346432E-1
3.189308875E0,1.379987225E-4,-1.557110809E-3,-2.636914551E-1,2.636960886E-1
3.199264875E0,4.026480019E-3,-1.372819766E-3,-2.611486912E-1,2.611833381E-1
3.209220875E0,2.290706616E-3,-3.472690471E-3,-2.520164251E-1,2.520507597E-1
3.219176875E0,8.017331711E-4,-1.401283778E-3,-2.418767214E-1,2.418821091E-1
3.229132875E0,-5.356489564E-4,-2.819504589E-3,-2.364641130E-1,2.364815284E-1
3.239088875E0,-2.672036877E-3,-3.291415982E-3,-2.399182320E-1,2.399556860E-1
3.249044875E0,1.515770564E-4,-1.743224449E-3,-2.519324720E-1,2.519385486E-1
3.259000875E0,4.825690761E-3,-2.010605298E-3,-2.664738595E-1,2.665251351E-1
3.268956875E0,4.474239424E-3,-1.744559966E-3,-2.657761872E-1,2.658195703E-1
3.278912875E0,3.737875493E-3,-4.377360456E-3,-2.602123022E-1,2.602759597E-1
3.288868875E0,1.552893082E-3,-2.763498574E-3,-2.532413900E-1,2.532612288E-1
3.298824875E0,-3.864208702E-4,-3.111839294E-3,-2.469201237E-1,2.469400339E-1
3.308780875E0,1.002641628E-3,-1.928401180E-3,-2.472148091E-1,2.472243634E-1
3.318736875E0,8.913214551E-4,-2.335598692E-3,-2.504055202E-1,2.504179986E-1
3.328691875E0,1.882065088E-3,-2.102662809E-3,-2.552201450E-1,2.552357455E-1
3.338647875E0,3.134816187E-3,-3.101082519E-3,-2.583080828E-1,2.583457169E-1
3.348603875E0,4.183307756E-3,-9.023621678E-4,-2.585898936E-1,2.586253031E-1
3.358559875E0,2.326019108E-3,-1.761764288E-3,-2.537040412E-1,2.537208204E-1
3.368515875E0,1.187021262E-3,-6.132116541E-4,-2.485457957E-1,2.485493866E-1
3.378471875E0,9.192945436E-5,-8.132150397E-4,-2.464565486E-1,2.464579074E-1
3.388427875E0,1.717192354E-3,-7.584867999E-4,-2.486889511E-1,2.486960363E-1
3.398383875E0,6.218343042E-4,-3.214986995E-3,-2.513025701E-1,2.513239037E-1
3.408339875E0,1.889324980E-3,-2.222687006E-3,-2.545185983E-1,2.545353154E-1
3.418295875E0,1.562022371E-3,1.719058491E-3,-2.554128766E-1,2.554234379E-1
3.428251875E0,3.587735817E-3,-1.174294390E-3,-2.527964711E-1,2.528246559E-1
3.438207875E0,2.960028592E-3,-2.670990303E-3,-2.507764697E-1,2.508081612E-1
3.448163875E0,3.899098607E-3,-2.017511055E-3,-2.444017828E-1,2.444412092E-1
3.458119875E0,2.725177212E-3,-1.827627420E-3,-2.424568832E-1,2.424790857E-1
3.468075875E0,2.273636172E-3,-4.210574552E-3,-2.460500002E-1,2.460965277E-1
3.478031875E0,2.281891881E-3,-4.757568240E-4,-2.497842759E-1,2.497951518E-1
3.487987875E0,4.385493230E-3,-3.299346194E-3,-2.528128326E-1,2.528723919E-1
3.497943875E0,2.623812295E-3,-6.641475484E-4,-2.536988854E-1,2.537133224E-1
3.507899875E0,4.103584681E-3,-2.979209647E-3,-2.498675883E-1,2.499190404E-1
3.517855875E0,1.549347071E-3,-2.364818007E-3,-2.535470128E-1,2.535627744E-1
3.527810875E0,4.144832026E-3,-8.649760857E-4,-2.519423962E-1,2.519779728E-1
3.537766875E0,1.349045546E-3,-3.679671325E-3,-2.536068857E-1,2.536371668E-1
3.547722875E0,2.386515960E-3,3.428729251E-4,-2.548278570E-1,2.548392625E-1
3.557678875E0,3.525816137E-3,-1.274198294E-3,-2.584204674E-1,2.584476599E-1
3.567634875E0,3.474889090E-3,-9.979512542E-4,-2.599993646E-1,2.600244995E-1
3.577590875E0,3.259439254E-3,-4.019355401E-4,-2.566738725E-1,2.566948817E-1
3.587546875E0,1.712116413E-3,-2.077062614E-3,-2.527528107E-1,2.527671435E-1
3.597502875E0,1.129416749E-3,-1.072518528E-3,-2.503700554E-1,2.503749000E-1
3.607458875E0,9.308994049E-4,-4.091827199E-3,-2.458409965E-1,2.458768090E-1
3.617414875E0,6.163800717E-4,-2.314433455E-3,-2.455350012E-1,2.455466826E-1
3.627370875E0,1.723254798E-3,-8.487589657E-4,-2.479569763E-1,2.479644170E-1
3.637326875E0,1.720857807E-3,6.553940475E-4,-2.498550117E-1,2.498617973E-1
3.647282875E0,1.456457656E-3,-9.763622656E-4,-2.520298362E-1,2.520359357E-1
3.657238875E0,2.808810677E-3,-1.721248962E-3,-2.521989346E-1,2.522204486E-1
3.667194875E0,-2.303794026E-4,-3.846394829E-3,-2.518008351E-1,2.518303167E-1
3.677150875E0,1.335825655E-3,-1.423184760E-3,-2.567897439E-1,2.567971621E-1
3.687106875E0,-3.305139253E-4,-1.130952500E-3,-2.544536591E-1,2.544563870E-1
3.697062875E0,2.949701622E-3,-1.141604967E-3,-2.524182200E-1,2.524380356E-1
3.707018875E0,1.637377078E-3,-3.466438502E-4,-2.486091256E-1,2.486147592E-1
3.716974875E0,9.604016086E-4,-2.295811661E-3,-2.471172214E-1,2.471297518E-1
3.726930875E0,5.447178846E-4,-1.402239315E-3,-2.500775158E-1,2.500820404E-1
3.736885875E0,1.678425586E-3,-2.023288980E-3,-2.541294992E-1,2.541430959E-1
3.746841875E0,2.242219169E-3,-1.044389792E-3,-2.598272860E-1,2.598390595E-1
3.756797875E0,2.842229558E-3,-3.479052335E-3,-2.567369342E-1,2.567762361E-1
3.766753875E0,3.497977043E-3,-2.976818010E-3,-2.552721202E-1,2.553134400E-1
3.776709875E0,2.539239125E-3,-2.248177305E-3,-2.478930205E-1,2.479162190E-1
3.786665875E0,6.459585857E-4,-1.051498577E-3,-2.396145314E-1,2.396177092E-1
3.796621875E0,2.476349240E-3,-4.003080539E-3,-2.418960631E-1,2.419418573E-1
3.806577875E0,5.635647103E-4,-2.069658600E-3,-2.475125343E-1,2.475218288E-1
3.816533875E0,2.906826558E-5,-4.246085882E-5,-2.601955533E-1,2.601955584E-1
3.826489875E0,4.133179784E-3,-6.608944386E-5,-2.646665573E-1,2.646988366E-1
3.836445875E0,4.223194439E-3,1.247647218E-3,-2.631440461E-1,2.631808902E-1
3.846401875E0,1.043819007E-3,-1.331428997E-3,-2.522457540E-1,2.522514275E-1
3.856357875E0,-4.273111699E-4,-2.480849624E-3,-2.421433181E-1,2.421564034E-1
3.866313875E0,1.739175059E-5,-2.190710045E-3,-2.396910936E-1,2.397011052E-1
3.876269875E0,2.125816420E-3,-2.863690257E-3,-2.435516119E-1,2.435777237E-1
3.886225875E0,5.676866276E-4,-5.180109292E-4,-2.530420125E-1,2.530431795E-1
3.896181875E0,1.140532549E-3,-5.086902529E-4,-2.652808428E-1,2.652837823E-1
3.906137875E0,3.963937517E-3,8.939765394E-5,-2.660054862E-1,2.660350344E-1
3.916093875E0,3.606008831E-3,9.605567902E-5,-2.581294477E-1,2.581546519E-1
3.926049875E0,1.627628691E-3,-4.879767075E-4,-2.474041134E-1,2.474099485E-1
3.936004875E0,-2.877640771E-3,-3.845158033E-3,-2.363733053E-1,2.364220919E-1
3.945960875E0,-6.763831479E-4,-4.094861448E-3,-2.375371456E-1,2.375734011E-1
3.955916875E0,5.603888421E-4,-2.353154123E-3,-2.483250797E-1,2.483368611E-1
3.965872875E0,3.157747677E-3,-4.114950076E-3,-2.598823607E-1,2.599341178E-1
3.975828875E0,2.824586350E-3,-1.278417185E-3,-2.639961243E-1,2.640143297E-1
3.985784875E0,2.483176999E-3,3.659827635E-4,-2.638630271E-1,2.638749650E-1
3.995740875E0,4.063763190E-3,1.758283004E-3,-2.569641173E-1,2.570022632E-1
4.005696875E0,1.925601391E-3,-2.857964486E-3,-2.499998957E-1,2.500236464E-1
4.015652875E0,1.180448802E-3,-3.277678974E-3,-2.478968054E-1,2.479212834E-1
4.025608875E0,-1.149327727E-3,-1.868341118E-3,-2.487581670E-1,2.487678382E-1
4.035564875E0,4.038243555E-3,-1.542636193E-3,-2.552261949E-1,2.552628012E-1
4.045520875E0,2.303780988E-3,-1.165785827E-3,-2.562999129E-1,2.563129178E-1
4.055476875E0,1.489386312E-3,-3.396982327E-3,-2.548442483E-1,2.548712394E-1
4.065432875E0,7.807342918E-4,-1.934396103E-3,-2.494195849E-1,2.494283078E-1
4.075388875E0,3.979457077E-3,-2.362099476E-3,-2.467854470E-1,2.468288323E-1
4.085344875E0,2.573860111E-3,-1.308228821E-3,-2.491654307E-1,2.491821584E-1
4.095300875E0,2.478252631E-3,-1.422745176E-3,-2.518530786E-1,2.518692898E-1
4.105256875E0,3.377395682E-3,-1.355474815E-3,-2.549309731E-1,2.549569476E-1
4.115212875E0,2.057799138E-3,6.692018360E-5,-2.555637360E-1,2.555720293E-1
4.125169500E0,1.526203705E-3,-2.126950771E-3,-2.525117993E-1,2.525253691E-1
4.135124500E0,2.254578285E-3,-2.776229754E-3,-2.507567704E-1,2.507822730E-1
4.145080500E0,8.365396061E-4,4.286849871E-4,-2.506355345E-1,2.506372972E-1
4.155036500E0,1.282885438E-3,-2.980428748E-3,-2.484240383E-1,2.484452285E-1
4.164992500E0,1.191846794E-3,3.370232880E-4,-2.506729960E-1,2.506760560E-1
4.174948500E0,4.837980494E-3,-3.649196588E-3,-2.548163235E-1,2.548883705E-1
4.184904500E0,3.634031629E-3,-9.990427643E-4,-2.556251884E-1,2.556529702E-1
4.194860500E0,1.802309416E-3,-1.449650154E-3,-2.532387376E-1,2.532493001E-1
4.204816500E0,2.968573477E-3,-8.985307068E-5,-2.448405176E-1,2.448585297E-1
4.214772500E0,2.532613929E-3,-1.364442520E-3,-2.440687269E-1,2.440856802E-1
4.224728500E0,3.318168689E-3,-2.020505257E-3,-2.447513938E-1,2.447822245E-1
4.234684500E0,1.659818226E-3,-1.265232451E-3,-2.501544058E-1,2.501631119E-1
4.244640500E0,3.831257345E-3,-7.076766342E-4,-2.555809617E-1,2.556106557E-1
4.254596500E0,2.761465497E-3,8.002053946E-4,-2.582033575E-1,2.582193638E-1
4.264552500E0,3.154104343E-3,-8.269445971E-4,-2.570465207E-1,2.570672014E-1
4.274508500E0,2.801501658E-3,-2.210989594E-3,-2.508576214E-1,2.508830068E-1
4.284464500E0,1.392415143E-4,-2.982289530E-3,-2.475934923E-1,2.476114918E-1
4.294420500E0,-1.182861743E-4,-3.132757731E-3,-2.475668639E-1,2.475867126E-1
4.304376500E0,3.472202457E-3,-1.436554827E-3,-2.524501979E-1,2.524781621E-1
4.314332500E0,2.819195390E-3,7.717385888E-4,-2.526816130E-1,2.526985180E-1
4.324288500E0,1.877723029E-3,-3.093523905E-3,-2.529855072E-1,2.530113883E-1
4.334243500E0,1.971200109E-3,-1.200814731E-3,-2.500525713E-1,2.500632240E-1
4.344199500E0,8.048774325E-4,-2.691697329E-3,-2.462741584E-1,2.462901828E-1
4.354155500E0,3.804928390E-3,-3.249363042E-3,-2.444328368E-1,2.444840435E-1
4.364111500E0,1.053884276E-3,-1.168271527E-3,-2.471404225E-1,2.471454308E-1
4.374067500E0,1.188373892E-3,-7.080780342E-4,-2.519213259E-1,2.519251239E-1
4.384023500E0,1.193430391E-3,-6.824936718E-4,-2.555146813E-1,2.555183799E-1
4.393979500E0,3.537012264E-3,-2.705430612E-3,-2.527149022E-1,2.527541327E-1
4.403935500E0,2.229258418E-3,-2.381658182E-3,-2.460558265E-1,2.460774505E-1
4.413891500E0,1.153074903E-3,-3.749458119E-3,-2.428445965E-1,2.428762773E-1
4.423847500E0,1.202216838E-3,-2.856824547E-3,-2.494959980E-1,2.495152496E-1
4.433803500E0,1.048818813E-3,-2.695703879E-3,-2.527940571E-1,2.528106053E-1
4.443759500E0,2.175888512E-3,-9.496947750E-4,-2.548953891E-1,2.549064452E-1
4.453715500E0,2.893344266E-3,-9.614126757E-4,-2.551824450E-1,2.552006583E-1
4.463671500E0,2.527223434E-3,1.187297516E-3,-2.535268962E-1,2.535422719E-1
4.473627500E0,4.110206384E-3,-1.099292189E-3,-2.474136204E-1,2.474502006E-1
4.483583500E0,3.738650121E-3,-1.498768106E-3,-2.436799705E-1,2.437132574E-1
4.493539500E0,8.240866591E-4,-1.112343743E-3,-2.411172092E-1,2.411211832E-1
4.503495500E0,-2.696103184E-5,-7.270816714E-4,-2.475022078E-1,2.475032772E-1
4.513451500E0,2.959241392E-3,-2.449347638E-3,-2.558160722E-1,2.558449124E-1
4.523407500E0,1.133343671E-3,3.648074344E-4,-2.543174624E-1,2.543202494E-1
4.533363500E0,2.386094537E-3,-1.015774906E-3,-2.536897361E-1,2.537029906E-1
4.543318500E0,4.315762315E-3,-3.137400374E-3,-2.537711561E-1,2.538272419E-1
4.553274500E0,2.467262326E-3,-5.693146959E-4,-2.561099529E-1,2.561224697E-1
4.563230500E0,2.862408757E-3,2.259723842E-4,-2.521989644E-1,2.522153090E-1
4.573186500E0,6.583767827E-4,-1.563405618E-3,-2.537989914E-1,2.538046606E-1
4.583142500E0,1.081952825E-3,-3.970204853E-3,-2.497781217E-1,2.498120158E-1
4.593098500E0,2.941638231E-3,-7.091639563E-4,-2.477088422E-1,2.477273231E-1
4.603054500E0,3.955491353E-3,-3.738255240E-3,-2.495177537E-1,2.495771021E-1
4.613010500E0,8.779423661E-4,-6.311461329E-4,-2.515361607E-1,2.515384847E-1
4.622966500E0,1.340266084E-3,-2.459399402E-4,-2.498782128E-1,2.498819282E-1
4.632922500E0,1.207374269E-3,-3.929464146E-4,-2.485136092E-1,2.485168528E-1
4.642878500E0,3.026833059E-3,-3.087121062E-3,-2.493988872E-1,2.494363585E-1
4.652834500E0,2.012434881E-3,-1.375507563E-3,-2.478947341E-1,2.479067186E-1
4.662790500E0,2.190236468E-3,-2.968313172E-3,-2.479766160E-1,2.480040526E-1
4.672746500E0,2.991257934E-4,3.726230934E-4,-2.503668070E-1,2.503672630E-1
4.682702500E0,4.922176711E-3,-3.121756949E-3,-2.581418455E-1,2.582076404E-1
4.692658500E0,1.667261356E-3,9.936261922E-4,-2.590811551E-1,2.590884250E-1
4.702614500E0,3.793675918E-3,-2.450682223E-4,-2.524042428E-1,2.524328699E-1
4.712570500E0,1.709219650E-3,-1.169984229E-3,-2.503717244E-1,2.503802921E-1
4.722526500E0,1.772241900E-3,-2.350918949E-4,-2.476705611E-1,2.476770133E-1
4.732482500E0,2.820195630E-3,-7.637292147E-4,-2.467991710E-1,2.468164654E-1
4.742437500E0,3.365822136E-3,-1.706421375E-3,-2.511188686E-1,2.511472214E-1
4.752393500E0,3.562629689E-3,-1.208410598E-3,-2.514962256E-1,2.515243608E-1
4.762349500E0,4.922607448E-3,9.992029518E-4,-2.513127625E-1,2.513629548E-1
4.772305500E0,2.639398444E-4,-2.677557059E-3,-2.522486150E-1,2.522629635E-1
4.782261500E0,2.224785509E-3,-2.074340358E-3,-2.501077652E-1,2.501262617E-1
4.792217500E0,1.498807920E-3,-4.929546267E-4,-2.489397079E-1,2.489447079E-1
4.802173500E0,1.943530980E-3,-8.864607662E-5,-2.464379519E-1,2.464456316E-1
4.812129500E0,1.597319962E-3,-8.106287569E-4,-2.457958609E-1,2.458023877E-1
4.822085500E0,3.093117266E-4,2.651726827E-4,-2.491329759E-1,2.491333091E-1
4.832041500E0,2.275523497E-3,-1.143638976E-3,-2.540441155E-1,2.540568806E-1
4.841997500E0,5.101263057E-3,-1.200977713E-4,-2.584351301E-1,2.584855002E-1
4.851953500E0,1.833298244E-3,-5.675088614E-4,-2.581626773E-1,2.581698104E-1
4.861909500E0,2.523297444E-3,1.956884749E-3,-2.596201599E-1,2.596397963E-1
4.871865500E0,4.346497357E-3,7.190471515E-4,-2.536182106E-1,2.536564720E-1
4.881821500E0,4.063189263E-4,2.659069374E-3,-2.445449829E-1,2.445597768E-1
4.891777500E0,1.224175678E-3,-1.902659424E-3,-2.414104342E-1,2.414210357E-1
4.901733500E0,2.751298016E-3,-1.088325866E-3,-2.447691113E-1,2.447869930E-1
4.911689500E0,2.829595003E-3,-2.067569643E-3,-2.498115301E-1,2.498361103E-1
4.921645500E0,9.723135736E-4,-1.438290812E-3,-2.575280666E-1,2.575339185E-1
4.931600500E0,2.066872781E-3,9.939745069E-4,-2.578106225E-1,2.578208234E-1
4.941556500E0,1.756921178E-3,-2.122018486E-5,-2.541125417E-1,2.541186161E-1
4.951512500E0,1.674363157E-3,-1.807436347E-4,-2.510371506E-1,2.510427994E-1
4.961468500E0,2.045357367E-3,-6.819022819E-4,-2.491763383E-1,2.491856658E-1
4.971424500E0,1.793688629E-3,1.686980017E-3,-2.478977442E-1,2.479099732E-1
4.981380500E0,5.373161985E-4,-1.069709659E-3,-2.520627379E-1,2.520655804E-1
4.991336500E0,1.195116900E-3,-9.916797280E-4,-2.521421015E-1,2.521468840E-1
5.001292500E0,3.899511881E-3,-3.902334720E-4,-2.475995123E-1,2.476305251E-1
5.011248500E0,3.335986985E-3,-2.741804346E-3,-2.442045212E-1,2.442426958E-1
5.021204500E0,1.629363280E-3,-1.873341389E-3,-2.445081472E-1,2.445207523E-1
5.031160500E0,-1.685206895E-3,-2.436334267E-3,-2.475856990E-1,2.476034208E-1
5.041116500E0,2.706082072E-3,-2.755119465E-3,-2.547245026E-1,2.547537748E-1
5.051072500E0,-1.179203391E-3,-2.195590176E-3,-2.566411793E-1,2.566532799E-1
5.061028500E0,1.540170284E-3,-2.356264740E-4,-2.566433847E-1,2.566481143E-1
5.070984500E0,1.071187668E-3,2.160454169E-4,-2.570779920E-1,2.570803144E-1
5.080940500E0,1.504973276E-3,-8.758269250E-4,-2.523260713E-1,2.523320793E-1
5.090896500E0,-5.750329001E-5,-2.305423841E-4,-2.497121692E-1,2.497122822E-1
5.100852500E0,3.522516927E-3,-7.363120094E-4,-2.515917718E-1,2.516175072E-1
5.110808500E0,2.099856269E-3,-1.203222200E-4,-2.558592260E-1,2.558678710E-1
5.120764000E0,-1.782344771E-3,1.196935773E-5,-2.587304413E-1,2.587365807E-1
5.130719000E0,2.192423213E-3,-1.379265450E-3,-2.585200369E-1,2.585330126E-1
5.140675000E0,1.519202720E-3,1.039991155E-3,-2.516519129E-1,2.516586475E-1
5.150631000E0,1.803894644E-3,-1.772839576E-3,-2.475322634E-1,2.475451846E-1
5.160587000E0,1.681910362E-3,-1.374874264E-4,-2.461925894E-1,2.461983729E-1
5.170543000E0,3.668894758E-3,-2.428604290E-3,-2.469137758E-1,2.469529744E-1
5.180499000E0,1.457626931E-3,-2.283819020E-3,-2.496386170E-1,2.496533189E-1
5.190455000E0,3.105591051E-3,-9.405203164E-4,-2.533473372E-1,2.533681167E-1
5.200411000E0,4.988355096E-3,-9.715333581E-4,-2.547739744E-1,2.548246566E-1
5.210367000E0,2.713216469E-3,-8.223969489E-4,-2.518892288E-1,2.519051835E-1
5.220323000E0,2.462042961E-3,-4.939446226E-4,-2.438088655E-1,2.438217967E-1
5.230279000E0,2.339005005E-3,-2.531263046E-3,-2.456914485E-1,2.457156203E-1
5.240235000E0,1.070209313E-3,-3.350576386E-3,-2.469829619E-1,2.470080063E-1
5.250191000E0,3.480902640E-3,-4.046194255E-3,-2.600564361E-1,2.601112037E-1
5.260147000E0,2.071416937E-3,-1.477876678E-3,-2.618716657E-1,2.618840281E-1
5.270103000E0,4.825125448E-3,5.586426705E-4,-2.602221072E-1,2.602674374E-1
5.280059000E0,1.151409931E-3,-2.264326438E-3,-2.523638904E-1,2.523766750E-1
5.290015000E0,2.207087120E-3,-1.128221862E-3,-2.410193533E-1,2.410320990E-1
5.299971000E0,8.819188224E-4,-2.589220181E-3,-2.376956493E-1,2.377113870E-1
5.309927000E0,-2.161024604E-4,8.294796571E-4,-2.398706526E-1,2.398721841E-1
5.319883000E0,2.149211476E-3,7.872488350E-4,-2.464770973E-1,2.464877245E-1
5.329838000E0,5.126990727E-4,-9.692087770E-5,-2.556886971E-1,2.556892295E-1
5.339794000E0,2.398812911E-3,-1.876343973E-3,-2.611365318E-1,2.611542901E-1
5.349750000E0,2.044612542E-3,-1.780736260E-3,-2.567631006E-1,2.567774159E-1
5.359706000E0,2.290713368E-3,-2.587225288E-3,-2.490215600E-1,2.490455348E-1
5.369662000E0,8.321920177E-5,-1.807718538E-3,-2.410744131E-1,2.410812050E-1
5.379618000E0,-6.077414146E-4,-2.732787281E-3,-2.442237735E-1,2.442398186E-1
5.389574000E0,2.757961396E-3,-1.244861633E-4,-2.500912547E-1,2.501064924E-1
5.399530000E0,1.813972136E-3,-3.128287382E-3,-2.587627172E-1,2.587879837E-1
5.409486000E0,2.723974176E-3,8.893571794E-4,-2.561642826E-1,2.561803089E-1
5.419442000E0,1.439711545E-3,1.190807670E-3,-2.562670708E-1,2.562738815E-1
5.429398000E0,2.008030191E-3,-3.002956510E-4,-2.520086765E-1,2.520168554E-1
5.439354000E0,2.679028257E-4,-1.490497030E-3,-2.430083305E-1,2.430130491E-1
5.449310000E0,4.344137385E-3,-1.945631579E-3,-2.403550297E-1,2.404021575E-1
5.459266000E0,1.392340171E-3,-2.479161136E-3,-2.459898889E-1,2.460063217E-1
5.469222000E0,2.485567704E-3,-8.831294253E-4,-2.533790767E-1,2.533928067E-1
5.479178000E0,4.529206781E-4,3.678118810E-4,-2.613602877E-1,2.613609389E-1
5.489134000E0,2.424991457E-3,1.103110611E-3,-2.611094117E-1,2.611230023E-1
5.499090000E0,8.361315122E-5,-2.809999511E-3,-2.534731627E-1,2.534887518E-1
5.509046000E0,4.638683982E-3,-2.338885330E-3,-2.490064949E-1,2.490606799E-1
5.519002000E0,2.772443229E-3,-1.765517518E-3,-2.432162464E-1,2.432384550E-1
5.528957000E0,-1.210813643E-4,-3.778601065E-3,-2.499559075E-1,2.499844958E-1
5.538913000E0,2.584116533E-3,-4.805196077E-4,-2.578613460E-1,2.578747415E-1
5.548869000E0,2.385711065E-3,1.423936337E-4,-2.676154673E-1,2.676261389E-1
5.558825000E0,2.941056387E-3,1.297351904E-3,-2.665164471E-1,2.665358315E-1
5.568781000E0,5.084901117E-3,1.870463602E-3,-2.574297488E-1,2.574867577E-1
5.578737000E0,3.025761573E-3,-1.071238890E-3,-2.443944067E-1,2.444154840E-1
5.588693000E0,1.532527385E-3,-3.271522000E-4,-2.394409329E-1,2.394460607E-1
5.598649000E0,5.968349287E-4,-1.821738668E-3,-2.445890605E-1,2.445965729E-1
5.608605000E0,3.237358993E-3,-1.375925727E-3,-2.582198977E-1,2.582438562E-1
5.618561000E0,2.247886732E-3,1.160189509E-3,-2.636867464E-1,2.636988799E-1
5.628517000E0,1.807666151E-3,-6.704675034E-4,-2.600973547E-1,2.601045003E-1
5.638473000E0,2.520935610E-3,-5.167396739E-4,-2.494633198E-1,2.494765922E-1
5.648429000E0,-4.594078055E-4,-3.130082041E-4,-2.395331860E-1,2.395338310E-1
5.658385000E0,-3.146399395E-4,-2.679472789E-3,-2.359926403E-1,2.360080609E-1
5.668341000E0,2.427596482E-4,-2.950849012E-3,-2.435072809E-1,2.435252807E-1
5.678297000E0,1.038814080E-3,-2.682967111E-3,-2.566206753E-1,2.566368026E-1
5.688253000E0,3.660962451E-3,9.426604956E-4,-2.655609250E-1,2.655878313E-1
5.698209000E0,1.475169440E-3,-9.251106530E-4,-2.637145817E-1,2.637203302E-1
5.708165000E0,2.782515250E-3,-1.360802911E-3,-2.583230138E-1,2.583415832E-1
5.718120000E0,7.181641995E-4,-1.360366121E-3,-2.475308329E-1,2.475356128E-1
5.728076000E0,-1.054702094E-3,-7.853899151E-4,-2.418436557E-1,2.418472308E-1
5.738032000E0,2.430463908E-3,-1.816011965E-3,-2.422251701E-1,2.422441704E-1
5.747988000E0,1.146021299E-3,-1.637579873E-3,-2.493035793E-1,2.493115916E-1
5.757944000E0,2.369232476E-3,1.559481025E-4,-2.560611963E-1,2.560722044E-1
5.767900000E0,2.622765489E-3,-1.724194735E-4,-2.604783177E-1,2.604915788E-1
5.777856000E0,2.782581840E-3,-1.892011613E-3,-2.546851933E-1,2.547074207E-1
5.787812000E0,3.851574846E-3,-7.130308077E-4,-2.498294413E-1,2.498601465E-1
5.797768000E0,-1.465527923E-3,-1.010424457E-3,-2.412105352E-1,2.412171035E-1
5.807724000E0,4.932270385E-4,-2.053583972E-3,-2.410137206E-1,2.410229740E-1
5.817680000E0,7.323878817E-4,-2.912456170E-3,-2.512817085E-1,2.512996534E-1
5.827636000E0,4.768941086E-3,5.658986047E-4,-2.630696297E-1,2.631134605E-1
5.837592000E0,2.900287509E-3,2.070559189E-3,-2.650122643E-1,2.650362222E-1
5.847548000E0,2.065120265E-3,-6.016567349E-4,-2.612982392E-1,2.613070924E-1
5.857504000E0,7.885243976E-4,-2.300021239E-3,-2.501856685E-1,2.501974832E-1
5.867460000E0,5.917167873E-4,-3.024400212E-3,-2.425519824E-1,2.425715591E-1
5.877416000E0,3.474754281E-3,-2.797207795E-3,-2.355044782E-1,2.355467205E-1
5.887372000E0,1.494161319E-3,-3.659273498E-3,-2.427083254E-1,2.427405076E-1
5.897328000E0,2.341991989E-3,-3.156801686E-3,-2.566174865E-1,2.566475885E-1
5.907284000E0,3.987825476E-3,1.969516277E-3,-2.650884688E-1,2.651257778E-1
5.917240000E0,2.274731232E-4,-7.783202454E-4,-2.627527118E-1,2.627539630E-1
5.927195000E0,3.678130917E-3,-1.538652927E-3,-2.536287308E-1,2.536600662E-1
5.937151000E0,4.963141982E-4,-2.574574202E-3,-2.459363043E-1,2.459502806E-1
5.947107000E0,-1.868839143E-3,-7.764091715E-4,-2.444526553E-1,2.444610318E-1
5.957063000E0,1.198552316E-3,-4.601432011E-4,-2.536391914E-1,2.536424406E-1
5.967019000E0,-4.354590783E-5,1.184624620E-3,-2.611564994E-1,2.611591898E-1
5.976975000E0,1.942122821E-3,-4.126559943E-4,-2.605971992E-1,2.606047627E-1
5.986931000E0,2.964776708E-3,-1.961549744E-3,-2.552695572E-1,2.552943094E-1
5.996887000E0,1.792038791E-3,-2.001519315E-3,-2.469169497E-1,2.469315645E-1
6.006843000E0,3.687410615E-3,-5.655428395E-4,-2.414579988E-1,2.414868154E-1
6.016799000E0,1.757334336E-3,-2.257384360E-3,-2.423173487E-1,2.423342351E-1
6.026755000E0,2.373323543E-3,-1.646988094E-3,-2.507260144E-1,2.507426560E-1
6.036711000E0,2.075035591E-3,-2.797585912E-3,-2.632370293E-1,2.632600727E-1
6.046667000E0,7.354656118E-4,-2.485997044E-3,-2.672589421E-1,2.672715159E-1
6.056623000E0,2.780945273E-3,2.187569626E-3,-2.604198754E-1,2.604439107E-1
6.066579000E0,-5.645177444E-4,-2.699596807E-3,-2.490069270E-1,2.490222002E-1
6.076535000E0,-1.580991666E-4,-2.773770131E-3,-2.399574518E-1,2.399735350E-1
6.086491000E0,1.169486670E-3,-7.399143651E-4,-2.403795570E-1,2.403835406E-1
6.096447000E0,2.118051983E-3,-2.032462507E-3,-2.483328432E-1,2.483501924E-1
6.106403000E0,2.666929271E-3,1.024047844E-3,-2.570634782E-1,2.570793516E-1
6.116358000E0,2.068686299E-3,-2.783266827E-4,-2.626125813E-1,2.626208765E-1
6.126313250E0,3.107585479E-3,1.172297634E-3,-2.598945498E-1,2.599157718E-1
6.136269250E0,2.024293179E-3,-1.399299130E-3,-2.495707422E-1,2.495828744E-1
6.146225250E0,4.695709795E-3,-2.392925322E-3,-2.379700094E-1,2.380283621E-1
6.156181250E0,5.322428420E-3,-1.863376237E-3,-2.380756438E-1,2.381424208E-1
6.166137250E0,8.372424054E-5,-5.043651909E-4,-2.469285280E-1,2.469290572E-1
6.176093250E0,-6.400811835E-4,-1.617277041E-3,-2.577514350E-1,2.577573036E-1
6.186049250E0,5.279593170E-3,8.980790153E-4,-2.603290975E-1,2.603841771E-1
6.196005250E0,5.074198358E-3,-2.862503752E-4,-2.576537132E-1,2.577038327E-1
6.205961250E0,2.766568912E-3,-1.139527187E-3,-2.543103993E-1,2.543280001E-1
6.215917250E0,2.882546745E-3,-2.053271048E-3,-2.482003123E-1,2.482255426E-1
6.225873250E0,3.576566465E-3,1.779254526E-4,-2.460812330E-1,2.461072870E-1
6.235829250E0,3.102080198E-3,-1.186966896E-3,-2.488242835E-1,2.488464503E-1
6.245785250E0,1.421891851E-3,1.744413748E-4,-2.540211678E-1,2.540252072E-1
6.255741250E0,3.184114583E-3,7.073991001E-4,-2.578437328E-1,2.578643627E-1
6.265697250E0,3.478660248E-3,8.501857519E-5,-2.573781908E-1,2.574017121E-1
6.275653250E0,-5.960464478E-8,1.104036346E-3,-2.488263547E-1,2.488288040E-1
6.285609250E0,-7.561310194E-4,-2.140225843E-3,-2.405063510E-1,2.405170621E-1
6.295565250E0,-1.777422149E-4,-2.802476287E-3,-2.406251729E-1,2.406415577E-1
6.305521250E0,1.644126256E-3,4.060994834E-4,-2.483896166E-1,2.483953899E-1
6.315477250E0,4.349260591E-3,-1.438449137E-3,-2.552486062E-1,2.552897103E-1
6.325432250E0,2.356417477E-3,-2.048845403E-3,-2.605946362E-1,2.606133436E-1
6.335388250E0,1.807760098E-3,-4.573948681E-4,-2.583327889E-1,2.583395189E-1
6.345344250E0,2.932679374E-3,-1.310138963E-3,-2.540885210E-1,2.541088223E-1
6.355300250E0,9.121457697E-4,-3.252327442E-4,-2.505322099E-1,2.505340815E-1
6.365256250E0,2.201382071E-3,-2.564684488E-3,-2.522584796E-1,2.522811214E-1
6.375212250E0,5.868006265E-4,-5.190316588E-4,-2.574057281E-1,2.574069202E-1
6.385168250E0,2.510934602E-3,7.085874677E-5,-2.621541321E-1,2.621661664E-1
6.395124250E0,3.507348010E-3,1.002883539E-3,-2.590340078E-1,2.590596928E-1
6.405080250E0,1.084936783E-3,-1.791837625E-3,-2.483121455E-1,2.483209805E-1
6.415036250E0,3.553021466E-3,-2.486796118E-3,-2.449053377E-1,2.449437334E-1
6.424992250E0,1.306645107E-3,-1.125121489E-3,-2.417793125E-1,2.417854610E-1
6.434948250E0,2.493338892E-3,-1.067338511E-3,-2.498428375E-1,2.498575582E-1
6.444904250E0,-2.116336836E-4,-7.264539599E-4,-2.605735362E-1,2.605746347E-1
6.454860250E0,4.869793192E-4,-1.499292441E-3,-2.646883726E-1,2.646930668E-1
6.464816250E0,2.483284799E-3,-1.107540913E-3,-2.594882846E-1,2.595025302E-1
6.474772250E0,1.648900216E-3,1.442115754E-4,-2.512322366E-1,2.512376890E-1
6.484728250E0,2.185527235E-3,-2.338120714E-3,-2.417034209E-1,2.417246098E-1
6.494684250E0,2.992470283E-3,-3.719810396E-3,-2.347780764E-1,2.348266106E-1
6.504640250E0,2.076875418E-3,-1.119232737E-3,-2.427827418E-1,2.427942046E-1
6.514596250E0,9.419440175E-4,-1.691407524E-3,-2.578993738E-1,2.579066403E-1
6.524551250E0,5.031494424E-3,1.165631227E-3,-2.713329196E-1,2.713820699E-1
6.534507250E0,2.864774782E-3,2.067195252E-3,-2.674570382E-1,2.674803684E-1
6.544463250E0,1.520410995E-3,-6.564194337E-4,-2.587873936E-1,2.587926923E-1
6.554419250E0,7.264778833E-4,-1.686296426E-3,-2.432957590E-1,2.433026874E-1
6.564375250E0,7.339347503E-4,-2.580434084E-4,-2.386861145E-1,2.386873824E-1
6.574331250E0,1.164914342E-3,-1.772118732E-3,-2.377764285E-1,2.377858855E-1
6.584287250E0,3.268811386E-3,-8.011301979E-4,-2.492959350E-1,2.493186519E-1
6.594243250E0,1.517528726E-4,-1.070339233E-3,-2.590766251E-1,2.590788805E-1
6.604199250E0,3.945159726E-3,7.696384564E-4,-2.669491768E-1,2.669794367E-1
6.614155250E0,2.756762318E-3,-1.397062093E-3,-2.616783082E-1,2.616965581E-1
6.624111250E0,-1.103969407E-4,-1.246044412E-4,-2.520328760E-1,2.520329310E-1
6.634067250E0,2.918169135E-3,-3.809140064E-3,-2.456889451E-1,2.457357991E-1
6.644023250E0,-7.559279329E-4,-1.208296046E-3,-2.462375462E-1,2.462416711E-1
6.653979250E0,9.978181915E-4,-1.573390327E-3,-2.526946366E-1,2.527015049E-1
6.663935250E0,4.552871920E-3,5.526114255E-4,-2.599128485E-1,2.599533089E-1
6.673891250E0,2.846393734E-3,1.098295674E-3,-2.601432204E-1,2.601611104E-1
6.683847250E0,3.242139705E-3,5.673337728E-5,-2.554949224E-1,2.555154987E-1
6.693803250E0,2.746037673E-3,-1.550480723E-3,-2.479334325E-1,2.479534869E-1
6.703759250E0,1.495949924E-3,4.448648542E-5,-2.443251163E-1,2.443297000E-1
6.713715250E0,1.212952659E-3,2.666478977E-4,-2.444811910E-1,2.444843454E-1
6.723670250E0,1.282993820E-3,-3.253519535E-3,-2.498903424E-1,2.499148148E-1
6.733626250E0,4.831975966E-4,2.184279263E-3,-2.575498223E-1,2.575595379E-1
6.743582250E0,1.656053704E-3,-2.730190754E-4,-2.621951699E-1,2.622005419E-1
6.753538250E0,1.475036610E-3,-2.447793260E-3,-2.571437955E-1,2.571596760E-1
6.763494250E0,1.583960024E-3,-3.359066322E-4,-2.472831607E-1,2.472884618E-1
6.773450250E0,1.219276572E-3,9.489897639E-5,-2.431067675E-1,2.431098436E-1
6.783406250E0,1.926878584E-3,-1.453196630E-3,-2.461222559E-1,2.461340885E-1
6.793362250E0,8.872883045E-4,-1.412883401E-3,-2.518115044E-1,2.518170313E-1
6.803318250E0,9.402852156E-4,-9.132744744E-4,-2.590678334E-1,2.590711495E-1
6.813274250E0,1.371769002E-3,1.356492750E-3,-2.614782155E-1,2.614853322E-1
6.823230250E0,3.826670814E-3,-1.746090129E-3,-2.596299648E-1,2.596640346E-1
6.833186250E0,1.959474059E-3,-2.788397484E-3,-2.513183057E-1,2.513414122E-1
6.843142250E0,4.089816939E-4,-1.719937660E-3,-2.435024679E-1,2.435088855E-1
6.853098250E0,5.678452086E-3,1.063314267E-3,-2.448826432E-1,2.449507796E-1
6.863054250E0,1.023246557E-3,-4.799878225E-4,-2.463963777E-1,2.463989699E-1
6.873010250E0,1.403433736E-3,4.317983985E-4,-2.525799572E-1,2.525842253E-1
6.882966250E0,4.566470161E-3,-2.146674320E-3,-2.580053508E-1,2.580546878E-1
6.892922250E0,1.001446275E-3,-5.123224109E-4,-2.549657524E-1,2.549682338E-1
6.902878250E0,2.051530639E-3,-2.748045139E-3,-2.536522746E-1,2.536754559E-1
6.912834250E0,4.618835635E-3,-1.162393950E-3,-2.532874942E-1,2.533322710E-1
6.922790250E0,2.473659813E-3,1.038176008E-3,-2.555253506E-1,2.555394325E-1
6.932745250E0,2.510592807E-3,-2.465061843E-3,-2.537150681E-1,2.537394636E-1
6.942701250E0,2.259190427E-3,-3.838008270E-4,-2.478076518E-1,2.478182469E-1
6.952657250E0,2.700928831E-3,-1.087171957E-3,-2.506727576E-1,2.506896655E-1
6.962613250E0,8.891803445E-4,-2.726880834E-3,-2.518014014E-1,2.518177362E-1
6.972569250E0,2.161831129E-3,-6.368886679E-4,-2.503769696E-1,2.503871124E-1
6.982525250E0,9.202654473E-4,-1.164726913E-3,-2.466346771E-1,2.466391441E-1
6.992481250E0,3.367761150E-3,-6.032232195E-4,-2.515529394E-1,2.515762052E-1
7.002437250E0,2.770147752E-3,-4.929685965E-4,-2.530866265E-1,2.531022664E-1
7.012393250E0,-6.686500856E-4,-1.029388048E-3,-2.536771297E-1,2.536800995E-1
7.022349250E0,1.155881560E-3,7.852902636E-4,-2.498885095E-1,2.498924167E-1
7.032305250E0,1.239283709E-3,1.200052910E-3,-2.427092195E-1,2.427153501E-1
7.042261250E0,1.669650665E-3,2.668807283E-4,-2.437659651E-1,2.437718292E-1
7.052217250E0,2.484243363E-3,-9.881332517E-7,-2.463725656E-1,2.463850900E-1
7.062173250E0,2.293028403E-3,-9.267032146E-4,-2.559452653E-1,2.559572144E-1
7.072129250E0,1.032582950E-3,1.041226089E-3,-2.598790228E-1,2.598831601E-1
7.082085250E0,1.809427049E-3,-6.461516023E-6,-2.609504163E-1,2.609566896E-1
7.092041250E0,2.832070924E-3,-1.331451349E-3,-2.535011768E-1,2.535204924E-1
7.101997250E0,2.292514546E-3,-4.091989249E-4,-2.451066226E-1,2.451176850E-1
7.111953250E0,2.242402174E-3,-2.754237503E-4,-2.381948382E-1,2.382055523E-1
7.121909750E0,1.643457217E-3,-7.768971846E-4,-2.380390465E-1,2.380459876E-1
7.131865750E0,-2.615944832E-4,-2.874949947E-3,-2.493987232E-1,2.494154304E-1
7.141820750E0,1.268924214E-3,3.354912624E-4,-2.588990033E-1,2.589023303E-1
7.151776750E0,1.965612406E-3,4.570912570E-4,-2.603109777E-1,2.603188001E-1
7.161732750E0,2.505168784E-3,5.042292178E-4,-2.592464983E-1,2.592590925E-1
7.171688750E0,3.190743038E-3,-1.301378012E-3,-2.495301217E-1,2.495539141E-1
7.181644750E0,4.201412667E-3,-1.482206397E-3,-2.438482642E-1,2.438889599E-1
7.191600750E0,9.663621895E-4,-1.936373301E-3,-2.461162060E-1,2.461257205E-1
7.201556750E0,4.848452285E-3,-1.060992479E-3,-2.544409931E-1,2.544893950E-1
7.211512750E0,2.254228806E-3,-8.428245783E-4,-2.641029954E-1,2.641139604E-1
7.221468750E0,9.665904799E-4,-1.932792366E-4,-2.631762028E-1,2.631780488E-1
7.231424750E0,2.439456526E-3,3.517754376E-4,-2.524097562E-1,2.524217893E-1
7.241380750E0,4.248009063E-3,-9.680874646E-4,-2.405517697E-1,2.405912232E-1
7.251336750E0,2.275419887E-3,-1.186085865E-4,-2.413477302E-1,2.413584854E-1
7.261292750E0,-4.872074351E-5,-1.964977942E-3,-2.507055402E-1,2.507132453E-1
7.271248750E0,3.017852781E-3,-7.720375434E-4,-2.571581602E-1,2.571770263E-1
7.281204750E0,1.085729338E-3,5.819136277E-4,-2.588261068E-1,2.588290381E-1
7.291160750E0,1.330506057E-3,-2.940585837E-4,-2.539427876E-1,2.539464434E-1
7.301116750E0,2.391509479E-3,-1.219772734E-3,-2.493424416E-1,2.493568935E-1
7.311072750E0,1.779351151E-4,-1.119666733E-3,-2.457121462E-1,2.457147616E-1
7.321028750E0,2.362792380E-3,-4.935581237E-4,-2.472051233E-1,2.472169075E-1
7.330984750E0,5.181330722E-3,-2.134436741E-3,-2.542179525E-1,2.542797070E-1
7.340940750E0,-2.480559633E-4,1.497566700E-4,-2.610739768E-1,2.610741376E-1
7.350895750E0,2.852368634E-4,1.712943427E-3,-2.605611980E-1,2.605669845E-1
7.360851750E0,-3.392744111E-4,3.946786746E-4,-2.558135986E-1,2.558141281E-1
7.370807750E0,2.414882474E-4,-1.105202362E-3,-2.473281026E-1,2.473306898E-1
7.380763750E0,7.277814439E-4,-2.280986868E-3,-2.429666370E-1,2.429784338E-1
7.390719750E0,6.744128186E-4,-2.098526806E-3,-2.445048988E-1,2.445148343E-1
7.400675750E0,1.249122899E-3,-6.489688531E-4,-2.503041923E-1,2.503081504E-1
7.410631750E0,1.899677445E-4,2.241103910E-3,-2.529604137E-1,2.529704124E-1
7.420587750E0,-1.340817194E-3,2.889850177E-3,-2.571242452E-1,2.571439801E-1
7.430543750E0,-4.851722624E-4,1.684733666E-3,-2.531131506E-1,2.531192224E-1
7.440499750E0,5.356471986E-3,3.430340439E-4,-2.476984262E-1,2.477565737E-1
7.450455750E0,1.428417396E-3,2.744376659E-3,-2.370807230E-1,2.371009094E-1
7.460411750E0,1.619099756E-3,-1.416546293E-3,-2.375470698E-1,2.375568110E-1
7.470367750E0,1.010254375E-3,-1.749254763E-3,-2.485751063E-1,2.485833139E-1
7.480323750E0,4.173823632E-3,-3.891782835E-4,-2.615521550E-1,2.615857451E-1
7.490279750E0,3.622054821E-3,1.526352949E-3,-2.692404091E-1,2.692690976E-1
7.500235750E0,-2.338365884E-3,3.681443632E-4,-2.642608285E-1,2.642714305E-1
7.510191750E0,1.797471545E-3,3.875456750E-4,-2.533612251E-1,2.533678975E-1
7.520147750E0,2.556472551E-3,-2.180570737E-4,-2.458103597E-1,2.458237500E-1
7.530103750E0,-3.441956360E-4,-3.128020093E-3,-2.415644079E-1,2.415849047E-1
7.540059750E0,-3.793493379E-4,-2.324011177E-3,-2.437274307E-1,2.437388057E-1
7.550015750E0,3.586396109E-3,-1.606821083E-3,-2.529855072E-1,2.530160291E-1
7.559971750E0,4.695336334E-3,-1.058742404E-3,-2.587957382E-1,2.588404938E-1
7.569926750E0,2.910972573E-3,1.086021774E-3,-2.557848692E-1,2.558037383E-1
7.579882750E0,2.595121507E-3,-3.488892689E-4,-2.518316805E-1,2.518452932E-1
7.589838750E0,4.016270861E-3,-2.410704270E-3,-2.474188060E-1,2.474631437E-1
7.599794750E0,2.576832194E-3,-2.624822780E-3,-2.464941591E-1,2.465216020E-1
7.609750750E0,3.754508914E-3,-6.163474172E-4,-2.528918386E-1,2.529204583E-1
7.619706750E0,4.745596671E-4,-2.419041470E-3,-2.574112415E-1,2.574230453E-1
7.629662750E0,1.994463149E-3,-1.410110854E-3,-2.605455816E-1,2.605570309E-1
7.639618750E0,2.738550305E-3,-1.495331526E-3,-2.596523762E-1,2.596711230E-1
7.649574750E0,2.545754425E-3,-2.922834828E-4,-2.546355426E-1,2.546484358E-1
7.659530750E0,6.455890834E-4,-7.732501253E-4,-2.459430099E-1,2.459450727E-1
7.669486750E0,-9.805134032E-4,-1.340559684E-3,-2.395154685E-1,2.395212269E-1
7.679442750E0,1.327381935E-3,-4.675760865E-4,-2.401956320E-1,2.401997548E-1
7.689398750E0,1.094192034E-3,-1.611839980E-4,-2.501439452E-1,2.501463903E-1
7.699354750E0,3.207144327E-3,2.763420343E-5,-2.593672872E-1,2.593871165E-1
7.709310750E0,1.990622608E-3,1.480553299E-3,-2.617838085E-1,2.617955634E-1
7.719266750E0,2.402080921E-3,4.517734051E-4,-2.556034029E-1,2.556150888E-1
7.729222750E0,1.641861396E-3,4.533063620E-4,-2.474920601E-1,2.474979212E-1
7.739178750E0,1.828282722E-3,-1.543797553E-3,-2.491253763E-1,2.491368681E-1
7.749134750E0,1.406131429E-3,3.665480763E-4,-2.519135475E-1,2.519177385E-1
7.759090750E0,3.733467776E-3,5.481755361E-4,-2.567767501E-1,2.568044756E-1
7.769046750E0,3.104842966E-3,-1.500154845E-3,-2.613348663E-1,2.613576149E-1
7.779002750E0,1.780452905E-3,-1.620796509E-3,-2.550535202E-1,2.550648842E-1
7.788957750E0,4.804634955E-3,-2.212285995E-3,-2.499534786E-1,2.500094402E-1
7.798913750E0,3.573721740E-3,-1.025293022E-4,-2.437086254E-1,2.437348480E-1
7.808869750E0,4.808651283E-3,-1.769046299E-3,-2.460546941E-1,2.461080355E-1
7.818825750E0,4.697064403E-3,-1.300063916E-3,-2.540865242E-1,2.541332611E-1
7.828781750E0,-4.561716923E-5,-6.265994161E-4,-2.583518326E-1,2.583525965E-1
7.838737750E0,1.262261299E-3,-1.270552166E-3,-2.566916049E-1,2.566978528E-1
7.848693750E0,3.772157244E-3,-3.450838849E-4,-2.501676083E-1,2.501962839E-1
7.858649750E0,-2.334737685E-3,-1.027360559E-4,-2.413187176E-1,2.413300334E-1
7.868605750E0,1.138135092E-3,-7.670139894E-4,-2.433834076E-1,2.433872773E-1
7.878561750E0,-1.022221055E-3,-2.681293525E-3,-2.483784407E-1,2.483950162E-1
7.888517750E0,3.926617501E-4,1.100877300E-3,-2.567251623E-1,2.567278229E-1
7.898473750E0,6.130442489E-3,-1.332452521E-3,-2.597129643E-1,2.597887249E-1
7.908429750E0,2.076394390E-3,-3.461055458E-4,-2.572621703E-1,2.572707824E-1
7.918385750E0,2.031919546E-3,-1.761959866E-4,-2.478561848E-1,2.478645761E-1
7.928341750E0,3.635405796E-3,-2.711439505E-3,-2.413185090E-1,2.413611213E-1
7.938297750E0,3.410901409E-3,-3.695210442E-3,-2.407363504E-1,2.407888686E-1
7.948253750E0,5.132964347E-3,-3.035301343E-4,-2.488051951E-1,2.488583223E-1
7.958209750E0,-8.976104436E-5,1.151621342E-3,-2.523730099E-1,2.523756534E-1
7.968165750E0,9.457736742E-4,-6.787925959E-4,-2.544677556E-1,2.544704184E-1
7.978121750E0,-2.361694351E-5,-2.694806084E-3,-2.522200346E-1,2.522344314E-1
7.988077750E0,1.177001977E-3,-1.911398955E-3,-2.545895278E-1,2.545994235E-1
7.998033750E0,1.207894646E-3,-1.324971206E-3,-2.526595592E-1,2.526659206E-1
8.007988750E0,1.080072718E-3,-4.532514140E-4,-2.521285713E-1,2.521312921E-1
8.017944750E0,2.955737058E-3,-2.679387107E-3,-2.512417436E-1,2.512734152E-1
8.027900750E0,2.035039943E-3,-1.607385464E-3,-2.551599741E-1,2.551731519E-1
8.037856750E0,4.373827949E-3,-8.510472253E-4,-2.620913684E-1,2.621292430E-1
8.047812750E0,2.700948622E-3,3.540106118E-4,-2.650480270E-1,2.650620250E-1
8.057768750E0,1.298261690E-3,-1.330705360E-3,-2.560553253E-1,2.560620742E-1
8.067724750E0,2.091903938E-3,1.001273282E-3,-2.490602285E-1,2.490710260E-1
8.077680750E0,1.974724932E-3,-9.636068717E-4,-2.437956929E-1,2.438055946E-1
8.087636750E0,3.669991158E-3,-7.652509958E-4,-2.429915667E-1,2.430204846E-1
8.097592750E0,3.148544114E-3,-2.100027166E-3,-2.439391166E-1,2.439684735E-1
8.107548750E0,2.519283909E-3,1.428274438E-3,-2.494570166E-1,2.494738260E-1
8.117504750E0,1.133374870E-3,-2.875998616E-4,-2.562595308E-1,2.562621985E-1
8.127460833E0,8.289450197E-4,-1.155357808E-3,-2.550797760E-1,2.550837395E-1
8.137416833E0,1.148258103E-3,1.834137365E-4,-2.539527118E-1,2.539553740E-1
8.147372833E0,2.488610335E-3,1.834016293E-4,-2.515354156E-1,2.515477930E-1
8.157328833E0,2.760252682E-3,-3.303224221E-4,-2.497351170E-1,2.497505891E-1
8.167284833E0,3.050833475E-4,2.442561090E-4,-2.522264719E-1,2.522267747E-1
8.177240833E0,3.898752853E-3,9.667715058E-4,-2.548696697E-1,2.549013210E-1
8.187196833E0,4.737226292E-3,-3.653895110E-4,-2.545717657E-1,2.546161006E-1
8.197152833E0,3.570761764E-3,-1.845841296E-3,-2.534992993E-1,2.535311661E-1
8.207108833E0,4.645036533E-3,-9.773708880E-4,-2.524162829E-1,2.524609108E-1
8.217064833E0,2.692939481E-3,-1.467126422E-3,-2.511885762E-1,2.512072953E-1
8.227019833E0,2.366265748E-3,3.260374069E-4,-2.485541403E-1,2.485656175E-1
8.236975833E0,2.646963112E-3,-3.439140506E-3,-2.481032610E-1,2.481412143E-1
8.246931833E0,4.332777578E-3,-1.109347679E-3,-2.465675324E-1,2.466080933E-1
8.256887833E0,1.425404451E-3,6.645834073E-4,-2.507124841E-1,2.507174169E-1
8.266843833E0,2.695482690E-3,3.263263032E-3,-2.534564435E-1,2.534917815E-1
8.276799833E0,2.103994600E-3,2.581523731E-4,-2.517003417E-1,2.517092677E-1
8.286755833E0,3.015777096E-3,4.633627832E-4,-2.488530427E-1,2.488717471E-1
8.296711833E0,2.050913870E-3,-4.343688488E-5,-2.465541959E-1,2.465627296E-1
8.306667833E0,3.236308461E-3,-1.819684170E-3,-2.492953092E-1,2.493229555E-1
8.316623833E0,5.164220929E-4,-4.063444212E-4,-2.537377179E-1,2.537385688E-1
8.326579833E0,1.455141464E-3,-2.945121378E-5,-2.577722073E-1,2.577763161E-1
8.336535833E0,1.119583263E-3,1.462184824E-3,-2.602159083E-1,2.602224248E-1
8.346491833E0,4.637988750E-3,6.300834939E-4,-2.556678951E-1,2.557107360E-1
8.356447833E0,7.199929678E-5,-2.849791199E-4,-2.472334057E-1,2.472335804E-1
8.366403833E0,4.596959800E-3,-9.058322757E-4,-2.427474856E-1,2.427926983E-1
8.376359833E0,3.583360929E-3,-2.958063968E-3,-2.425101995E-1,2.425547103E-1
8.386315833E0,3.042660654E-3,-6.443923339E-4,-2.561037838E-1,2.561226681E-1
8.396271833E0,2.489522099E-3,4.522977397E-4,-2.694014907E-1,2.694133729E-1
8.406227833E0,2.542124130E-3,6.605712697E-4,-2.710680366E-1,2.710807614E-1
8.416183833E0,7.202556590E-4,3.020092845E-5,-2.589461207E-1,2.589471242E-1
8.426139833E0,2.028648043E-3,2.269558609E-4,-2.414796948E-1,2.414883226E-1
8.436095833E0,2.809486818E-3,-8.593471721E-4,-2.337874323E-1,2.338058921E-1
8.446050833E0,2.402367769E-3,-3.396527842E-3,-2.421778589E-1,2.422135899E-1
8.456006833E0,1.113664242E-3,-5.421517417E-4,-2.586239576E-1,2.586269237E-1
8.465962833E0,5.981638096E-3,3.617666662E-4,-2.722690105E-1,2.723349500E-1
8.475918833E0,1.156256301E-3,2.361001447E-3,-2.672766447E-1,2.672895734E-1
8.485874833E0,1.249463065E-3,1.377016306E-3,-2.498623878E-1,2.498693062E-1
8.495830833E0,7.533162134E-4,-1.735153608E-3,-2.356216609E-1,2.356292540E-1
8.505786833E0,1.524806721E-3,-1.991861500E-3,-2.317383438E-1,2.317519203E-1
8.515742833E0,4.012998194E-3,-1.200370491E-3,-2.472608387E-1,2.472963150E-1
8.525698833E0,1.233498566E-3,3.655785695E-4,-2.632358670E-1,2.632390109E-1
8.535654833E0,1.159995329E-3,1.625253819E-3,-2.730176449E-1,2.730249466E-1
8.545610833E0,1.766474219E-3,3.797123209E-4,-2.645977437E-1,2.646039127E-1
8.555566833E0,2.579537220E-3,-5.665086210E-4,-2.491136044E-1,2.491276036E-1
8.565522833E0,4.646949004E-3,-4.284195602E-4,-2.334762365E-1,2.335228697E-1
8.575478833E0,9.315727511E-4,-1.443350688E-3,-2.309153378E-1,2.309217277E-1
8.585434833E0,2.897745231E-3,1.337576658E-3,-2.420186996E-1,2.420397426E-1
8.595390833E0,2.888690447E-3,1.435314305E-3,-2.542929351E-1,2.543133923E-1
8.605346833E0,1.302631339E-3,1.538684592E-4,-2.665081322E-1,2.665113601E-1
8.615302833E0,1.713290811E-3,2.402109094E-3,-2.636780143E-1,2.636945216E-1
8.625258833E0,3.320529591E-3,-3.679719754E-3,-2.519032657E-1,2.519520223E-1
8.635214833E0,1.602524193E-3,-6.381226704E-4,-2.393869460E-1,2.393931603E-1
8.645170833E0,2.184724668E-3,-2.207344398E-3,-2.344619185E-1,2.344824868E-1
8.655126833E0,7.708523190E-4,-1.814765856E-4,-2.389107347E-1,2.389120472E-1
8.665081833E0,3.383023664E-3,-4.506049678E-3,-2.500553429E-1,2.501188195E-1
8.675037833E0,1.333721215E-3,-1.834899187E-3,-2.620456815E-1,2.620554996E-1
8.684993833E0,7.960145595E-4,-4.689032212E-4,-2.639127076E-1,2.639143246E-1
8.694949833E0,2.008285373E-3,-1.057330519E-5,-2.586212754E-1,2.586290730E-1
8.704905833E0,2.212619409E-3,-2.402685583E-3,-2.457883358E-1,2.458100376E-1
8.714861833E0,2.355364617E-3,-1.921451651E-3,-2.377197742E-1,2.377392075E-1
8.724817833E0,3.129819641E-3,-2.827814780E-3,-2.392827272E-1,2.393199028E-1
8.734773833E0,2.757776063E-3,-4.634615034E-4,-2.536182702E-1,2.536336868E-1
8.744729833E0,8.574173553E-4,1.465104520E-3,-2.645967007E-1,2.646021461E-1
8.754685833E0,2.263033763E-3,2.184957266E-3,-2.698290050E-1,2.698473407E-1
8.764641833E0,1.690106466E-3,4.368824884E-4,-2.633184493E-1,2.633242356E-1
8.774597833E0,2.123935381E-3,-8.646035567E-4,-2.561473548E-1,2.561576195E-1
8.784553833E0,1.382965245E-3,-1.437658444E-3,-2.462085038E-1,2.462165852E-1
8.794509833E0,1.575245522E-3,-1.604372635E-3,-2.462884039E-1,2.462986668E-1
8.804465833E0,1.975761261E-3,-2.734337002E-3,-2.438460737E-1,2.438694075E-1
8.814421833E0,3.939842805E-3,-1.169197261E-3,-2.558332384E-1,2.558662448E-1
8.824377833E0,2.416577656E-3,2.481403761E-3,-2.613708377E-1,2.613937872E-1
8.834333833E0,1.613368280E-3,1.216402277E-3,-2.608360946E-1,2.608439205E-1
8.844289833E0,-1.501595136E-3,-1.995870844E-4,-2.511520982E-1,2.511566663E-1
8.854245833E0,3.036697628E-3,5.929693580E-4,-2.385409474E-1,2.385610126E-1
8.864201833E0,2.566604875E-3,-4.686994478E-3,-2.371193022E-1,2.371795076E-1
8.874156833E0,6.917396095E-4,-1.856321469E-3,-2.458004057E-1,2.458083886E-1
8.884112833E0,3.033234039E-3,-9.687775746E-4,-2.543593049E-1,2.543792347E-1
8.894068833E0,5.393593572E-3,1.640321687E-3,-2.641663849E-1,2.642265324E-1
8.904024833E0,1.658456749E-3,-2.214601263E-4,-2.621672153E-1,2.621725545E-1
8.913980833E0,2.262461698E-3,-1.279533841E-3,-2.536389828E-1,2.536523004E-1
8.923936833E0,1.687541138E-3,-5.089500919E-4,-2.421996593E-1,2.422060730E-1
8.933892833E0,2.559460001E-3,-3.021376207E-3,-2.384414077E-1,2.384742847E-1
8.943848833E0,3.082698677E-3,-6.618332118E-4,-2.458191514E-1,2.458393708E-1
8.953804833E0,2.911190968E-3,-1.914318651E-3,-2.559298277E-1,2.559535433E-1
8.963760833E0,1.662386581E-3,-1.832246780E-3,-2.602219880E-1,2.602337482E-1
8.973716833E0,-6.851899088E-4,8.881725371E-4,-2.566080689E-1,2.566105208E-1
8.983672833E0,2.545427065E-3,8.827336133E-4,-2.468795329E-1,2.468942328E-1
8.993628833E0,1.360586844E-3,-2.305069938E-3,-2.411228418E-1,2.411376980E-1
9.003584833E0,-7.856255397E-4,-7.758494467E-4,-2.427133620E-1,2.427158735E-1
9.013540833E0,1.050624065E-3,-5.067046732E-5,-2.545660138E-1,2.545681869E-1
9.023496833E0,2.755106194E-3,-4.841471091E-4,-2.631765008E-1,2.631913668E-1
9.033452833E0,-5.919545656E-4,-7.307557389E-4,-2.619448006E-1,2.619464888E-1
9.043408833E0,1.588242594E-3,2.353480086E-4,-2.562963963E-1,2.563014254E-1
9.053364833E0,3.248989815E-3,-1.632327214E-3,-2.477095723E-1,2.477362562E-1
9.063320833E0,3.164766589E-3,-1.208795235E-3,-2.420345098E-1,2.420582179E-1
9.073276833E0,1.574593247E-3,-2.101220191E-3,-2.407016009E-1,2.407159221E-1
9.083232833E0,2.462885343E-3,-6.387345493E-4,-2.473452389E-1,2.473583251E-1
9.093187833E0,5.880520213E-3,-4.238178954E-4,-2.565839887E-1,2.566517161E-1
9.103143833E0,-1.485736575E-3,2.826973796E-4,-2.623101771E-1,2.623145370E-1
9.113099833E0,1.306854072E-3,-1.548593864E-4,-2.619093657E-1,2.619126718E-1
9.123055833E0,9.382050484E-4,-1.212703995E-3,-2.555423975E-1,2.555469972E-1
9.133011625E0,2.733708359E-3,6.395243108E-4,-2.483340204E-1,2.483498899E-1
9.142967625E0,1.668872661E-3,-7.900316268E-4,-2.440982312E-1,2.441052145E-1
9.152923625E0,3.249192378E-3,-1.555956900E-3,-2.504093945E-1,2.504353072E-1
9.162879625E0,8.618270513E-4,-3.876816481E-5,-2.595937848E-1,2.595952183E-1
9.172835625E0,3.787309630E-3,4.272852093E-4,-2.681452036E-1,2.681722888E-1
9.182791625E0,1.341014635E-3,-3.402475268E-4,-2.634259462E-1,2.634295793E-1
9.192747625E0,-9.213406593E-4,1.661665738E-5,-2.520702183E-1,2.520719027E-1
9.202703625E0,2.862705849E-3,-1.384544186E-3,-2.412262708E-1,2.412472296E-1
9.212659625E0,2.370553557E-3,1.696767285E-4,-2.420435995E-1,2.420552672E-1
9.222615625E0,3.433527425E-3,-1.975300722E-3,-2.449662983E-1,2.449983229E-1
9.232571625E0,9.847509209E-4,-3.647499718E-3,-2.548040152E-1,2.548320234E-1
9.242527625E0,2.252887702E-3,9.597837925E-4,-2.609762549E-1,2.609877436E-1
9.252483625E0,8.435428608E-4,-7.808580995E-4,-2.552286386E-1,2.552312271E-1
9.262439625E0,2.154324204E-3,-6.967447698E-4,-2.492007017E-1,2.492109875E-1
9.272395625E0,1.116224099E-3,-4.265381023E-3,-2.420389354E-1,2.420790897E-1
9.282351625E0,2.513066400E-3,4.085917026E-4,-2.467215806E-1,2.467347175E-1
9.292307625E0,3.455194528E-4,-1.375460066E-3,-2.523821294E-1,2.523861140E-1
9.302263625E0,6.108984817E-4,1.748585142E-3,-2.577920258E-1,2.577986798E-1
9.312219625E0,2.285760362E-3,-4.280172288E-4,-2.553475201E-1,2.553581092E-1
9.322174625E0,3.336561844E-3,1.437501051E-3,-2.514815032E-1,2.515077445E-1
9.332130625E0,2.030862961E-4,1.860819757E-4,-2.443151921E-1,2.443153474E-1
9.342086625E0,2.171667758E-3,2.344427630E-4,-2.448054403E-1,2.448151848E-1
9.352042625E0,2.461153548E-3,4.115430638E-4,-2.476614118E-1,2.476739823E-1
9.361998625E0,2.732544206E-3,1.168301329E-3,-2.566381693E-1,2.566553753E-1
9.371954625E0,2.551981714E-3,1.375495456E-3,-2.632936835E-1,2.633096435E-1
9.381910625E0,2.074569929E-3,-2.436274663E-4,-2.580784857E-1,2.580869388E-1
9.391866625E0,8.780116332E-4,-2.968306653E-3,-2.535487115E-1,2.535676061E-1
9.401822625E0,6.597453030E-4,-7.575703785E-4,-2.472278327E-1,2.472298737E-1
9.411778625E0,2.818427456E-4,5.471119657E-4,-2.480225265E-1,2.480232901E-1
9.421734625E0,1.806482906E-3,-9.637884796E-4,-2.580443025E-1,2.580524255E-1
9.431690625E0,7.337615825E-4,-1.431971788E-3,-2.666950226E-1,2.666998763E-1
9.441646625E0,2.540071495E-3,1.673868857E-3,-2.672574222E-1,2.672747342E-1
9.451602625E0,-9.039284196E-4,-5.575940013E-4,-2.555365860E-1,2.555387932E-1
9.461558625E0,1.157744322E-3,6.334669888E-5,-2.393356115E-1,2.393384200E-1
9.471514625E0,3.488809336E-3,3.379182890E-4,-2.339184731E-1,2.339447329E-1
9.481470625E0,2.393910661E-3,-1.613256522E-3,-2.371219695E-1,2.371395408E-1
9.491426625E0,2.257823013E-3,-1.504067332E-3,-2.488382757E-1,2.488530639E-1
9.501382625E0,1.850243658E-3,-2.466294914E-3,-2.600527108E-1,2.600709872E-1
9.511338625E0,2.902458655E-3,7.332274690E-4,-2.633744776E-1,2.633914907E-1
9.521294625E0,2.606667113E-3,-2.433691174E-3,-2.567216456E-1,2.567464136E-1
9.531250625E0,1.812512637E-3,-5.026338622E-4,-2.407410741E-1,2.407484218E-1
9.541205625E0,2.804763149E-3,-3.180559725E-3,-2.312240601E-1,2.312629426E-1
9.551161625E0,4.122228827E-3,-2.087065950E-3,-2.385440171E-1,2.385887606E-1
9.561117625E0,1.523501473E-3,-9.861309081E-5,-2.560112178E-1,2.560157699E-1
9.571073625E0,1.472368720E-3,2.039106563E-3,-2.727662325E-1,2.727778279E-1
9.581029625E0,-7.580736419E-4,-1.922249794E-5,-2.694761455E-1,2.694772125E-1
9.590985625E0,2.598840976E-3,-9.513292462E-4,-2.582623661E-1,2.582771936E-1
9.600941625E0,2.264539711E-3,-2.358997241E-3,-2.411524057E-1,2.411745754E-1
9.610897625E0,2.352157608E-3,-1.833556220E-3,-2.328787744E-1,2.328978706E-1
9.620853625E0,5.037098890E-4,-2.040815540E-3,-2.337722927E-1,2.337817433E-1
9.630809625E0,2.947692759E-3,-2.959119156E-4,-2.515041530E-1,2.515216003E-1
9.640765625E0,1.430619042E-3,-5.738837644E-4,-2.668326199E-1,2.668370721E-1
9.650721625E0,-9.198868647E-4,-6.433930248E-4,-2.728244662E-1,2.728267757E-1
9.660677625E0,2.203160548E-4,6.699739024E-4,-2.563940585E-1,2.563950285E-1
9.670633625E0,2.213958418E-3,-1.041905954E-3,-2.371492535E-1,2.371618764E-1
9.680589625E0,1.694564475E-3,-2.178973518E-3,-2.327083051E-1,2.327246758E-1
9.690545625E0,8.692508563E-4,-2.156603150E-3,-2.410341352E-1,2.410453502E-1
9.700501625E0,2.782614669E-3,3.259927034E-4,-2.591307163E-1,2.591458612E-1
9.710457625E0,-1.370455720E-5,5.829874426E-4,-2.677598894E-1,2.677605244E-1
9.720413625E0,2.435036469E-3,1.202530228E-3,-2.649280131E-1,2.649419325E-1
9.730369625E0,6.557785673E-4,-2.443660051E-4,-2.522535026E-1,2.522544734E-1
9.740325625E0,1.136163250E-3,5.311854184E-4,-2.436096817E-1,2.436129103E-1
9.750281625E0,9.007399203E-4,-1.833410934E-4,-2.381504625E-1,2.381522365E-1
9.760237625E0,2.274123253E-3,-1.391267404E-3,-2.460156679E-1,2.460301122E-1
9.770193625E0,1.838696422E-3,-2.985727042E-4,-2.520061731E-1,2.520130577E-1
9.780148625E0,1.548805623E-3,1.117656939E-3,-2.601089478E-1,2.601159600E-1
9.790104625E0,-2.538880799E-4,-2.208365127E-3,-2.626091242E-1,2.626185322E-1
9.800060625E0,2.070838120E-3,2.569156699E-3,-2.548708022E-1,2.548921629E-1
9.810016625E0,-2.887227456E-4,-1.624789089E-3,-2.457423061E-1,2.457478470E-1
9.819972625E0,3.568380605E-3,-1.451479271E-3,-2.419946492E-1,2.420253093E-1
9.829928625E0,-4.191702465E-4,-5.095191300E-4,-2.443957627E-1,2.443966533E-1
9.839884625E0,4.619235639E-3,-8.598230779E-4,-2.507047951E-1,2.507488204E-1
9.849840625E0,1.941160997E-3,1.011846587E-3,-2.587693930E-1,2.587786519E-1
9.859796625E0,1.095349318E-3,1.632380299E-3,-2.624102831E-1,2.624176464E-1
9.869752625E0,1.425048686E-3,-1.972474158E-3,-2.596267462E-1,2.596381496E-1
9.879708625E0,1.009846455E-3,-6.686849520E-4,-2.518209219E-1,2.518238345E-1
9.889664625E0,4.121483769E-3,2.066958696E-4,-2.426724136E-1,2.427074982E-1
9.899620625E0,2.133313566E-3,-7.789004594E-4,-2.395718992E-1,2.395826634E-1
9.909576625E0,2.611351199E-3,-1.053206623E-3,-2.437312156E-1,2.437474797E-1
9.919532625E0,4.416788463E-3,-1.149958931E-3,-2.532235384E-1,2.532646656E-1
9.929488625E0,4.846622702E-3,-1.101755537E-3,-2.605099678E-1,2.605573774E-1
9.939444625E0,2.409139415E-3,-6.514210254E-4,-2.623317242E-1,2.623435949E-1
9.949400625E0,6.743563572E-4,-6.351759657E-4,-2.535227835E-1,2.535244761E-1
9.959356625E0,5.071019754E-3,-2.414908260E-3,-2.450236827E-1,2.450880497E-1
9.969312625E0,1.833414892E-3,-1.111024059E-3,-2.401466370E-1,2.401562055E-1
9.979268625E0,1.827936387E-3,-2.124639228E-3,-2.461542338E-1,2.461701896E-1
9.989224625E0,6.324434653E-4,1.241862774E-3,-2.551061809E-1,2.551099875E-1
9.999180625E0,2.537585329E-3,-2.652695403E-4,-2.581080794E-1,2.581206896E-1
1.000913562E1,1.901089796E-3,-1.179266721E-3,-2.565130889E-1,2.565228442E-1
1.001909162E1,3.591245622E-4,-2.997666597E-4,-2.448443472E-1,2.448447941E-1
1.002904762E1,1.488304813E-3,-1.079007983E-3,-2.379126698E-1,2.379197717E-1
1.003900362E1,8.605149924E-4,-8.978592232E-4,-2.381699234E-1,2.381731703E-1
1.004895962E1,2.371592447E-3,-1.968183555E-3,-2.490409464E-1,2.490600152E-1
1.005891562E1,2.202603035E-3,2.371784300E-3,-2.565989792E-1,2.566193932E-1
1.006887162E1,1.528823283E-3,-1.912415028E-4,-2.640651464E-1,2.640696413E-1
1.007882762E1,2.140278462E-3,1.041331328E-3,-2.577010691E-1,2.577120606E-1
1.008878363E1,3.798628924E-3,-3.168806434E-4,-2.485616207E-1,2.485908471E-1
1.009873962E1,2.741355915E-3,-2.429716289E-3,-2.473083735E-1,2.473355012E-1
1.010869563E1,7.857967867E-4,4.180027172E-4,-2.425961643E-1,2.425977971E-1
1.011865162E1,2.462842735E-3,-1.541217789E-3,-2.506385446E-1,2.506553829E-1
1.012860821E1,2.686015796E-3,-2.198485658E-3,-2.644177377E-1,2.644405189E-1
1.013856421E1,2.917373786E-3,-4.168851301E-4,-2.634353042E-1,2.634517875E-1
1.014852021E1,4.150151275E-3,-7.529761642E-4,-2.557768524E-1,2.558116278E-1
1.015847621E1,-2.738789190E-4,-2.166484483E-3,-2.419344783E-1,2.419443334E-1
1.016843221E1,9.833993390E-4,-2.466357313E-3,-2.399829179E-1,2.399976060E-1
1.017838821E1,5.700604990E-3,-1.089118421E-3,-2.454292625E-1,2.454978737E-1
1.018834421E1,5.497852108E-4,-9.575588629E-4,-2.551346123E-1,2.551370016E-1
1.019830021E1,-8.320297347E-4,1.613143831E-4,-2.577261329E-1,2.577275264E-1
1.020825621E1,2.944066189E-3,9.083310142E-4,-2.596825063E-1,2.597007830E-1
1.021821221E1,1.071332139E-3,8.014682680E-5,-2.571791112E-1,2.571813551E-1
1.022816821E1,3.707861528E-3,-4.426324740E-4,-2.481757551E-1,2.482038469E-1
1.023812421E1,2.242235467E-3,-9.531052783E-4,-2.411092222E-1,2.411215317E-1
1.024807921E1,2.616676036E-3,-2.408522181E-3,-2.485783249E-1,2.486037642E-1
1.025803521E1,2.057755599E-3,1.613362692E-3,-2.606094480E-1,2.606225655E-1
1.026799121E1,2.412134345E-4,2.943878062E-3,-2.616073489E-1,2.616240234E-1
1.027794721E1,1.515354263E-3,-1.451196149E-4,-2.542157769E-1,2.542203347E-1
1.028790321E1,4.287438467E-3,2.720441669E-3,-2.473013997E-1,2.473535228E-1
1.029785921E1,2.890608739E-3,-7.942458615E-4,-2.422962487E-1,2.423147923E-1
1.030781521E1,2.556115855E-3,-2.311448567E-3,-2.446230501E-1,2.446473240E-1
1.031777121E1,3.587930230E-3,6.928630173E-4,-2.505924404E-1,2.506190824E-1
1.032772721E1,8.616521955E-4,2.883281559E-4,-2.521213591E-1,2.521229964E-1
1.033768321E1,2.480138792E-4,-1.192670316E-4,-2.566989064E-1,2.566990539E-1
1.034763921E1,4.127706867E-3,1.635607332E-4,-2.574208677E-1,2.574540111E-1
1.035759521E1,1.937414403E-3,-1.229440793E-3,-2.490586936E-1,2.490692634E-1
1.036755121E1,1.137667103E-3,-2.244637348E-3,-2.399299145E-1,2.399431111E-1
1.037750721E1,1.783589483E-3,-2.039328218E-3,-2.407904416E-1,2.408056827E-1
1.038746321E1,2.107163426E-3,-1.445976086E-3,-2.523946166E-1,2.524075543E-1
1.039741921E1,4.594485508E-4,-1.229662448E-3,-2.624427676E-1,2.624460505E-1
1.040737521E1,-1.394910505E-3,2.459948882E-4,-2.646627724E-1,2.646665627E-1
1.041733121E1,9.373483481E-4,7.108505815E-4,-2.564432621E-1,2.564459604E-1
1.042728721E1,7.061859360E-4,5.928725004E-4,-2.469211221E-1,2.469228437E-1
1.043724321E1,2.071666531E-3,-1.916134730E-3,-2.385872006E-1,2.386038887E-1
1.044719921E1,4.972055904E-4,-2.926537767E-3,-2.408527434E-1,2.408710357E-1
1.045715521E1,1.943169627E-3,-8.627418429E-4,-2.495938987E-1,2.496029537E-1
1.046711121E1,1.380976290E-3,-8.086804301E-4,-2.572089136E-1,2.572138921E-1
1.047706721E1,8.700252511E-5,1.853303984E-4,-2.575368583E-1,2.575369397E-1
1.048702321E1,-4.629402538E-4,1.440513879E-4,-2.486368269E-1,2.486372996E-1
1.049697821E1,3.279899247E-3,5.364008248E-4,-2.428126484E-1,2.428353922E-1
1.050693421E1,1.868157531E-3,-1.279341988E-3,-2.382274866E-1,2.382382465E-1
1.051689021E1,1.897102920E-3,-3.395600244E-3,-2.430473268E-1,2.430784486E-1
1.052684621E1,2.484596334E-3,-1.870674081E-3,-2.623371482E-1,2.623555831E-1
1.053680221E1,5.449473974E-5,1.466416754E-3,-2.671670318E-1,2.671710617E-1
1.054675821E1,-1.789477887E-3,5.092769861E-4,-2.631563246E-1,2.631629016E-1
1.055671421E1,3.917302936E-3,-3.156254999E-3,-2.498841733E-1,2.499348060E-1
1.056667021E1,1.411801204E-3,6.994698197E-4,-2.408350110E-1,2.408401648E-1
1.057662621E1,3.039101139E-3,-7.313769311E-5,-2.418135554E-1,2.418326633E-1
1.058658221E1,2.420981880E-3,-6.887689233E-5,-2.472160459E-1,2.472279095E-1
1.059653821E1,1.184799708E-3,2.000573091E-3,-2.558417022E-1,2.558522672E-1
1.060649421E1,-1.462382381E-3,1.714283600E-3,-2.609352767E-1,2.609450057E-1
1.061645021E1,1.218232326E-3,-1.863216050E-3,-2.520528138E-1,2.520626442E-1
1.062640621E1,3.603892168E-3,-6.445534527E-4,-2.482463568E-1,2.482733517E-1
1.063636221E1,2.962567843E-3,-1.351808198E-3,-2.461894453E-1,2.462109810E-1
1.064631821E1,1.626726124E-3,-8.559282869E-4,-2.495508939E-1,2.495576637E-1
1.065627421E1,5.081614363E-4,1.565997489E-3,-2.528164089E-1,2.528217696E-1
1.066623021E1,2.551072277E-3,-2.061760984E-3,-2.553275228E-1,2.553485906E-1
1.067618621E1,1.024061814E-3,1.630216837E-3,-2.513282001E-1,2.513355734E-1
1.068614221E1,6.517518777E-4,-1.153319143E-3,-2.494200468E-1,2.494235648E-1
1.069609821E1,2.491691150E-3,-9.565325454E-4,-2.497116774E-1,2.497259404E-1
1.070605421E1,6.783445715E-4,1.579595730E-3,-2.538520992E-1,2.538579200E-1
1.071601021E1,2.128054388E-3,7.777074352E-4,-2.605859637E-1,2.605958133E-1
1.072596621E1,8.225728525E-4,1.131908037E-3,-2.568830848E-1,2.568868955E-1
1.073592121E1,4.538143985E-4,-1.037410460E-3,-2.492715716E-1,2.492741435E-1
1.074587721E1,1.634393702E-3,2.315509133E-3,-2.369619161E-1,2.369788651E-1
1.075583321E1,4.507806618E-3,5.318308249E-4,-2.415622473E-1,2.416048892E-1
1.076578921E1,3.494473873E-3,-1.190169714E-3,-2.566090822E-1,2.566356346E-1
1.077574521E1,4.914285615E-3,4.234341905E-4,-2.680657208E-1,2.681110967E-1
1.078570121E1,1.581339980E-3,4.351520911E-4,-2.653729916E-1,2.653780598E-1
1.079565721E1,2.173532033E-3,-2.201031893E-4,-2.487350106E-1,2.487446044E-1
1.080561321E1,3.895265516E-3,-2.444108948E-3,-2.341699153E-1,2.342150636E-1
1.081556921E1,5.086126737E-3,-2.463364042E-3,-2.374640852E-1,2.375313213E-1
1.082552521E1,9.611563291E-4,1.111130230E-3,-2.522304952E-1,2.522347739E-1
1.083548121E1,3.056049347E-3,-2.243677154E-4,-2.686174214E-1,2.686348988E-1
1.084543721E1,2.897591330E-3,-1.217193902E-3,-2.672704160E-1,2.672888940E-1
1.085539321E1,3.392130136E-3,8.580423892E-4,-2.554717660E-1,2.554957260E-1
1.086534921E1,3.369759303E-3,-1.116424799E-3,-2.437738329E-1,2.437996786E-1
1.087530521E1,5.634077825E-4,-2.960045822E-3,-2.375603467E-1,2.375794554E-1
1.088526121E1,1.819620840E-3,1.017118804E-3,-2.418139428E-1,2.418229279E-1
1.089521721E1,3.729508491E-3,-2.231259830E-3,-2.552577257E-1,2.552947205E-1
1.090517321E1,6.263932446E-4,-1.334040426E-3,-2.628796697E-1,2.628838009E-1
1.091512921E1,7.106632693E-4,-1.827495173E-3,-2.553449571E-1,2.553524856E-1
1.092508521E1,1.933054184E-3,-2.100469545E-3,-2.445319891E-1,2.445486503E-1
1.093504121E1,3.350300482E-3,-8.703377098E-4,-2.358911932E-1,2.359165891E-1
1.094499721E1,5.376167130E-3,-9.728698060E-4,-2.447408736E-1,2.448018481E-1
1.095495321E1,4.875105806E-4,-9.356159717E-5,-2.675174177E-1,2.675178782E-1
1.096490921E1,5.578180426E-4,-1.023537479E-3,-2.729878426E-1,2.729903313E-1
1.097486521E1,2.414983232E-3,1.287313178E-3,-2.623485327E-1,2.623628059E-1
1.098482121E1,2.607529983E-3,3.600008786E-4,-2.474494576E-1,2.474634577E-1
1.099477721E1,1.976634841E-3,-6.835274398E-4,-2.458650321E-1,2.458739276E-1
1.100473221E1,3.635784145E-3,-2.155989408E-3,-2.514677942E-1,2.515033175E-1