"Time (s)","Gyroscope x (rad/s)","Gyroscope y (rad/s)","Gyroscope z (rad/s)","Absolute (rad/s)"
7.326458333E-3,6.240360672E-4,2.155106515E-3,1.143365726E-1,1.143585840E-1
1.728245834E-2,1.448997180E-3,9.140539914E-4,1.158157513E-1,1.158284219E-1
2.723845833E-2,-1.180068357E-4,2.559620887E-3,1.138604581E-1,1.138892862E-1
3.719445833E-2,-1.552924165E-3,4.678731784E-4,1.134872958E-1,1.134988845E-1
4.715045833E-2,-3.700230736E-3,2.671373077E-3,1.143741310E-1,1.144651466E-1
5.710645833E-2,-3.725125454E-3,-3.981646150E-4,1.123476774E-1,1.124101228E-1
6.706245833E-2,-2.111516427E-3,-4.461016506E-4,1.103140861E-1,1.103351943E-1
7.701845833E-2,-2.827706281E-3,2.130845562E-3,1.135007814E-1,1.135559941E-1
8.697345833E-2,-7.997089997E-4,1.359594055E-3,1.140919998E-1,1.141029029E-1
9.692970833E-2,-1.461416017E-3,1.069531776E-3,1.141889319E-1,1.142032915E-1
1.068857083E-1,-9.370397311E-4,1.816015691E-3,1.109129786E-1,1.109318024E-1
1.168417083E-1,6.769060274E-4,2.684630454E-3,1.116400212E-1,1.116743470E-1
1.267977083E-1,-1.397430198E-3,1.038264483E-3,1.123023480E-1,1.123158412E-1
1.367537083E-1,-5.586660700E-4,1.846943982E-3,1.123353839E-1,1.123519550E-1
1.467097083E-1,-1.217265730E-3,1.901272684E-3,1.163226664E-1,1.163445714E-1
1.566657083E-1,-7.204547292E-4,-3.334134817E-6,1.152023673E-1,1.152046201E-1
1.666217083E-1,-2.306633629E-3,6.331615150E-4,1.135333627E-1,1.135585572E-1
1.765777083E-1,-1.339183655E-3,6.247935817E-4,1.071062088E-1,1.071164028E-1
1.865327083E-1,-4.289152566E-4,3.318847157E-3,1.088188887E-1,1.088703323E-1
1.964887083E-1,-4.469754640E-4,1.587992534E-3,1.134272739E-1,1.134392700E-1
2.064447083E-1,6.691553863E-4,-1.364920288E-3,1.200630739E-1,1.200726967E-1
2.164007083E-1,-1.166877337E-4,-2.332590520E-4,1.217261627E-1,1.217264422E-1
2.263567083E-1,-1.217904850E-3,5.371933803E-4,1.206875220E-1,1.206948625E-1
2.363127083E-1,-7.857435849E-4,-4.249792546E-4,1.140534282E-1,1.140569265E-1
2.462687083E-1,-2.507210942E-3,-2.944851294E-4,1.070991158E-1,1.071288637E-1
2.562247083E-1,-1.804530621E-5,2.676934004E-3,1.049863771E-1,1.050205012E-1
2.661807083E-1,-1.701695728E-3,-2.972837538E-4,1.062756106E-1,1.062896494E-1
2.761367083E-1,-2.698106924E-3,1.561953686E-3,1.127760708E-1,1.128191545E-1
2.860917083E-1,-7.223074790E-4,-7.881969213E-5,1.155582741E-1,1.155605584E-1
2.960477083E-1,1.700964058E-4,4.059849307E-4,1.177570373E-1,1.177578600E-1
3.060037083E-1,-5.284507060E-4,4.625497386E-3,1.174600944E-1,1.175523214E-1
3.159597083E-1,4.759019939E-4,2.571810968E-3,1.114581227E-1,1.114888058E-1
3.259157083E-1,-2.396583557E-3,1.992041245E-3,1.086346433E-1,1.086793336E-1
3.358717083E-1,-3.209650982E-3,1.109194942E-3,1.055737585E-1,1.056283610E-1
3.458277083E-1,-2.796594985E-3,2.515876666E-3,1.078558266E-1,1.079214062E-1
3.557837083E-1,9.768508608E-4,1.571808010E-3,1.160701364E-1,1.160848887E-1
3.657397083E-1,-1.183771645E-3,1.439715736E-3,1.164312586E-1,1.164461768E-1
3.756957083E-1,8.691046387E-4,4.099933431E-3,1.152261272E-1,1.153023208E-1
3.856517083E-1,5.910706241E-4,1.159004867E-3,1.125382036E-1,1.125457237E-1
3.956067083E-1,3.427679767E-4,3.288313746E-4,1.070372760E-1,1.070383300E-1
4.055627083E-1,-1.679636654E-3,1.831919886E-3,1.045283079E-1,1.045578513E-1
4.155187083E-1,-6.504154298E-4,-6.297584623E-4,1.094585210E-1,1.094622650E-1
4.254747083E-1,1.506634289E-4,-1.008547843E-4,1.132481992E-1,1.132483444E-1
4.354307083E-1,-2.591236960E-3,-5.874056369E-4,1.177562475E-1,1.177862190E-1
4.453867083E-1,-7.001260528E-4,1.153768972E-3,1.163639501E-1,1.163717759E-1
4.553427083E-1,-6.895897677E-4,2.789140679E-3,1.132715791E-1,1.133080116E-1
4.652987083E-1,-2.261919901E-3,-6.260974333E-4,1.099492908E-1,1.099743371E-1
4.752547083E-1,5.973842926E-4,1.961265691E-3,1.110583767E-1,1.110772995E-1
4.852107083E-1,-3.483041655E-4,5.843769759E-5,1.123329699E-1,1.123335251E-1
4.951657083E-1,1.048216131E-3,1.817151904E-3,1.166476086E-1,1.166664707E-1
5.051217083E-1,-1.755027100E-3,4.355041310E-4,1.171980873E-1,1.172120363E-1
5.150777083E-1,-1.470990712E-3,3.112361766E-3,1.159306914E-1,1.159817909E-1
5.250337083E-1,-1.154607162E-3,1.135230996E-3,1.163301617E-1,1.163414302E-1
5.349897083E-1,-1.303750207E-3,1.147136092E-3,1.142285019E-1,1.142417014E-1
5.449457083E-1,-1.610013773E-3,6.912034005E-4,1.124969125E-1,1.125105561E-1
5.549017083E-1,6.277126959E-4,5.915835500E-4,1.133299544E-1,1.133332368E-1
5.648577083E-1,-1.701221685E-3,2.417447045E-3,1.110007539E-1,1.110401080E-1
5.748137083E-1,-1.558070537E-3,1.331872307E-3,1.133980826E-1,1.134166063E-1
5.847697083E-1,-3.117112210E-4,1.405109651E-3,1.145086214E-1,1.145176662E-1
5.947247083E-1,2.173529938E-4,2.640835010E-3,1.156617105E-1,1.156920591E-1
6.046807083E-1,-1.721694600E-3,-4.345830530E-4,1.150457188E-1,1.150594217E-1
6.146367083E-1,-1.411622972E-3,2.358117141E-3,1.161115766E-1,1.161440985E-1
6.245927083E-1,7.900121855E-4,2.470502630E-3,1.115884632E-1,1.116186034E-1
6.345487083E-1,-1.388209988E-3,1.888364553E-3,1.095784232E-1,1.096034848E-1
6.445047083E-1,-2.092349809E-3,-1.756969839E-3,1.115853786E-1,1.116188228E-1
6.544607083E-1,-3.377147950E-3,2.186788246E-3,1.129983366E-1,1.130699396E-1
6.644167083E-1,7.595399511E-4,-5.605285987E-4,1.154849306E-1,1.154887886E-1
6.743727083E-1,-1.145973103E-3,4.552043974E-4,1.141729504E-1,1.141796088E-1
6.843287083E-1,-1.651440980E-3,1.626196317E-3,1.121912897E-1,1.122152273E-1
6.942837083E-1,-2.527196892E-3,2.816698514E-3,1.093471944E-1,1.094126567E-1
7.042397083E-1,-9.058645228E-4,-8.915551007E-6,1.101277694E-1,1.101314953E-1
7.141957083E-1,-9.348088643E-4,1.552635804E-4,1.111347675E-1,1.111388075E-1
7.241517083E-1,-4.117641365E-4,2.056760713E-3,1.154682636E-1,1.154873141E-1
7.341077083E-1,2.472285414E-4,-1.131603494E-4,1.141747609E-1,1.141750846E-1
7.440637083E-1,-2.504083095E-3,8.545815945E-6,1.135835424E-1,1.136111421E-1
7.540197083E-1,-1.161652734E-3,4.686079919E-4,1.124947295E-1,1.125017030E-1
7.639757083E-1,-7.339491276E-4,-1.713586971E-3,1.113234684E-1,1.113390752E-1
7.739317083E-1,-5.788425915E-4,6.003314629E-4,1.117635965E-1,1.117667078E-1
7.838877083E-1,-1.637981622E-3,5.678413436E-4,1.111271009E-1,1.111406225E-1
7.938437083E-1,-1.457887702E-3,3.113601822E-3,1.153271124E-1,1.153783463E-1
8.037987083E-1,-7.737216074E-4,3.079613671E-4,1.144354865E-1,1.144385165E-1
8.137547083E-1,-1.114645042E-3,1.664181240E-3,1.171237230E-1,1.171408487E-1
8.237107083E-1,-3.150631674E-3,2.769408748E-4,1.164211929E-1,1.164641461E-1
8.336667083E-1,-1.291165710E-3,1.736449078E-3,1.159193963E-1,1.159395912E-1
8.436227083E-1,-1.910883351E-3,5.169874057E-4,1.114293039E-1,1.114468865E-1
8.535787083E-1,8.131488576E-4,-7.991315797E-4,1.091461256E-1,1.091520800E-1
8.635347083E-1,-5.573139060E-4,1.377736218E-3,1.094172373E-1,1.094273301E-1
8.734907083E-1,3.661280498E-4,-1.540938392E-4,1.139169633E-1,1.139176559E-1
8.834467083E-1,-1.207533875E-3,8.374014869E-4,1.144381464E-1,1.144475807E-1
8.934027083E-1,-3.378938185E-3,-7.790923119E-4,1.148626506E-1,1.149149804E-1
9.033577083E-1,5.958296824E-4,2.193273976E-4,1.154062077E-1,1.154079542E-1
9.133137083E-1,-1.424780930E-3,1.012594439E-3,1.129805967E-1,1.129941175E-1
9.232697083E-1,-1.050873077E-3,7.049990818E-4,1.101994589E-1,1.102067244E-1
9.332257083E-1,-1.285221661E-4,9.644404054E-5,1.077335924E-1,1.077337122E-1
9.431817083E-1,7.094861940E-5,2.431769855E-3,1.081511751E-1,1.081785340E-1
9.531377083E-1,-1.515210373E-3,1.410202123E-3,1.078216806E-1,1.078415474E-1
9.630937083E-1,5.223742337E-4,8.168499917E-4,1.148561612E-1,1.148602537E-1
9.730497083E-1,-1.123243361E-3,1.109211706E-3,1.165084839E-1,1.165191780E-1
9.830057083E-1,-1.904881210E-3,8.157314733E-4,1.185601875E-1,1.185782950E-1
9.929617083E-1,2.938964171E-4,1.143080182E-3,1.174853891E-1,1.174913174E-1
1.002916708E0,-3.191648750E-3,-1.380531117E-3,1.109675691E-1,1.110220423E-1
1.012872708E0,-9.420478018E-4,1.311429776E-3,1.045120731E-1,1.045245460E-1
1.022828708E0,-1.168150106E-3,8.411156014E-4,1.082756519E-1,1.082852199E-1
1.032784708E0,1.190475305E-3,1.665203832E-3,1.138844192E-1,1.139028142E-1
1.042740708E0,-3.067537909E-4,3.445418552E-4,1.190576106E-1,1.190585043E-1
1.052696708E0,-8.978298865E-4,7.218588144E-4,1.193886474E-1,1.193942055E-1
1.062652708E0,-3.704002593E-3,1.562032849E-4,1.132902801E-1,1.133509224E-1
1.072608708E0,-3.972529666E-4,1.333849505E-4,1.079763025E-1,1.079771156E-1
1.082564708E0,-4.742183955E-4,-6.663622335E-4,1.054825187E-1,1.054856894E-1
1.092520083E0,-2.347263042E-3,5.162749439E-4,1.126039773E-1,1.126296226E-1
1.102476083E0,8.770258864E-4,-6.808163598E-4,1.167939231E-1,1.167992001E-1
1.112431083E0,-1.823786879E-3,2.848858014E-3,1.192701906E-1,1.193181485E-1
1.122387083E0,-8.554614615E-4,6.773164496E-4,1.184525937E-1,1.184576191E-1
1.132343083E0,-1.929070102E-3,-3.976952285E-4,1.158893555E-1,1.159060922E-1
1.142299083E0,-4.661957501E-4,1.380763948E-3,1.125622690E-1,1.125717027E-1
1.152255083E0,-1.214141957E-4,2.632328309E-3,1.075727344E-1,1.076050049E-1
1.162211083E0,-3.981166519E-4,1.071982086E-3,1.104042083E-1,1.104101302E-1
1.172167083E0,8.743962971E-4,2.256945707E-3,1.121598631E-1,1.121859762E-1
1.182123083E0,-3.253503703E-3,1.796219498E-3,1.151316836E-1,1.151916502E-1
1.192079083E0,-4.689407069E-5,7.005902007E-4,1.153664738E-1,1.153686106E-1
1.202034083E0,-1.219484024E-3,1.620179042E-3,1.151129454E-1,1.151308053E-1
1.211990083E0,-3.472596873E-4,-1.589520834E-3,1.150588840E-1,1.150703870E-1
1.221946083E0,8.618154097E-4,1.915731467E-3,1.125986502E-1,1.126182435E-1
1.231902083E0,7.269410999E-4,-1.376932487E-4,1.069595143E-1,1.069620732E-1
1.241858083E0,-2.109857975E-3,1.274581067E-3,1.083406284E-1,1.083686663E-1
1.251814083E0,-1.844765735E-3,-1.113986596E-3,1.095856577E-1,1.096068452E-1
1.261770083E0,-1.829585875E-3,1.559827477E-3,1.130277887E-1,1.130533567E-1
1.271726083E0,-2.863316331E-3,4.503065720E-4,1.152905673E-1,1.153269971E-1
1.281682083E0,-1.700313762E-3,7.746797055E-4,1.149483547E-1,1.149635396E-1
1.291638083E0,1.220594859E-3,-1.859012991E-5,1.113667712E-1,1.113734615E-1
1.301593083E0,7.915596361E-4,-2.281805500E-4,1.097646132E-1,1.097677045E-1
1.311549083E0,-1.426618197E-3,1.768380404E-3,1.074169949E-1,1.074410219E-1
1.321505083E0,-3.306543455E-3,1.211513765E-3,1.077456325E-1,1.078031647E-1
1.331461083E0,-4.168817541E-4,3.584818915E-4,1.112477332E-1,1.112490919E-1
1.341417083E0,-1.271756366E-3,1.418419182E-3,1.104706228E-1,1.104870480E-1
1.351373083E0,-3.104947973E-4,-1.499947160E-3,1.141100526E-1,1.141203328E-1
1.361329083E0,-9.690935258E-5,1.245506108E-3,1.141782254E-1,1.141850596E-1
1.371285083E0,-1.329442952E-3,1.012608409E-4,1.139238402E-1,1.139316420E-1
1.381241083E0,-2.519279951E-4,9.825015441E-4,1.143201217E-1,1.143246212E-1
1.391197083E0,-2.752753906E-3,1.885294914E-3,1.136889979E-1,1.137379455E-1
1.401153083E0,-1.243007602E-3,2.438167110E-3,1.147492081E-1,1.147818387E-1
1.411108083E0,-8.240817115E-4,-5.381377414E-4,1.147191599E-1,1.147233819E-1
1.421064083E0,-4.195475485E-4,1.836336218E-3,1.123284400E-1,1.123442325E-1
1.431020083E0,-2.161914250E-3,7.891580462E-4,1.121996567E-1,1.122232578E-1
1.440976083E0,-1.062561292E-3,2.820350230E-3,1.124758273E-1,1.125161995E-1
1.450932083E0,7.314073155E-4,-3.934539855E-4,1.127767041E-1,1.127797622E-1
1.460888083E0,-1.517365803E-3,1.608977094E-3,1.143924445E-1,1.144138216E-1
1.470844083E0,1.132341451E-3,-2.231104299E-4,1.135490239E-1,1.135548889E-1
1.480800083E0,1.744024921E-4,1.477850601E-3,1.156579778E-1,1.156675507E-1
1.490756083E0,-6.670989096E-4,1.165083610E-3,1.150530204E-1,1.150608532E-1
1.500712083E0,-7.999907248E-4,-1.585073769E-4,1.155491695E-1,1.155520475E-1
1.510667083E0,-1.697839471E-3,8.289599791E-4,1.144201979E-1,1.144357965E-1
1.520623083E0,-2.526615048E-3,6.025917828E-4,1.131128520E-1,1.131426718E-1
1.530579083E0,-8.019505767E-4,4.463419318E-4,1.100471243E-1,1.100509515E-1
1.540535083E0,-3.133548424E-3,-1.248493791E-3,1.088572219E-1,1.089094698E-1
1.550491083E0,2.936157398E-4,8.010771126E-5,1.108717993E-1,1.108722170E-1
1.560447083E0,-1.883784775E-3,1.835929230E-3,1.131855547E-1,1.132161167E-1
1.570403083E0,1.857823692E-3,5.839085206E-4,1.147755161E-1,1.147920361E-1
1.580359083E0,-1.295359107E-3,-4.235655069E-4,1.145273149E-1,1.145354234E-1
1.590315083E0,-2.244353760E-3,4.232861102E-6,1.166644916E-1,1.166860777E-1
1.600270083E0,-1.693611965E-3,-5.598245189E-4,1.181015372E-1,1.181150068E-1
1.610226083E0,1.774798380E-3,1.895265654E-3,1.156073213E-1,1.156364764E-1
1.620182083E0,-1.702224603E-3,2.010048367E-3,1.119420230E-1,1.119730074E-1
1.630138083E0,-1.597768976E-3,2.030821517E-3,1.110040545E-1,1.110341264E-1
1.640094083E0,-6.685921689E-4,1.756782643E-3,1.101800725E-1,1.101961055E-1
1.650050083E0,-2.596834209E-3,4.256442189E-4,1.121282801E-1,1.121591544E-1
1.660006083E0,1.344111399E-3,8.112704381E-4,1.152140871E-1,1.152247832E-1
1.669962083E0,-1.552975620E-3,2.914407291E-3,1.153893769E-1,1.154366224E-1
1.679918083E0,-1.665360876E-3,-3.131572157E-5,1.143709868E-1,1.143831152E-1
1.689874083E0,-3.541955957E-4,1.251148060E-3,1.130656004E-1,1.130730773E-1
1.699830083E0,-3.973964136E-3,1.483907923E-3,1.120629311E-1,1.121431892E-1
1.709785083E0,1.070751110E-3,2.545199357E-3,1.100090966E-1,1.100437453E-1
1.719741083E0,-2.082698047E-3,-7.014600560E-4,1.093907058E-1,1.094127790E-1
1.729697083E0,7.168133743E-5,1.817132346E-3,1.119789258E-1,1.119936914E-1
1.739653083E0,6.013840903E-4,9.441487491E-4,1.165960506E-1,1.166014240E-1
1.749609083E0,5.894349306E-4,1.976847649E-3,1.127280295E-1,1.127469024E-1
1.759565083E0,8.389731520E-4,2.290568314E-3,1.133778393E-1,1.134040785E-1
1.769521083E0,-2.149846405E-4,2.028560266E-4,1.158234701E-1,1.158238472E-1
1.779477083E0,-1.944783144E-4,2.410616726E-3,1.130820140E-1,1.131078724E-1
1.789433083E0,-7.220749976E-4,-1.032115892E-3,1.133995652E-1,1.134065609E-1
1.799388083E0,-1.148743322E-4,8.081281558E-4,1.168068126E-1,1.168096646E-1
1.809344083E0,9.400592535E-4,4.528928548E-5,1.122919023E-1,1.122958463E-1
1.819300083E0,-2.579041757E-3,1.232526265E-3,1.110495403E-1,1.110863222E-1
1.829256083E0,-8.744781371E-4,-4.229564220E-4,1.130726412E-1,1.130768137E-1
1.839212083E0,-3.423655638E-3,4.144098610E-3,1.137754470E-1,1.139023587E-1
1.849168083E0,-5.400353111E-4,1.415637322E-3,1.140609384E-1,1.140710013E-1
1.859124083E0,7.968716091E-4,-8.958112448E-5,1.134830266E-1,1.134858597E-1
1.869080083E0,-2.875170903E-3,2.973275259E-3,1.185851097E-1,1.186572173E-1
1.879036083E0,8.671028190E-4,1.964735799E-3,1.141006127E-1,1.141208214E-1
1.888992083E0,1.070591155E-3,-3.289831802E-4,1.115003079E-1,1.115059329E-1
1.898947083E0,-2.315884456E-3,1.621782780E-3,1.101338342E-1,1.101701181E-1
1.908903083E0,-1.834493363E-3,1.565221697E-3,1.107109413E-1,1.107372015E-1
1.918859083E0,-2.642935142E-4,-1.844018698E-7,1.114177480E-1,1.114180615E-1
1.928815083E0,-2.904205117E-3,7.272940129E-4,1.130891517E-1,1.131287744E-1
1.938771083E0,6.002485170E-4,1.585364342E-3,1.148007661E-1,1.148132814E-1
1.948727083E0,1.941754948E-3,2.817588858E-3,1.153948605E-1,1.154455848E-1
1.958683083E0,-9.126209188E-4,1.737676561E-3,1.118427366E-1,1.118599577E-1
1.968639083E0,1.343934331E-3,9.945817292E-4,1.110517234E-1,1.110643085E-1
1.978595083E0,-1.232940354E-3,2.412591130E-5,1.106501147E-1,1.106569863E-1
1.988551083E0,-5.714552244E-4,1.030975021E-3,1.109587848E-1,1.109650458E-1
1.998506083E0,-5.110014463E-4,2.470414154E-3,1.144176945E-1,1.144455018E-1
2.008462083E0,1.077043707E-3,-1.965288073E-3,1.129307449E-1,1.129529792E-1
2.018418083E0,-3.546717344E-4,-4.275785759E-4,1.137576550E-1,1.137590115E-1
2.028374083E0,-2.025549766E-3,-7.498189807E-4,1.145151630E-1,1.145355300E-1
2.038330083E0,2.988573397E-4,1.650754362E-3,1.109577119E-1,1.109703931E-1
2.048286083E0,-1.472662785E-3,-7.205009460E-4,1.131438464E-1,1.131557238E-1
2.058242083E0,-2.026866656E-3,1.058757305E-3,1.146751642E-1,1.146979618E-1
2.068198083E0,-1.211962663E-4,1.907314174E-3,1.142968982E-1,1.143128754E-1
2.078154083E0,9.203659720E-4,8.883886039E-4,1.153341979E-1,1.153412914E-1
2.088110083E0,-8.266279474E-5,-1.403973438E-3,1.133191437E-1,1.133278708E-1
2.098064833E0,-2.694158349E-3,4.047250841E-3,1.148001254E-1,1.149030353E-1
2.108020833E0,-2.628248185E-4,1.014178619E-3,1.139070019E-1,1.139118199E-1
2.117976833E0,-2.408001106E-3,7.350798696E-4,1.105868444E-1,1.106155006E-1
2.127932833E0,-2.249712357E-3,-6.900588050E-4,1.097963601E-1,1.098215739E-1
2.137888833E0,4.081223160E-4,1.128846779E-4,1.108461767E-1,1.108469855E-1
2.147844833E0,-1.767467591E-3,-4.031937569E-4,1.141439751E-1,1.141583705E-1
2.157800833E0,-1.441496541E-3,6.738677621E-5,1.130613983E-1,1.130706073E-1
2.167756833E0,-8.584843017E-4,-5.391146988E-5,1.158174425E-1,1.158206368E-1
2.177712833E0,-8.257273585E-4,6.273249164E-4,1.133247316E-1,1.133294761E-1
2.187667833E0,-4.851996200E-4,-8.457088843E-4,1.129145473E-1,1.129187568E-1
2.197623833E0,-7.741526933E-4,-2.401061356E-4,1.124045551E-1,1.124074774E-1
2.207579833E0,1.192170661E-3,7.673744112E-4,1.099712253E-1,1.099803642E-1
2.217535833E0,3.342924174E-5,-1.420145854E-3,1.113126576E-1,1.113217215E-1
2.227491833E0,7.170832832E-4,2.553034574E-5,1.116527990E-1,1.116551046E-1
2.237447833E0,-1.933294581E-3,9.951870888E-4,1.114203036E-1,1.114415186E-1
2.247403833E0,-2.105142456E-3,1.553731970E-3,1.110416576E-1,1.110724783E-1
2.257359833E0,1.271213288E-3,6.471918896E-4,1.129625961E-1,1.129716025E-1
2.267315833E0,-3.153433790E-4,-6.334418431E-4,1.151226833E-1,1.151248579E-1
2.277271833E0,-2.532510553E-5,2.542417496E-5,1.146494374E-1,1.146494430E-1
2.287226833E0,-1.314749708E-3,1.814004034E-3,1.131129563E-1,1.131351407E-1
2.297182833E0,-3.898337018E-4,5.447417498E-4,1.100007892E-1,1.100028287E-1
2.307138833E0,-2.770945430E-3,1.081818715E-3,1.100219339E-1,1.100621389E-1
2.317094833E0,-3.144459333E-4,2.277311869E-3,1.101098135E-1,1.101338098E-1
2.327050833E0,7.572948816E-4,1.502358355E-3,1.110040545E-1,1.110168037E-1
2.337006833E0,-9.684335673E-4,2.550045960E-3,1.149228960E-1,1.149552636E-1
2.346962833E0,1.798686222E-3,2.537670545E-3,1.182094514E-1,1.182503677E-1
2.356918833E0,1.179234940E-3,1.733396202E-3,1.159044802E-1,1.159234394E-1
2.366874833E0,-2.883632667E-3,1.560105942E-3,1.137579754E-1,1.138052118E-1
2.376830833E0,8.317432948E-4,7.236069068E-4,1.094130278E-1,1.094185818E-1
2.386785833E0,-2.123307437E-3,3.612269182E-3,1.068387628E-1,1.069208967E-1
2.396741833E0,-3.226388944E-3,1.375746913E-3,1.092641056E-1,1.093203871E-1
2.406697833E0,6.439195713E-4,6.288839504E-4,1.124925464E-1,1.124961472E-1
2.416653833E0,8.465570863E-5,-7.951725274E-5,1.159831509E-1,1.159832091E-1
2.426609833E0,-7.383989869E-4,5.488097668E-4,1.143288538E-1,1.143325554E-1
2.436565833E0,1.135667320E-3,-5.793049932E-4,1.168138459E-1,1.168208027E-1
2.446521833E0,2.016824204E-3,1.356233843E-3,1.147808954E-1,1.148066239E-1
2.456477833E0,-2.072459552E-3,7.751323283E-4,1.111139879E-1,1.111360167E-1
2.466433833E0,-1.636243775E-3,-2.250699326E-3,1.107713431E-1,1.108062877E-1
2.476388833E0,-9.233156452E-4,-2.400120720E-4,1.069664881E-1,1.069707422E-1
2.486344833E0,-3.140346380E-4,-2.326119691E-3,1.068303958E-1,1.068561786E-1
2.496300833E0,5.304537481E-4,-3.066444770E-4,1.101705357E-1,1.101722395E-1
2.506256833E0,-6.845984608E-4,1.495918259E-3,1.151822805E-1,1.151940285E-1
2.516212833E0,-6.126931403E-4,1.299110241E-3,1.151122451E-1,1.151212059E-1
2.526168833E0,-8.908702293E-4,-1.110611483E-4,1.162025928E-1,1.162060608E-1
2.536124833E0,-7.887242828E-5,-4.354333505E-4,1.140302569E-1,1.140311155E-1
2.546080833E0,1.807741472E-3,-5.008308217E-4,1.094039232E-1,1.094200035E-1
2.556036833E0,-1.373404404E-3,2.655548044E-3,1.072438285E-1,1.072854926E-1
2.565992833E0,-2.196879592E-3,1.974964514E-3,1.115537807E-1,1.115928885E-1
2.575947833E0,-7.923286175E-4,-8.157622069E-4,1.124576554E-1,1.124634052E-1
2.585903833E0,-1.799092861E-3,2.312141471E-3,1.130545810E-1,1.130925330E-1
2.595859833E0,6.347700255E-4,3.664353862E-4,1.167217493E-1,1.167240505E-1
2.605815833E0,-2.984469756E-4,-4.361309111E-4,1.141997874E-1,1.142010101E-1
2.615771833E0,9.950504173E-4,1.321872696E-4,1.088534966E-1,1.088581247E-1
2.625727833E0,-1.213500276E-3,2.264710143E-3,1.117414311E-1,1.117709663E-1
2.635683833E0,-1.432412071E-3,-7.044486701E-4,1.117355749E-1,1.117469765E-1
2.645639833E0,-1.141227433E-3,2.176600508E-3,1.130801439E-1,1.131068475E-1
2.655595833E0,7.671937929E-4,7.621953264E-4,1.159310564E-1,1.159361004E-1
2.665551833E0,-1.980011584E-4,-7.391162217E-5,1.185648739E-1,1.185650623E-1
2.675506833E0,1.096295193E-3,8.105244488E-4,1.160338074E-1,1.160418169E-1
2.685462833E0,-6.995128933E-5,1.156988554E-3,1.120578647E-1,1.120638592E-1
2.695418833E0,-1.727236318E-3,2.694963943E-3,1.140208840E-1,1.140658063E-1
2.705374833E0,-1.779071055E-3,-2.763345838E-4,1.144001111E-1,1.144142774E-1
2.715330833E0,-9.044888429E-4,2.139418386E-3,1.133755967E-1,1.133993877E-1
2.725286833E0,-2.058072016E-3,1.520181075E-3,1.134565026E-1,1.134853496E-1
2.735242833E0,1.829779940E-4,8.655767888E-4,1.114338338E-1,1.114373458E-1
2.745198833E0,1.218702178E-3,9.475694969E-4,1.112201437E-1,1.112308568E-1
2.755154833E0,-7.317969576E-4,2.184341662E-3,1.139251143E-1,1.139484030E-1
2.765109833E0,-1.545138657E-4,2.409214154E-3,1.101876870E-1,1.102141304E-1
2.775065833E0,-1.682369271E-3,-6.725955755E-4,1.137254313E-1,1.137398631E-1
2.785021833E0,-9.095403366E-4,1.381575130E-3,1.099952459E-1,1.100076822E-1
2.794977833E0,-4.144585691E-4,7.328288630E-4,1.103569046E-1,1.103601160E-1
2.804933833E0,5.416764179E-4,-1.341169700E-4,1.124619693E-1,1.124633537E-1
2.814889833E0,6.681765663E-4,-1.388998702E-3,1.135661155E-1,1.135765749E-1
2.824845833E0,8.364799432E-4,-5.934759974E-5,1.169995740E-1,1.170025792E-1
2.834801833E0,-2.761983080E-3,6.715301424E-5,1.153547987E-1,1.153878791E-1
2.844757833E0,-4.899133928E-4,9.496873245E-4,1.142344102E-1,1.142394083E-1
2.854713833E0,-5.373177119E-4,2.297513187E-3,1.159702614E-1,1.159942619E-1
2.864668833E0,2.281447640E-3,2.636285499E-4,1.135819405E-1,1.136051571E-1
2.874624833E0,-7.624889258E-5,-6.591565907E-4,1.102492586E-1,1.102512554E-1
2.884580833E0,-4.166283179E-5,-6.203446537E-5,1.085175127E-1,1.085175384E-1
2.894536833E0,-1.276570489E-3,6.338497624E-4,1.106019691E-1,1.106111521E-1
2.904492833E0,-1.344411983E-3,-1.948619261E-3,1.119210348E-1,1.119460700E-1
2.914448833E0,-4.208275350E-4,1.891003922E-4,1.139173359E-1,1.139182701E-1
2.924404833E0,-1.297644572E-3,-1.717361622E-3,1.154007688E-1,1.154208415E-1
2.934360833E0,-1.502175350E-3,2.211537212E-4,1.158250123E-1,1.158349642E-1
2.944316833E0,-7.588337176E-4,1.046896912E-3,1.140989065E-1,1.141062325E-1
2.954271833E0,-1.699195942E-3,-4.175752401E-4,1.116967350E-1,1.117104393E-1
2.964227833E0,-1.693672850E-3,2.337443642E-3,1.135254800E-1,1.135621715E-1
2.974183833E0,-8.321403293E-4,2.061156556E-4,1.107382178E-1,1.107415362E-1
2.984139833E0,1.736877719E-3,-1.061221585E-3,1.095877364E-1,1.096066372E-1
2.994095833E0,5.664183991E-4,1.888666302E-4,1.139438674E-1,1.139454317E-1
3.004051833E0,5.703353090E-4,-3.920476884E-4,1.145849377E-1,1.145870278E-1
3.014007833E0,4.089891445E-5,-1.393396407E-3,1.121121943E-1,1.121208604E-1
3.023963833E0,-3.481084714E-4,-3.875214607E-4,1.160825416E-1,1.160837104E-1
3.033919833E0,-3.063467331E-3,1.172824763E-3,1.150023639E-1,1.150491376E-1
3.043875833E0,-3.366544843E-4,-9.472165257E-4,1.157208905E-1,1.157252567E-1
3.053830833E0,-1.813920680E-4,6.059389561E-4,1.141690612E-1,1.141708132E-1
3.063786833E0,-1.253993716E-3,-1.392525621E-3,1.126431227E-1,1.126587090E-1
3.073742833E0,-1.085149357E-3,-1.898417249E-4,1.126204878E-1,1.126258756E-1
3.083698833E0,-1.142804511E-3,-2.030553296E-4,1.122632474E-1,1.122692475E-1
3.093654833E0,-3.969750367E-3,3.724535927E-4,1.113250181E-1,1.113963971E-1
3.103611083E0,-1.152905053E-3,3.877468407E-5,1.130949482E-1,1.131008312E-1
3.113567083E0,1.443410758E-3,-1.542610116E-3,1.160843447E-1,1.161035665E-1
3.123523083E0,-2.065076027E-3,-3.318097442E-4,1.175705567E-1,1.175891595E-1
3.133479083E0,-5.992720835E-4,-1.368312165E-3,1.163047552E-1,1.163143477E-1
3.143434083E0,-4.242721479E-4,1.969750971E-3,1.158277839E-1,1.158453083E-1
3.153390083E0,-1.874895999E-3,1.475468278E-3,1.108956113E-1,1.109212732E-1
3.163346083E0,-6.844151067E-4,1.221988350E-4,1.118083820E-1,1.118105435E-1
3.173302083E0,1.294846181E-3,1.193588600E-3,1.110893264E-1,1.111032841E-1
3.183258083E0,-7.833854761E-5,1.057014801E-3,1.125713810E-1,1.125763707E-1
3.193214083E0,1.747524599E-3,1.078648493E-4,1.126083955E-1,1.126220059E-1
3.203170083E0,1.108561875E-3,8.251909167E-4,1.149089411E-1,1.149172511E-1
3.213126083E0,1.503565582E-4,-1.324246638E-3,1.120170131E-1,1.120249413E-1
3.223082083E0,8.735675365E-4,3.644824028E-5,1.119813770E-1,1.119847902E-1
3.233038083E0,2.501557814E-3,8.953176439E-4,1.119526178E-1,1.119841418E-1
3.242993083E0,8.232287364E-4,-4.263035953E-4,1.148559451E-1,1.148596864E-1
3.252949083E0,-2.431010362E-4,-8.062552661E-5,1.166202873E-1,1.166205685E-1
3.262905083E0,-2.241595648E-4,-6.632534787E-4,1.149689108E-1,1.149710425E-1
3.272861083E0,-8.034880739E-5,2.384185791E-5,1.136807427E-1,1.136807736E-1
3.282817083E0,-1.409950317E-3,2.905143425E-3,1.133237183E-1,1.133697180E-1
3.292773083E0,-1.509552472E-3,4.529049620E-4,1.133926958E-1,1.134036478E-1
3.302729083E0,-1.101422939E-3,-5.736276507E-4,1.131989732E-1,1.132057848E-1
3.312685083E0,6.858245470E-4,-1.227539033E-4,1.139830127E-1,1.139851421E-1
3.322641083E0,2.082281746E-3,-1.321214251E-3,1.147253960E-1,1.147518976E-1
3.332596083E0,-4.261495778E-4,1.156324521E-3,1.195201501E-1,1.195265032E-1
3.342552083E0,-1.037757262E-3,5.292911083E-4,1.190187857E-1,1.190244867E-1
3.352508083E0,1.244838000E-3,-7.940335199E-4,1.113984138E-1,1.114081985E-1
3.362464083E0,-1.109584933E-3,8.300067857E-4,1.104989648E-1,1.105076527E-1
3.372420083E0,-1.550604356E-3,7.162904367E-4,1.069052890E-1,1.069189331E-1
3.382376083E0,-1.036992762E-4,9.115561843E-4,1.092820466E-1,1.092858975E-1
3.392332083E0,-6.588234100E-5,1.320485026E-4,1.109036505E-1,1.109037487E-1
3.402288083E0,-2.303122077E-3,1.205381006E-3,1.131852344E-1,1.132150811E-1
3.412244083E0,1.265780185E-3,-4.010377452E-4,1.156265512E-1,1.156341748E-1
3.422200083E0,4.507320700E-4,1.769457012E-4,1.145083979E-1,1.145094217E-1
3.432155083E0,-1.777268481E-3,6.571132690E-4,1.131659001E-1,1.131817628E-1
3.442111083E0,3.151964629E-4,-1.233223826E-3,1.121273190E-1,1.121345435E-1
3.452067083E0,-8.869544836E-4,3.644069657E-4,1.106593832E-1,1.106635377E-1
3.462023083E0,-3.486652393E-3,-4.303455353E-5,1.111791804E-1,1.112338472E-1
3.471979083E0,-5.553112132E-4,1.436527818E-4,1.091660932E-1,1.091676001E-1
3.481935083E0,4.810781684E-4,-4.859911278E-4,1.093094349E-1,1.093115739E-1
3.491891083E0,-2.678028541E-4,1.362242736E-3,1.166629493E-1,1.166712097E-1
3.501847083E0,-1.161485561E-3,1.773388125E-3,1.152961105E-1,1.153155976E-1
3.511803083E0,-6.086133653E-4,1.671656035E-3,1.145099401E-1,1.145237584E-1
3.521758083E0,-1.711065532E-3,-2.782894298E-4,1.139851958E-1,1.139983774E-1
3.531714083E0,-1.092679449E-3,5.350401625E-4,1.107798144E-1,1.107864951E-1
3.541670083E0,-1.050392166E-5,6.709191948E-4,1.113905311E-1,1.113925521E-1
3.551626083E0,1.684605377E-4,8.621336892E-4,1.100538895E-1,1.100573952E-1
3.561582083E0,-2.720224671E-3,1.577601768E-3,1.090400815E-1,1.090854153E-1
3.571538083E0,-2.426478080E-3,2.370158676E-3,1.126686409E-1,1.127196881E-1
3.581494083E0,1.675469102E-3,3.988733515E-4,1.140664220E-1,1.140794237E-1
3.591450083E0,-2.181320684E-3,-5.870293826E-4,1.179762036E-1,1.179978278E-1
3.601406083E0,2.946769819E-4,1.195568591E-3,1.162476093E-1,1.162541306E-1
3.611362083E0,-4.368934315E-4,-1.276910305E-3,1.155844778E-1,1.155923565E-1
3.621317083E0,1.092806924E-3,1.079761423E-3,1.136223152E-1,1.136327005E-1
3.631273083E0,2.347363625E-4,1.427304000E-3,1.100060120E-1,1.100155215E-1
3.641229083E0,8.281785995E-7,8.003525436E-4,1.096010432E-1,1.096039654E-1
3.651185083E0,4.090907751E-4,-2.150163986E-3,1.098375320E-1,1.098593374E-1
3.661141083E0,-1.322198426E-3,-9.375326335E-4,1.107755005E-1,1.107873580E-1
3.671097083E0,-4.137943033E-4,1.698197797E-3,1.126056239E-1,1.126191886E-1
3.681053083E0,-6.018402055E-4,1.931197010E-3,1.108009592E-1,1.108194220E-1
3.691009083E0,-1.036468195E-3,-1.725589857E-3,1.132390797E-1,1.132569693E-1
3.700965083E0,2.114970470E-3,4.390254617E-5,1.136948615E-1,1.137145398E-1
3.710920083E0,-2.627320122E-3,-1.675523818E-4,1.123220026E-1,1.123528512E-1
3.720876083E0,8.370114956E-4,-8.781980723E-4,1.117432490E-1,1.117498345E-1
3.730832083E0,2.474733628E-5,2.352697775E-4,1.136817634E-1,1.136820096E-1
3.740788083E0,-1.513956930E-3,1.541585661E-3,1.127018705E-1,1.127225806E-1
3.750744083E0,-6.644084351E-4,-2.994583920E-4,1.117314175E-1,1.117337942E-1
3.760700083E0,-3.242105013E-4,6.726793945E-4,1.127317548E-1,1.127342279E-1
3.770656083E0,1.467564260E-3,1.485692337E-4,1.115863323E-1,1.115960814E-1
3.780612083E0,6.295266794E-4,3.319922835E-4,1.179186255E-1,1.179207732E-1
3.790568083E0,-7.246906171E-4,4.984401166E-4,1.118274480E-1,1.118309069E-1
3.800523083E0,5.619658623E-5,3.531351686E-4,1.095479429E-1,1.095485265E-1
3.810479083E0,-4.380862229E-4,6.460826844E-4,1.089239642E-1,1.089267613E-1
3.820435083E0,-2.021908760E-3,3.848131746E-5,1.096272543E-1,1.096459050E-1
3.830391083E0,-1.994211692E-3,-1.034652814E-4,1.133748516E-1,1.133924361E-1
3.840347083E0,2.232670551E-3,6.484054029E-5,1.156032756E-1,1.156248518E-1
3.850303083E0,2.531429054E-4,1.138420776E-4,1.121941656E-1,1.121945089E-1
3.860259083E0,-1.176806749E-3,2.908807714E-3,1.111384854E-1,1.111827728E-1
3.870215083E0,-1.887604245E-3,5.598067772E-3,1.103555188E-1,1.105135373E-1
3.880171083E0,-2.651395509E-3,6.810445338E-4,1.100143194E-1,1.100483721E-1
3.890127083E0,-1.510763541E-3,1.950840466E-3,1.119051650E-1,1.119323641E-1
3.900082083E0,8.318957407E-5,-1.647807658E-4,1.179963946E-1,1.179965390E-1
3.910038083E0,-3.160182387E-4,-1.962414943E-3,1.163060814E-1,1.163230653E-1
3.919994083E0,-6.769944448E-4,1.256295480E-3,1.177065372E-1,1.177151881E-1
3.929950083E0,-1.778744161E-3,1.152965240E-3,1.125570461E-1,1.125770043E-1
3.939906083E0,-3.175091464E-3,2.046786249E-4,1.096505821E-1,1.096967331E-1
3.949862083E0,-2.184498589E-4,-5.718991160E-4,1.086577550E-1,1.086594796E-1
3.959818083E0,-2.465972910E-3,6.627030671E-4,1.085903272E-1,1.086203451E-1
3.969774083E0,-2.003381727E-3,-1.185797155E-3,1.124284714E-1,1.124525715E-1
3.979730083E0,-1.401251648E-3,3.580097109E-5,1.133121029E-1,1.133207723E-1
3.989686083E0,1.298394636E-3,-1.624680124E-3,1.192392334E-1,1.192573696E-1
3.999641083E0,1.446244190E-3,9.816652164E-4,1.178796962E-1,1.178926548E-1
4.009597083E0,1.303763129E-4,-9.922692552E-4,1.152801812E-1,1.152845253E-1
4.019553083E0,1.929806313E-3,-1.899102703E-3,1.117702946E-1,1.118030836E-1
4.029509083E0,-1.338957576E-3,-8.034780622E-4,1.046085209E-1,1.046201750E-1
4.039465083E0,-1.270670211E-3,3.784602042E-3,1.060845032E-1,1.061595951E-1
4.049421083E0,-1.194770215E-3,-4.289299250E-5,1.078078300E-1,1.078144588E-1
4.059377083E0,-1.398671418E-3,-8.460916579E-4,1.099213734E-1,1.099335276E-1
4.069333083E0,5.238645244E-4,2.508647740E-4,1.118705422E-1,1.118720500E-1
4.079289083E0,6.692629540E-4,1.252074726E-3,1.137664467E-1,1.137753049E-1
4.089244083E0,8.709600661E-5,5.532614887E-4,1.134404764E-1,1.134418589E-1
4.099200208E0,2.583155874E-4,1.594289206E-3,1.155638620E-1,1.155751474E-1
4.109156208E0,2.147029387E-3,9.948117658E-4,1.151417494E-1,1.151660620E-1
4.119112208E0,1.345987432E-3,5.283737555E-4,1.119322702E-1,1.119416097E-1
4.129068208E0,2.712721704E-3,7.906956598E-4,1.117482483E-1,1.117839660E-1
4.139024208E0,-9.758723900E-4,9.601600468E-4,1.098692790E-1,1.098778080E-1
4.148980208E0,-7.156815846E-4,1.525814645E-3,1.104671583E-1,1.104800134E-1
4.158936208E0,7.254374214E-4,-1.021344215E-4,1.150508374E-1,1.150531698E-1
4.168892208E0,-8.884381969E-4,1.380713657E-3,1.152444482E-1,1.152561431E-1
4.178847208E0,2.417883370E-4,2.185569145E-3,1.170398444E-1,1.170604987E-1
4.188803208E0,-7.976433262E-4,-7.039494812E-5,1.148461923E-1,1.148489838E-1
4.198759208E0,-1.247771084E-3,2.433769405E-4,1.140829846E-1,1.140900677E-1
4.208715208E0,-1.424072310E-3,1.354980282E-3,1.144608855E-1,1.144777632E-1
4.218671208E0,3.276541829E-4,-1.764615998E-3,1.145083457E-1,1.145224103E-1
4.228627208E0,-4.752889508E-4,2.314015292E-3,1.138606668E-1,1.138851702E-1
4.238583208E0,-1.020650961E-3,3.076605499E-4,1.126783341E-1,1.126833766E-1
4.248539208E0,1.902967226E-3,-4.004733637E-4,1.100319475E-1,1.100491305E-1
4.258495208E0,-1.189969480E-4,1.403786242E-3,1.125135347E-1,1.125223545E-1
4.268450208E0,9.952697437E-4,4.815338179E-4,1.153327525E-1,1.153380520E-1
4.278406208E0,-3.380761249E-3,-4.983777180E-4,1.149780229E-1,1.150287950E-1
4.288362208E0,-1.892291475E-4,3.602253273E-4,1.150451303E-1,1.150458498E-1
4.298318208E0,-9.508519433E-4,-1.675797626E-3,1.144147664E-1,1.144309888E-1
4.308274208E0,1.081140013E-3,4.451433197E-4,1.133961082E-1,1.134021356E-1
4.318230208E0,-2.627086593E-3,1.047492027E-3,1.154393852E-1,1.154740251E-1
4.328186208E0,2.384450054E-3,-2.429797314E-3,1.111264005E-1,1.111785340E-1
4.338142208E0,6.477050483E-4,-2.202559263E-4,1.089767516E-1,1.089788990E-1
4.348098208E0,1.203773078E-3,-3.989543766E-4,1.098742336E-1,1.098815519E-1
4.358054208E0,2.101621125E-3,-4.159351811E-4,1.107544079E-1,1.107751267E-1
4.368009208E0,-3.703248221E-4,-7.520262152E-4,1.122100949E-1,1.122132260E-1
4.377965208E0,1.546586864E-3,1.878858544E-3,1.196862757E-1,1.197110130E-1
4.387921208E0,-5.668977974E-4,-1.381915994E-3,1.187709495E-1,1.187803415E-1
4.397877208E0,-1.255714567E-3,1.389567740E-3,1.181695014E-1,1.181843424E-1
4.407833208E0,-1.595267560E-3,-2.810331061E-4,1.145412102E-1,1.145526634E-1
4.417789208E0,-2.639609156E-4,1.580487005E-3,1.081718877E-1,1.081837553E-1
4.427745208E0,1.383204246E-3,-6.677536294E-4,1.056160554E-1,1.056272234E-1
4.437701208E0,4.253236111E-4,2.139134333E-3,1.097324416E-1,1.097541140E-1
4.447657208E0,8.490325417E-4,-2.521649003E-5,1.147940457E-1,1.147971882E-1
4.457612208E0,-2.397861332E-3,-1.903064549E-4,1.181305125E-1,1.181549997E-1
4.467568208E0,-1.666823402E-3,-1.727749594E-3,1.164620444E-1,1.164867856E-1
4.477524208E0,-7.137772627E-5,2.503497526E-4,1.146863550E-1,1.146866505E-1
4.487480208E0,-2.100972692E-3,-1.104133204E-3,1.122785881E-1,1.123036711E-1
4.497436208E0,-5.013474729E-4,-6.842240691E-4,1.102336049E-1,1.102368684E-1
4.507392208E0,-2.284334041E-3,-2.372668125E-3,1.110386774E-1,1.110875133E-1
4.517348208E0,4.644272849E-6,2.849809825E-4,1.130748689E-1,1.130752281E-1
4.527304208E0,2.254203428E-4,1.226674765E-3,1.143302843E-1,1.143370870E-1
4.537260208E0,-1.374289626E-3,3.952570260E-4,1.131936014E-1,1.132026338E-1
4.547216208E0,-1.278948272E-3,9.627770633E-4,1.112779900E-1,1.112895041E-1
4.557171208E0,-1.258002128E-3,-5.096225068E-4,1.104303524E-1,1.104386935E-1
4.567127208E0,1.316475682E-3,-1.190858893E-3,1.119789779E-1,1.119930478E-1
4.577083208E0,-7.300225552E-4,-1.002270728E-3,1.137584001E-1,1.137651575E-1
4.587039208E0,-9.899470024E-4,-1.578046009E-3,1.159621626E-1,1.159771244E-1
4.596995208E0,4.613342462E-4,-1.482195221E-3,1.123350412E-1,1.123457663E-1
4.606951208E0,-2.306222916E-3,-3.290269524E-5,1.136429235E-1,1.136663267E-1
4.616907208E0,9.119566530E-4,-6.020972505E-4,1.127406955E-1,1.127459915E-1
4.626863208E0,-2.571724355E-3,2.187297679E-3,1.085209250E-1,1.085734277E-1
4.636819208E0,-1.510488801E-3,1.118074171E-3,1.092442274E-1,1.092603903E-1
4.646774208E0,-9.855795652E-4,-6.028609350E-4,1.116581261E-1,1.116641032E-1
4.656730208E0,2.011217875E-4,-1.023234800E-4,1.118545607E-1,1.118547883E-1
4.666686208E0,-2.042058855E-3,-2.197688445E-4,1.164740771E-1,1.164921840E-1
4.676642208E0,-2.689109184E-3,5.900245160E-4,1.185442582E-1,1.185762227E-1
4.686598208E0,7.831200492E-4,2.720439807E-4,1.169383749E-1,1.169413136E-1
4.696554208E0,-3.884595353E-4,-5.827071145E-4,1.182332560E-1,1.182353301E-1
4.706510208E0,-3.578332253E-4,8.201785386E-5,1.116611063E-1,1.116617098E-1
4.716466208E0,-1.469067065E-3,-8.826134726E-4,1.082455516E-1,1.082591179E-1
4.726422208E0,-3.175162710E-4,1.266025007E-3,1.082378253E-1,1.082456949E-1
4.736377208E0,-2.004168462E-3,1.182733104E-4,1.135942414E-1,1.136119816E-1
4.746333208E0,-5.047325976E-5,-1.712915488E-3,1.177802011E-1,1.177926670E-1
4.756289208E0,5.915713264E-4,-7.191812620E-4,1.157070324E-1,1.157107796E-1
4.766245208E0,-3.595450427E-3,2.941507846E-4,1.112033650E-1,1.112618631E-1
4.776201208E0,-2.176204463E-3,4.399884492E-4,1.090587750E-1,1.090813727E-1
4.786157208E0,1.435041893E-3,-5.877260119E-4,1.118931770E-1,1.119039223E-1
4.796113208E0,-2.074329881E-3,3.044050653E-3,1.145208627E-1,1.145800903E-1
4.806069208E0,-1.593629364E-3,-9.576156735E-4,1.159121022E-1,1.159270120E-1
4.816025208E0,-6.327317096E-4,-6.454838440E-4,1.157262027E-1,1.157297326E-1
4.825981208E0,-1.278548269E-3,-1.559946686E-4,1.111018956E-1,1.111093615E-1
4.835936208E0,1.275804592E-3,3.033616114E-3,1.104889438E-1,1.105379446E-1
4.845892208E0,-2.334110439E-3,-2.246366814E-3,1.104375422E-1,1.104850441E-1
4.855848208E0,9.959477466E-4,-1.951766200E-3,1.091209278E-1,1.091429255E-1
4.865804208E0,1.352811349E-3,-8.060736582E-4,1.121159196E-1,1.121269784E-1
4.875760208E0,-9.798933752E-4,1.770510338E-3,1.176469848E-1,1.176643868E-1
4.885716208E0,1.003895421E-3,8.778180927E-4,1.211133525E-1,1.211206940E-1
4.895672208E0,-2.166136634E-3,5.122637376E-4,1.198002100E-1,1.198208867E-1
4.905628208E0,-1.355736516E-3,-1.526120119E-3,1.191266924E-1,1.191441812E-1
4.915584208E0,-1.555817667E-3,1.827414148E-3,1.113727391E-1,1.113985952E-1
4.925539208E0,6.519429153E-4,-1.233622432E-3,1.081039757E-1,1.081129798E-1
4.935495208E0,1.648609876E-3,1.257900149E-4,1.059849560E-1,1.059978521E-1
4.945451208E0,-1.867295243E-3,-2.500886098E-3,1.103115231E-1,1.103556675E-1
4.955407208E0,-6.778722163E-4,2.358779311E-4,1.128652766E-1,1.128675588E-1
4.965363208E0,-9.583029896E-4,7.948754355E-4,1.182049140E-1,1.182114710E-1
4.975319208E0,9.365682490E-4,-2.307435498E-4,1.173707172E-1,1.173746807E-1
4.985275208E0,3.032685490E-4,-4.541827366E-4,1.154838651E-1,1.154851565E-1
4.995231208E0,-1.814722316E-3,2.088756301E-3,1.142454371E-1,1.142789395E-1
5.005187208E0,-1.388882753E-3,-1.765284687E-4,1.077497229E-1,1.077588184E-1
5.015142208E0,1.669750782E-4,1.556695439E-3,1.078281254E-1,1.078394909E-1
5.025098208E0,-7.542122621E-4,3.157521598E-3,1.065138578E-1,1.065633178E-1
5.035054208E0,-1.148558222E-4,2.366201021E-3,1.111485586E-1,1.111738016E-1
5.045010208E0,-3.416643012E-3,1.800012775E-3,1.153592840E-1,1.154239052E-1
5.054966208E0,-1.786290901E-3,4.652012140E-4,1.161613166E-1,1.161759817E-1
5.064922208E0,-3.631595289E-3,2.678604797E-4,1.156910062E-1,1.157483008E-1
5.074878208E0,4.668956390E-4,5.055572838E-4,1.127119362E-1,1.127140371E-1
5.084834208E0,-1.504376298E-3,-8.023213595E-4,1.103848666E-1,1.103980328E-1
5.094790208E0,2.371853916E-4,1.397674903E-3,1.079020053E-1,1.079113178E-1
5.104745500E0,-1.193997450E-3,9.718351066E-4,1.098402515E-1,1.098510398E-1
5.114700500E0,-2.308889292E-3,3.521144390E-4,1.152481735E-1,1.152718372E-1
5.124656500E0,1.260387944E-4,1.318574883E-3,1.171307564E-1,1.171382457E-1
5.134612500E0,-1.729295822E-3,5.952315405E-4,1.141865849E-1,1.142012301E-1
5.144568500E0,4.758016439E-4,2.647330984E-4,1.140534207E-1,1.140547204E-1
5.154524500E0,-9.608280379E-4,7.880935445E-4,1.142189652E-1,1.142257252E-1
5.164480500E0,-7.040991914E-4,6.493432447E-4,1.147997975E-1,1.148037931E-1
5.174436500E0,1.082126983E-4,-6.044004112E-5,1.172281206E-1,1.172281861E-1
5.184392500E0,-2.358673140E-3,-2.603492700E-3,1.169809848E-1,1.170337230E-1
5.194348500E0,-1.877028495E-3,-1.672955230E-3,1.138085723E-1,1.138363437E-1
5.204303500E0,-1.160105458E-3,-7.933126763E-4,1.115912274E-1,1.116000771E-1
5.214259500E0,-2.327143215E-3,-2.027899027E-4,1.086051390E-1,1.086302579E-1
5.224215500E0,1.158668078E-3,-1.746623777E-3,1.060333252E-1,1.060540393E-1
5.234171500E0,-3.077767324E-4,-1.002279110E-3,1.087364852E-1,1.087415400E-1
5.244127500E0,6.533227861E-5,-1.951429993E-3,1.132718474E-1,1.132886744E-1
5.254083500E0,2.791439183E-4,-8.493671194E-4,1.161067188E-1,1.161101610E-1
5.264039500E0,3.110617399E-7,1.070505939E-3,1.190633625E-1,1.190681749E-1
5.273995500E0,-6.361631677E-5,7.655257359E-4,1.171637326E-1,1.171662508E-1
5.283951500E0,1.477821264E-3,1.428779215E-4,1.135040149E-1,1.135137250E-1
5.293906500E0,1.062555006E-3,4.078717902E-4,1.094552726E-1,1.094611898E-1
5.303862500E0,-3.126331139E-3,3.070766572E-3,1.069654822E-1,1.070552098E-1
5.313818500E0,8.490477921E-4,-1.126835123E-4,1.107864156E-1,1.107897264E-1
5.323774500E0,-3.616251051E-4,8.625658229E-4,1.131691486E-1,1.131730135E-1
5.333730500E0,2.306862734E-3,1.088658348E-3,1.164901108E-1,1.165180359E-1
5.343686500E0,-9.003819432E-4,-1.218438148E-3,1.177955940E-1,1.178053363E-1
5.353642500E0,1.434617676E-3,-1.830384135E-4,1.161673293E-1,1.161763316E-1
5.363598500E0,-6.090921815E-4,-3.217887133E-4,1.101398021E-1,1.101419563E-1
5.373554500E0,-2.487062244E-3,6.960341707E-4,1.091312170E-1,1.091617720E-1
5.383510500E0,-1.275856746E-3,-9.117163718E-4,1.088196263E-1,1.088309244E-1
5.393465500E0,1.650341321E-3,-7.477030158E-5,1.112737730E-1,1.112860359E-1
5.403421500E0,-3.891075030E-4,-1.863567159E-4,1.158980876E-1,1.158988906E-1
5.413377500E0,-9.762139525E-4,-6.366735324E-4,1.174221709E-1,1.174279548E-1
5.423333500E0,2.200404648E-3,4.448359832E-4,1.149254590E-1,1.149473827E-1
5.433289500E0,-1.418624306E-3,1.993728802E-4,1.135757118E-1,1.135847462E-1
5.443245500E0,-4.782620817E-4,-9.748153389E-4,1.108454391E-1,1.108507572E-1
5.453201500E0,2.671721159E-3,1.169227995E-3,1.094733700E-1,1.095122090E-1
5.463157500E0,4.740806762E-4,2.254042774E-4,1.139357686E-1,1.139369779E-1
5.473113500E0,7.766878698E-4,1.184798777E-3,1.160375848E-1,1.160462325E-1
5.483068500E0,-2.448400017E-3,4.063565284E-4,1.168064401E-1,1.168328046E-1
5.493024500E0,7.773728576E-4,1.403179951E-3,1.111178771E-1,1.111294553E-1
5.502980500E0,1.966207987E-3,-1.877928153E-4,1.121991202E-1,1.122165042E-1
5.512936500E0,-1.542564249E-3,1.734711230E-3,1.099898145E-1,1.100143082E-1
5.522892500E0,-1.934581436E-3,-4.994142801E-4,1.108196527E-1,1.108376625E-1
5.532848500E0,6.982748164E-4,1.103843562E-3,1.125389934E-1,1.125465730E-1
5.542804500E0,1.217591111E-3,6.146207452E-4,1.146335676E-1,1.146416814E-1
5.552760500E0,-1.101015601E-3,-6.646895781E-4,1.182569042E-1,1.182638974E-1
5.562716500E0,-2.560427645E-3,1.755325124E-3,1.138357893E-1,1.138781097E-1
5.572672500E0,-2.172030043E-3,1.076080836E-3,1.117279530E-1,1.117542444E-1
5.582627500E0,7.563818945E-4,-1.683486626E-3,1.088735759E-1,1.088892179E-1
5.592583500E0,1.683710259E-3,2.307975665E-4,1.098278984E-1,1.098410462E-1
5.602539500E0,1.841635676E-3,1.418478787E-4,1.106484160E-1,1.106638320E-1
5.612495500E0,9.574788855E-4,9.907037020E-5,1.101567447E-1,1.101609504E-1
5.622451500E0,-3.401849419E-3,5.930867046E-4,1.143019572E-1,1.143541068E-1
5.632407500E0,-3.642062191E-3,-1.258058473E-3,1.163077876E-1,1.163715978E-1
5.642363500E0,4.629716277E-3,8.295932785E-4,1.147317290E-1,1.148280982E-1
5.652319500E0,-4.904204980E-5,-1.691468060E-4,1.122620776E-1,1.122622158E-1
5.662275500E0,5.807954585E-4,-7.851356640E-4,1.110580638E-1,1.110623577E-1
5.672230500E0,4.271946382E-4,-1.872256398E-4,1.107584611E-1,1.107594431E-1
5.682186500E0,-1.027744729E-4,-1.064470969E-3,1.158427000E-1,1.158476362E-1
5.692142500E0,6.376319798E-4,2.851099242E-3,1.148310676E-1,1.148682264E-1
5.702098500E0,-1.031903783E-3,1.729109325E-3,1.131636649E-1,1.131815785E-1
5.712054500E0,-8.061232511E-4,-9.889062494E-4,1.115940511E-1,1.116013442E-1
5.722010500E0,9.699388174E-4,7.269689813E-4,1.110140160E-1,1.110206333E-1
5.731966500E0,-8.503578138E-4,-1.583633013E-3,1.118381545E-1,1.118525986E-1
5.741922500E0,8.716421435E-4,1.664624549E-3,1.158755049E-1,1.158907389E-1
5.751878500E0,-2.129710279E-3,-1.527180895E-3,1.180667579E-1,1.180958394E-1
5.761833500E0,4.631435731E-4,3.591356799E-4,1.161359623E-1,1.161374411E-1
5.771789500E0,-1.494028838E-3,4.181703553E-4,1.158418432E-1,1.158522318E-1
5.781745500E0,6.394294323E-4,7.683765143E-4,1.129954606E-1,1.129998823E-1
5.791701500E0,1.159835723E-3,-5.691442639E-4,1.076992303E-1,1.077069791E-1
5.801657500E0,9.220155189E-4,6.686924025E-4,1.125216857E-1,1.125274500E-1
5.811613500E0,1.243479550E-3,-1.676096581E-3,1.133411899E-1,1.133604026E-1
5.821569500E0,8.171073860E-4,-8.214879781E-4,1.188315675E-1,1.188372161E-1
5.831525500E0,-3.281331621E-3,-1.043872908E-4,1.185350418E-1,1.185804966E-1
5.841481500E0,2.312638331E-3,5.126679316E-4,1.173587292E-1,1.173826327E-1
5.851436500E0,-5.969617050E-4,-1.046651974E-3,1.127581224E-1,1.127645601E-1
5.861392500E0,-8.134767413E-4,-2.135618590E-3,1.103972271E-1,1.104208783E-1
5.871348500E0,-2.400556114E-4,-6.610322744E-4,1.082486957E-1,1.082509802E-1
5.881304500E0,-2.082696650E-3,3.970414400E-4,1.128298640E-1,1.128497828E-1
5.891260500E0,-2.603218891E-4,1.012403518E-3,1.152986139E-1,1.153033525E-1
5.901216500E0,-5.327630788E-4,-3.615217283E-4,1.167476401E-1,1.167494154E-1
5.911172500E0,-3.433651756E-3,-1.080016606E-3,1.167438030E-1,1.167992806E-1
5.921128500E0,1.443128800E-3,-2.646488138E-3,1.131227016E-1,1.131628567E-1
5.931084500E0,-7.351704407E-4,1.857987605E-3,1.132445112E-1,1.132621380E-1
5.941040500E0,2.557918197E-4,-2.103463747E-3,1.091192737E-1,1.091398456E-1
5.950995500E0,-1.149605261E-3,1.523967832E-3,1.114808694E-1,1.114972121E-1
5.960951500E0,3.337091766E-5,6.395326927E-4,1.127059236E-1,1.127077430E-1
5.970907500E0,-3.626337275E-4,8.556079119E-4,1.146505624E-1,1.146543284E-1
5.980863500E0,-5.991226062E-4,1.721934415E-3,1.117037758E-1,1.117186535E-1
5.990819500E0,5.707996897E-4,-5.214856938E-4,1.076942682E-1,1.076970435E-1
6.000775500E0,-3.019182477E-4,-5.143787712E-5,1.091651320E-1,1.091655617E-1
6.010731500E0,1.336126705E-3,-5.740197375E-4,1.076855436E-1,1.076953622E-1
6.020687500E0,3.677311586E-3,-4.286114126E-4,1.106642857E-1,1.107261959E-1
6.030643500E0,-1.226516906E-3,-1.737122424E-3,1.138664708E-1,1.138863253E-1
6.040598500E0,1.725597191E-3,-2.482540905E-3,1.144835278E-1,1.145234423E-1
6.050554500E0,3.263942199E-4,-1.134966500E-3,1.155232266E-1,1.155292628E-1
6.060510500E0,-3.433907405E-4,2.318620682E-3,1.132539436E-1,1.132781959E-1
6.070466500E0,-1.268431079E-4,1.135775819E-3,1.126090810E-1,1.126148800E-1
6.080422500E0,-1.335385488E-3,-3.089886159E-4,1.093632206E-1,1.093718097E-1
6.090378500E0,-4.428059328E-4,-6.813304499E-4,1.093113497E-1,1.093143699E-1
6.100334708E0,-1.192485681E-3,5.354458001E-3,1.141646951E-1,1.142964123E-1
6.110290708E0,-5.993582308E-4,2.193924971E-3,1.191367134E-1,1.191584199E-1
6.120246708E0,-1.114946324E-3,2.636658028E-4,1.186288521E-1,1.186343844E-1
6.130202708E0,1.573862974E-3,-5.166791379E-5,1.174077913E-1,1.174183511E-1
6.140157708E0,-6.229786668E-4,-1.063669100E-3,1.164487824E-1,1.164553065E-1
6.150113708E0,-1.382019138E-3,1.962585375E-4,1.133325025E-1,1.133410986E-1
6.160069708E0,-8.627027273E-4,3.648372367E-4,1.102919728E-1,1.102959501E-1
6.170025708E0,-1.218877733E-4,-9.873788804E-5,1.115585789E-1,1.115586892E-1
6.179981708E0,6.360479165E-4,-5.522742867E-4,1.125804335E-1,1.125835848E-1
6.189937708E0,-2.314861864E-3,1.231869683E-4,1.155697778E-1,1.155930244E-1
6.199893708E0,3.214012831E-4,1.202300191E-3,1.144299433E-1,1.144367106E-1
6.209849708E0,9.038968710E-4,-1.121995039E-3,1.157949269E-1,1.158038902E-1
6.219805708E0,-3.467234783E-4,1.797582954E-4,1.124625131E-1,1.124631913E-1
6.229760708E0,2.254537772E-3,-1.415181905E-3,1.112852320E-1,1.113170631E-1
6.239716708E0,6.433252711E-4,1.312160864E-3,1.108969450E-1,1.109065735E-1
6.249672708E0,-5.564419553E-4,-1.781620085E-5,1.145025939E-1,1.145039473E-1
6.259628708E0,-2.214792417E-3,7.382547483E-4,1.138336062E-1,1.138575436E-1
6.269584708E0,1.128798234E-3,1.961663365E-3,1.119107604E-1,1.119336437E-1
6.279540708E0,-4.994585179E-4,-5.648005754E-5,1.105224565E-1,1.105235994E-1
6.289496708E0,1.724974718E-4,-6.263330579E-5,1.118916273E-1,1.118917778E-1
6.299452708E0,1.129104989E-3,1.621549018E-3,1.137896627E-1,1.138068172E-1
6.309408708E0,-2.028602641E-3,-3.244616091E-4,1.126660779E-1,1.126848065E-1
6.319364708E0,1.760809217E-3,2.055339515E-3,1.121190637E-1,1.121517246E-1
6.329319708E0,-2.032956108E-4,-1.935442910E-3,1.102833003E-1,1.103004696E-1
6.339275708E0,-3.270457964E-3,2.076876350E-3,1.154652834E-1,1.155302600E-1
6.349231708E0,-1.013811678E-3,1.762751490E-3,1.150137633E-1,1.150317385E-1
6.359187708E0,3.555858275E-4,-1.167524606E-3,1.153378710E-1,1.153443282E-1
6.369143708E0,-6.854771636E-4,8.892547339E-4,1.143092513E-1,1.143147654E-1
6.379099708E0,-2.544896444E-3,8.410522714E-4,1.142461300E-1,1.142775660E-1
6.389055708E0,3.925943747E-5,9.799469262E-4,1.099031568E-1,1.099075325E-1
6.399011708E0,3.670946462E-4,2.405803651E-3,1.129705831E-1,1.129967933E-1
6.408967708E0,-3.256641794E-4,1.002123579E-3,1.118835360E-1,1.118884978E-1
6.418922708E0,6.498517469E-4,-1.252775081E-3,1.141903698E-1,1.141990907E-1
6.428878708E0,-8.184041362E-4,-1.637077890E-3,1.166881397E-1,1.167024925E-1
6.438834708E0,-1.377401641E-3,-1.160638407E-3,1.120949909E-1,1.121094613E-1
6.448790708E0,-3.989506513E-5,8.303392678E-5,1.147433370E-1,1.147433740E-1
6.458746708E0,-2.492133761E-3,-7.718410343E-4,1.129145473E-1,1.129446832E-1
6.468702708E0,-1.129531534E-3,4.682140425E-4,1.117154360E-1,1.117221272E-1
6.478658708E0,1.815427095E-4,-1.184800640E-4,1.126190498E-1,1.126192585E-1
6.488614708E0,-3.744834103E-4,2.711601555E-4,1.100466996E-1,1.100476709E-1
6.498570708E0,5.107512698E-4,-1.238852739E-3,1.132464856E-1,1.132544133E-1
6.508526708E0,1.242605853E-3,6.294948980E-4,1.179117113E-1,1.179199390E-1
6.518481708E0,-1.163293840E-3,1.594890840E-3,1.145963445E-1,1.146133461E-1
6.528437708E0,2.206777688E-3,-1.173265278E-3,1.128756627E-1,1.129033288E-1
6.538393708E0,-1.642821589E-3,-2.326147631E-3,1.128889844E-1,1.129248981E-1
6.548349708E0,-9.808312170E-4,-1.360602677E-3,1.110492721E-1,1.110619382E-1
6.558305708E0,-4.705695901E-4,3.129281104E-4,1.115435585E-1,1.115449901E-1
6.568261708E0,-1.292967238E-3,2.507645637E-3,1.119599715E-1,1.119955145E-1
6.578217708E0,3.496704157E-4,6.588790566E-4,1.113050953E-1,1.113075946E-1
6.588173708E0,2.745030215E-4,9.528212249E-4,1.122995317E-1,1.123039093E-1
6.598129708E0,-5.838337820E-4,-1.989966258E-4,1.097650006E-1,1.097667337E-1
6.608084708E0,-1.549890731E-4,-1.661865041E-3,1.137751788E-1,1.137874208E-1
6.618040708E0,-6.945454516E-4,1.347240061E-3,1.153376549E-1,1.153476142E-1
6.627996708E0,-2.534375060E-3,-1.280170865E-3,1.171179265E-1,1.171523393E-1
6.637952708E0,-1.095202751E-3,-5.019959062E-4,1.131516770E-1,1.131580906E-1
6.647908708E0,6.503633922E-4,1.257640310E-3,1.116807684E-1,1.116897429E-1
6.657864708E0,7.158771623E-4,-3.264080733E-4,1.126956940E-1,1.126984404E-1
6.667820708E0,-1.500882441E-3,-4.003802314E-4,1.098972410E-1,1.099082187E-1
6.677776708E0,1.478129532E-3,-8.733579889E-4,1.118165851E-1,1.118297649E-1
6.687732708E0,-1.127692172E-3,1.329306513E-3,1.122147217E-1,1.122282608E-1
6.697688708E0,-1.117305830E-3,-9.527569637E-4,1.148392707E-1,1.148486579E-1
6.707643708E0,5.686853547E-4,5.833292380E-4,1.191965789E-1,1.191993628E-1
6.717599708E0,-1.937777270E-4,6.128903478E-4,1.161818802E-1,1.161836584E-1
6.727555708E0,-1.169856172E-3,-1.688404009E-4,1.160166562E-1,1.160226770E-1
6.737511708E0,-7.038027979E-4,1.960126683E-4,1.145761460E-1,1.145784753E-1
6.747467708E0,-1.363442047E-3,-1.217909157E-4,1.113810018E-1,1.113894132E-1
6.757423708E0,-1.164770219E-3,1.429234631E-3,1.099990830E-1,1.100145339E-1
6.767379708E0,4.591450561E-4,-9.491443634E-4,1.104070246E-1,1.104120590E-1
6.777335708E0,-2.049026079E-5,-2.548582852E-4,1.089561358E-1,1.089564358E-1
6.787291708E0,2.794671804E-3,-7.373392582E-4,1.122160554E-1,1.122532714E-1
6.797246708E0,-7.555882912E-4,-5.615707487E-4,1.138935834E-1,1.138974742E-1
6.807202708E0,-6.759501994E-4,1.751681790E-3,1.165696904E-1,1.165848104E-1
6.817158708E0,1.221057028E-5,3.809239715E-3,1.158439741E-1,1.159065864E-1
6.827114708E0,-1.957155997E-3,2.189812250E-3,1.120433807E-1,1.120818670E-1
6.837070708E0,9.134737775E-5,7.644882426E-4,1.103698537E-1,1.103725391E-1
6.847026708E0,-7.682805881E-5,-6.501004100E-4,1.116635576E-1,1.116654764E-1
6.856982708E0,5.831032759E-4,-1.530009322E-3,1.133416146E-1,1.133534408E-1
6.866938708E0,-1.701067435E-3,-1.222729683E-3,1.179229915E-1,1.179415984E-1
6.876894708E0,-7.394000422E-4,1.827654429E-3,1.130238399E-1,1.130410342E-1
6.886850708E0,3.131466219E-4,-5.173990503E-4,1.104497463E-1,1.104514020E-1
6.896805708E0,6.923807086E-4,-1.754703000E-3,1.076981723E-1,1.077146912E-1
6.906761708E0,-7.808124647E-4,-1.551440917E-3,1.113578826E-1,1.113714266E-1
6.916717708E0,-1.810684334E-4,9.109182283E-4,1.131504551E-1,1.131542665E-1
6.926673708E0,1.039491966E-3,3.527477384E-5,1.158438697E-1,1.158485388E-1
6.936629708E0,-1.441242406E-3,-2.195890993E-4,1.151154935E-1,1.151247248E-1
6.946585708E0,-2.258503810E-4,-2.209490165E-3,1.120441258E-1,1.120661366E-1
6.956541708E0,4.266240867E-4,-9.641963989E-4,1.098869592E-1,1.098920174E-1
6.966497708E0,-1.363267889E-3,1.230584458E-3,1.076868773E-1,1.077025365E-1
6.976453708E0,-3.017317504E-4,-1.987349242E-4,1.138821840E-1,1.138827572E-1
6.986408708E0,2.826459240E-4,5.807708949E-4,1.149776503E-1,1.149794645E-1
6.996364708E0,4.861115012E-4,1.810618676E-3,1.163467839E-1,1.163618871E-1
7.006320708E0,-4.706589039E-3,-2.371510491E-4,1.177565530E-1,1.178508124E-1
7.016276708E0,3.483567853E-4,-4.747044295E-4,1.115130335E-1,1.115145880E-1
7.026232708E0,-1.332900254E-3,4.285657778E-4,1.121681184E-1,1.121768562E-1
7.036188708E0,-1.960607246E-3,2.048300579E-3,1.107723564E-1,1.108086389E-1
7.046144708E0,-1.153648365E-3,8.546160534E-4,1.124811471E-1,1.124903094E-1
7.056100708E0,-3.645219840E-5,1.576066017E-3,1.126521230E-1,1.126631534E-1
7.066056708E0,2.988011111E-4,1.134010963E-3,1.133610010E-1,1.133670667E-1
7.076011708E0,1.745696412E-3,-2.223436721E-3,1.119074523E-1,1.119431508E-1
7.085967708E0,-2.810326405E-3,6.304373965E-4,1.148366109E-1,1.148727234E-1
7.095923708E0,-2.874774858E-3,-5.562668666E-4,1.124466881E-1,1.124848053E-1
7.105879958E0,-1.111714635E-3,3.112778068E-4,1.101733074E-1,1.101793559E-1
7.115835958E0,1.332534477E-3,4.513598979E-4,1.120044962E-1,1.120133319E-1
7.125791958E0,1.354118576E-3,-3.823945299E-4,1.126503721E-1,1.126591594E-1
7.135747958E0,2.888541203E-4,-8.705519140E-4,1.090662926E-1,1.090701494E-1
7.145703958E0,-7.129590958E-4,8.964445442E-5,1.114619002E-1,1.114642164E-1
7.155659958E0,-1.809648937E-3,-1.456054859E-3,1.140249297E-1,1.140485840E-1
7.165615958E0,1.426925883E-5,-9.346837178E-4,1.160497367E-1,1.160535016E-1
7.175570958E0,-1.076827990E-3,-2.635112032E-3,1.125719100E-1,1.126078963E-1
7.185526958E0,-1.137733459E-3,8.682431653E-4,1.101442873E-1,1.101535851E-1
7.195482958E0,-1.951328944E-3,-1.358692534E-3,1.099458858E-1,1.099715943E-1
7.205438958E0,2.863910049E-4,8.915131912E-4,1.126266718E-1,1.126305643E-1
7.215394958E0,6.501788739E-4,-6.536524743E-4,1.121627465E-1,1.121665355E-1
7.225350958E0,-4.585913848E-4,1.957688481E-3,1.172147617E-1,1.172320059E-1
7.235306958E0,-5.494053476E-4,8.644610643E-4,1.145366877E-1,1.145412676E-1
7.245262958E0,-1.859440934E-3,2.391790971E-3,1.091018096E-1,1.091438639E-1
7.255218958E0,2.061065752E-4,8.490215987E-4,1.055875048E-1,1.055911194E-1
7.265173958E0,1.450022683E-4,6.389245391E-5,1.069695801E-1,1.069696974E-1
7.275129958E0,-1.209481619E-3,-1.751584001E-3,1.125057563E-1,1.125258908E-1
7.285085958E0,7.925190730E-4,2.257279120E-3,1.150766090E-1,1.151014740E-1
7.295041958E0,-6.019121502E-4,-1.382995397E-3,1.185562983E-1,1.185658924E-1
7.304997958E0,-1.270177076E-3,1.170526259E-3,1.162047312E-1,1.162175676E-1
7.314953958E0,2.954953816E-4,6.211828440E-5,1.139271930E-1,1.139275931E-1
7.324909958E0,-6.433471572E-4,2.455822192E-3,1.081756726E-1,1.082054578E-1
7.334865958E0,-1.054272754E-3,1.918692142E-4,1.085016429E-1,1.085069345E-1
7.344821958E0,-2.434141003E-3,6.648823619E-4,1.115835533E-1,1.116120803E-1
7.354776958E0,-8.173359092E-4,3.399765119E-4,1.143335328E-1,1.143369596E-1
7.364732958E0,3.928047372E-4,8.865557611E-4,1.176237166E-1,1.176277135E-1
7.374688958E0,2.551192883E-4,-1.542074606E-4,1.189917848E-1,1.189921582E-1
7.384644958E0,4.932963056E-4,3.041662276E-4,1.178739965E-1,1.178754211E-1
7.394600958E0,-2.792866435E-4,-9.816074744E-4,1.132118627E-1,1.132164627E-1
7.404556958E0,3.466438968E-3,-1.681970432E-3,1.072957665E-1,1.073649232E-1
7.414512958E0,-1.375986729E-3,-2.896692604E-4,1.061892211E-1,1.061985308E-1
7.424468958E0,5.403286777E-4,-1.179808751E-3,1.093801633E-1,1.093878605E-1
7.434424958E0,-7.331948727E-4,2.819194458E-3,1.145544201E-1,1.145914508E-1
7.444380958E0,6.699779769E-4,-5.755461752E-4,1.156295389E-1,1.156329122E-1
7.454335958E0,-6.638607010E-5,-3.616949543E-4,1.170782968E-1,1.170788744E-1
7.464291958E0,-2.368262736E-3,5.860589445E-4,1.162965447E-1,1.163221322E-1
7.474247958E0,1.750049647E-3,-2.120900899E-4,1.131953001E-1,1.132090262E-1
7.484203958E0,-2.110421192E-3,1.051793806E-3,1.116142869E-1,1.116391920E-1
7.494159958E0,2.285658848E-3,5.553811789E-4,1.108811200E-1,1.109060659E-1
7.504115958E0,-9.543728083E-6,4.291906953E-5,1.148047596E-1,1.148047680E-1
7.514071958E0,-7.744035684E-4,-6.180778146E-4,1.157704219E-1,1.157746618E-1
7.524027958E0,7.137366338E-4,-1.865259372E-3,1.119906530E-1,1.120084594E-1
7.533983958E0,-5.589879584E-4,-5.589788780E-4,1.125906631E-1,1.125934383E-1
7.543939958E0,1.839018194E-3,2.220356837E-4,1.086386889E-1,1.086544800E-1
7.553894958E0,-1.338665606E-3,-1.388910227E-3,1.111090332E-1,1.111257772E-1
7.563850958E0,-5.840705708E-4,-5.492456257E-4,1.144537628E-1,1.144565709E-1
7.573806958E0,3.296599025E-4,-4.302021116E-4,1.166378185E-1,1.166390777E-1
7.583762958E0,1.432016725E-3,1.899740659E-3,1.170749441E-1,1.170991128E-1
7.593718958E0,-1.516901422E-3,7.042475045E-4,1.189844310E-1,1.189961839E-1
7.603674958E0,9.563377826E-4,-7.421635091E-4,1.129651517E-1,1.129716375E-1
7.613630958E0,2.604568144E-3,-8.233906701E-4,1.079834402E-1,1.080179851E-1
7.623586958E0,2.168912906E-4,1.551663503E-3,1.065829918E-1,1.065945066E-1
7.633542958E0,2.925250446E-4,6.381990388E-4,1.049203798E-1,1.049227286E-1
7.643497958E0,-1.374105224E-3,3.740126267E-4,1.125821397E-1,1.125911463E-1
7.653453958E0,-2.086766995E-3,4.104981199E-4,1.166160256E-1,1.166354171E-1
7.663409958E0,5.615308182E-4,2.522659488E-3,1.162934601E-1,1.163221733E-1
7.673365958E0,-2.431329805E-3,-3.477465361E-5,1.208751574E-1,1.208996123E-1
7.683321958E0,-1.242839964E-3,-3.870027140E-4,1.155370772E-1,1.155444098E-1
7.693277958E0,-8.865089621E-4,1.939534210E-3,1.131966934E-1,1.132167791E-1
7.703233958E0,-3.497171914E-3,-6.102155894E-4,1.071841717E-1,1.072429449E-1
7.713189958E0,-1.250773203E-4,-4.775635898E-5,1.044230089E-1,1.044230947E-1
7.723145958E0,2.699832665E-3,9.108353406E-4,1.090575531E-1,1.090947689E-1
7.733101958E0,-1.918277703E-4,7.755467668E-4,1.098418534E-1,1.098447587E-1
7.743056958E0,-3.072645050E-3,1.481411047E-3,1.135691032E-1,1.136203191E-1
7.753012958E0,-2.132283058E-3,-2.197745256E-3,1.180085912E-1,1.180483135E-1
7.762968958E0,-4.053646233E-3,1.132561825E-3,1.193048656E-1,1.193790840E-1
7.772924958E0,1.443917165E-3,2.344833221E-3,1.145162359E-1,1.145493406E-1
7.782880958E0,1.345393248E-4,8.105393499E-4,1.149566695E-1,1.149596057E-1
7.792836958E0,9.049917571E-4,-4.912139848E-4,1.098519191E-1,1.098567451E-1
7.802792958E0,-1.310766209E-3,7.461765781E-4,1.106340885E-1,1.106443692E-1
7.812748958E0,2.187956125E-5,5.035623908E-4,1.117795110E-1,1.117806474E-1
7.822704958E0,-1.122518210E-3,-1.835821196E-3,1.115905866E-1,1.116113314E-1
7.832659958E0,-3.042391036E-3,3.202346619E-3,1.144351065E-1,1.145203247E-1
7.842615958E0,-6.593996659E-4,9.346334264E-4,1.135437563E-1,1.135495176E-1
7.852571958E0,8.479495300E-4,-3.961483017E-4,1.118872687E-1,1.118911831E-1
7.862527958E0,5.783871748E-4,1.130428165E-3,1.142754853E-1,1.142825399E-1
7.872483958E0,-8.474693168E-4,-3.114072606E-4,1.127601415E-1,1.127637561E-1
7.882439958E0,-6.416065153E-4,-5.765417591E-4,1.144127399E-1,1.144159915E-1
7.892395958E0,9.544258937E-4,-9.171599522E-4,1.150910482E-1,1.150986598E-1
7.902351958E0,3.132284619E-4,-4.067001864E-4,1.144427806E-1,1.144439319E-1
7.912307958E0,8.687637746E-4,-2.828631550E-4,1.139724702E-1,1.139761322E-1
7.922263958E0,2.271276899E-4,1.863981597E-3,1.102942154E-1,1.103101988E-1
7.932218958E0,1.561904093E-3,-4.971763119E-4,1.081112251E-1,1.081236501E-1
7.942174958E0,8.082460845E-4,1.349207014E-5,1.108241305E-1,1.108270785E-1
7.952130958E0,1.700405031E-3,1.240676269E-3,1.143933013E-1,1.144126656E-1
7.962086958E0,-9.360550903E-4,2.122929785E-3,1.164247543E-1,1.164478700E-1
7.972042958E0,-2.444469370E-3,-3.295755014E-4,1.174894869E-1,1.175153760E-1
7.981998958E0,-2.032943536E-3,-8.206777275E-4,1.154735833E-1,1.154943930E-1
7.991954958E0,-9.096646681E-5,4.644785076E-5,1.119012237E-1,1.119012703E-1
8.001910958E0,-1.160037005E-3,-8.792895824E-5,1.092343256E-1,1.092405204E-1
8.011866958E0,-1.509650610E-4,-1.871181652E-3,1.092843935E-1,1.093005159E-1
8.021822958E0,-5.975139793E-4,1.922727562E-3,1.109896153E-1,1.110078764E-1
8.031777958E0,2.818618668E-4,-1.743646339E-3,1.115030721E-1,1.115170607E-1
8.041733958E0,-6.256133784E-4,1.717709005E-3,1.147439852E-1,1.147585468E-1
8.051689958E0,-3.233646741E-3,1.280680299E-4,1.158683673E-1,1.159135514E-1
8.061645958E0,-4.340792075E-4,-1.592586748E-3,1.136872396E-1,1.136992225E-1
8.071601958E0,-2.731321845E-3,-4.732608795E-4,1.139570177E-1,1.139907276E-1
8.081557958E0,-1.896288013E-3,-9.954292327E-4,1.149841473E-1,1.150040908E-1
8.091513958E0,-1.004661666E-3,6.557442248E-5,1.136517674E-1,1.136562267E-1
8.101469333E0,1.552100293E-4,-1.344089396E-3,1.113519743E-1,1.113601942E-1
8.111425333E0,1.840724610E-3,3.057383001E-4,1.098941565E-1,1.099099967E-1
8.121380333E0,2.530017635E-3,2.050091513E-3,1.113182083E-1,1.113658267E-1
8.131336333E0,3.187949769E-4,-7.797833532E-4,1.091519892E-1,1.091552401E-1
8.141292333E0,1.369416597E-3,-2.124318853E-4,1.108919829E-1,1.109006416E-1
8.151248333E0,-2.000813838E-3,2.225425560E-3,1.139346436E-1,1.139739390E-1
8.161204333E0,-1.415437087E-3,-8.728867397E-4,1.158338562E-1,1.158457924E-1
8.171160333E0,2.903176937E-4,-2.581038512E-3,1.128615066E-1,1.128913891E-1
8.181116333E0,1.340238843E-3,-4.967357963E-4,1.118116826E-1,1.118208180E-1
8.191072333E0,-1.075248234E-3,-6.008651108E-4,1.102984771E-1,1.103053546E-1
8.201028333E0,1.208672067E-3,-8.586710319E-4,1.072497442E-1,1.072599918E-1
8.210984333E0,-8.552777581E-4,-1.524460502E-3,1.100516543E-1,1.100655354E-1
8.220939333E0,-1.958535286E-3,2.226316836E-3,1.098037735E-1,1.098438028E-1
8.230895333E0,-1.965193311E-3,-5.034226924E-4,1.159916222E-1,1.160093610E-1
8.240851333E0,1.256248448E-3,-2.126913518E-3,1.131703779E-1,1.131973337E-1
8.250807333E0,-8.324687369E-4,-1.557795331E-3,1.148665473E-1,1.148801263E-1
8.260763333E0,-1.228329726E-3,-2.989126369E-4,1.148968488E-1,1.149038033E-1
8.270719333E0,-1.220872859E-3,-2.411222085E-4,1.130081341E-1,1.130149859E-1
8.280675333E0,-9.921602905E-4,-2.706690691E-3,1.115656570E-1,1.116028959E-1
8.290631333E0,1.257411903E-3,-2.901377156E-4,1.113813668E-1,1.113888421E-1
8.300587333E0,-2.126847394E-4,3.549754620E-4,1.099619120E-1,1.099626907E-1
8.310542333E0,-1.892489381E-4,-1.484470442E-3,1.121180058E-1,1.121279924E-1
8.320498333E0,1.848409884E-4,1.135456376E-3,1.107063666E-1,1.107123436E-1
8.330454333E0,-4.718943965E-4,1.635598019E-3,1.131625995E-1,1.131754028E-1
8.340410333E0,3.119139001E-3,-5.200728774E-4,1.088509932E-1,1.088969156E-1
8.350366333E0,1.528965542E-3,-7.048957050E-4,1.127977967E-1,1.128103610E-1
8.360322333E0,6.092689000E-4,-2.624357119E-3,1.139628738E-1,1.139947151E-1
8.370278333E0,3.591980785E-4,-1.832599752E-3,1.165048629E-1,1.165198289E-1
8.380234333E0,8.121932624E-4,2.409128938E-3,1.141603291E-1,1.141886347E-1
8.390190333E0,-1.143632224E-3,-2.883868292E-4,1.117704064E-1,1.117766290E-1
8.400146333E0,-3.250909504E-4,-4.325201735E-4,1.125694513E-1,1.125707517E-1
8.410101333E0,-1.247876324E-3,1.592014916E-3,1.118669212E-1,1.118852080E-1
8.420057333E0,2.323865192E-3,1.771161333E-4,1.107943505E-1,1.108188604E-1
8.430013333E0,-2.070350572E-3,1.298573799E-3,1.132031828E-1,1.132295599E-1
8.439969333E0,-3.062982112E-3,1.052206382E-3,1.127489060E-1,1.127954113E-1
8.449925333E0,3.801315557E-3,-1.797375269E-3,1.125571579E-1,1.126356708E-1
8.459881333E0,-2.941225655E-3,8.046524599E-4,1.129693165E-1,1.130104630E-1
8.469837333E0,-9.595674928E-4,-6.460398436E-5,1.109833941E-1,1.109875610E-1
8.479793333E0,-1.109745586E-3,-2.153925598E-4,1.101131737E-1,1.101189764E-1
8.489749333E0,-6.940260064E-4,-3.669410944E-5,1.092761457E-1,1.092783558E-1
8.499704333E0,9.938828880E-4,1.925305463E-3,1.085751429E-1,1.085967599E-1
8.509660333E0,-1.312947134E-3,-5.506351590E-4,1.132407412E-1,1.132496909E-1
8.519616333E0,-4.826576915E-4,2.166647464E-3,1.154510528E-1,1.154723902E-1
8.529572333E0,4.168134183E-6,-2.227568068E-3,1.143735424E-1,1.143952327E-1
8.539528333E0,3.176440950E-4,-6.245393306E-4,1.152892485E-1,1.152913777E-1
8.549484333E0,-2.102370374E-3,-3.747344017E-4,1.152056232E-1,1.152254139E-1
8.559440333E0,-3.760994878E-4,1.573344693E-3,1.126313582E-1,1.126429746E-1
8.569396333E0,1.805012580E-4,-1.522580162E-3,1.090006679E-1,1.090114510E-1
8.579352333E0,1.880581956E-3,-5.832817405E-4,1.112255827E-1,1.112430090E-1
8.589308333E0,-8.938992396E-4,-8.956696838E-4,1.112980172E-1,1.113052106E-1
8.599263333E0,4.607299343E-4,9.873844683E-4,1.103901938E-1,1.103955709E-1
8.609219333E0,1.827464206E-3,-7.987972349E-4,1.117215082E-1,1.117393087E-1
8.619175333E0,-1.298562624E-3,-1.549447887E-3,1.097400561E-1,1.097586760E-1
8.629131333E0,-2.932192292E-4,-2.189325169E-4,1.157617345E-1,1.157623129E-1
8.639087333E0,1.467740862E-3,9.603155777E-4,1.132624149E-1,1.132759953E-1
8.649043333E0,5.457545631E-4,1.974713989E-3,1.134802625E-1,1.134987547E-1
8.658999333E0,4.040179774E-4,1.579940319E-3,1.125053316E-1,1.125171502E-1
8.668955333E0,-5.898736417E-4,1.012154855E-3,1.147660911E-1,1.147720701E-1
8.678911333E0,2.093804069E-4,8.246973157E-4,1.136599705E-1,1.136631552E-1
8.688866333E0,1.502611558E-3,-1.463224180E-3,1.145105809E-1,1.145297865E-1
8.698822333E0,1.552903559E-4,1.125057228E-3,1.096948460E-1,1.097007252E-1
8.708778333E0,4.849745892E-5,-6.326287985E-4,1.124802455E-1,1.124820350E-1
8.718734333E0,-1.204989618E-3,-6.159907207E-4,1.106063873E-1,1.106146661E-1
8.728690333E0,-5.535804667E-4,6.820335984E-4,1.109203771E-1,1.109238553E-1
8.738646333E0,1.949800178E-3,-6.702970713E-4,1.140531600E-1,1.140717946E-1
8.748602333E0,-2.266782569E-3,3.797877580E-4,1.145061627E-1,1.145292270E-1
8.758558333E0,7.847347297E-5,-6.819050759E-4,1.143611819E-1,1.143632418E-1
8.768514333E0,-5.119494162E-4,-6.339680403E-4,1.168581620E-1,1.168610030E-1
8.778470333E0,-5.060620606E-5,-1.738191582E-3,1.156954765E-1,1.157085440E-1
8.788425333E0,5.659157177E-4,-1.391181722E-3,1.129641384E-1,1.129741219E-1
8.798381333E0,-1.065541292E-3,2.432661131E-4,1.116063520E-1,1.116117036E-1
8.808337333E0,-4.122678656E-4,-9.959023446E-4,1.112348437E-1,1.112400658E-1
8.818293333E0,-2.181902761E-3,5.118269473E-5,1.097908244E-1,1.098125149E-1
8.828249333E0,-1.095066778E-3,-1.301793382E-4,1.128728986E-1,1.128782856E-1
8.838205333E0,-6.497388240E-4,1.036914997E-3,1.124415249E-1,1.124481830E-1
8.848161333E0,-4.089889117E-4,-1.528241672E-3,1.149315834E-1,1.149424711E-1
8.858117333E0,1.002067584E-3,7.743788883E-4,1.158187315E-1,1.158256550E-1
8.868073333E0,8.776979521E-4,1.093159430E-3,1.136421263E-1,1.136507731E-1
8.878029333E0,4.022144713E-4,-1.625199802E-3,1.083376408E-1,1.083505766E-1
8.887984333E0,-1.158930594E-3,1.656346954E-3,1.106162369E-1,1.106347074E-1
8.897940333E0,-5.556477699E-4,1.024842262E-3,1.106614694E-1,1.106676098E-1
8.907896333E0,-1.310920110E-3,-3.703879192E-4,1.098739728E-1,1.098824172E-1
8.917852333E0,2.944846638E-3,-1.694234088E-4,1.138513014E-1,1.138895063E-1
8.927808333E0,1.163724461E-3,-1.302065328E-3,1.141684800E-1,1.141818351E-1
8.937764333E0,2.013700781E-3,2.410560846E-4,1.158323139E-1,1.158500671E-1
8.947720333E0,-4.113735631E-4,6.711566821E-4,1.160730571E-1,1.160757264E-1
8.957676333E0,1.134566497E-3,-9.854314849E-4,1.120910496E-1,1.121011227E-1
8.967632333E0,-2.200509887E-3,-4.352228716E-4,1.131288856E-1,1.131511221E-1
8.977587333E0,6.750164321E-4,1.725498587E-4,1.132879779E-1,1.132901203E-1
8.987543333E0,9.511861717E-4,-2.945212647E-3,1.093843207E-1,1.094280980E-1
8.997499333E0,6.233731983E-4,-6.348090246E-4,1.107987761E-1,1.108023482E-1
9.007455333E0,-2.800386865E-3,4.195366055E-4,1.129037365E-1,1.129392399E-1
9.017411333E0,1.355149900E-3,1.306477003E-3,1.167722493E-1,1.167874203E-1
9.027367333E0,-1.390835503E-3,-1.094362698E-3,1.166939512E-1,1.167073704E-1
9.037323333E0,2.417126670E-4,-5.480917171E-4,1.175831258E-1,1.175846517E-1
9.047279333E0,-2.673408017E-5,1.081230119E-3,1.176241413E-1,1.176291137E-1
9.057235333E0,-5.850265734E-4,2.201478928E-4,1.154155806E-1,1.154172732E-1
9.067191333E0,-1.288367435E-3,-6.182147190E-4,1.143620312E-1,1.143709590E-1
9.077146333E0,-1.086467411E-3,-1.370056532E-3,1.104412228E-1,1.104550640E-1
9.087102333E0,-7.499870844E-5,1.191638410E-3,1.135091856E-1,1.135154652E-1
9.097058333E0,1.410024706E-3,-1.460276544E-3,1.143859997E-1,1.144040100E-1
9.107015083E0,1.263817190E-3,3.128563985E-4,1.131995618E-1,1.132070489E-1
9.116971083E0,-4.780886229E-4,-7.957303897E-4,1.137865186E-1,1.137903052E-1
9.126927083E0,-1.088751247E-3,-9.123766795E-4,1.125401631E-1,1.125491276E-1
9.136883083E0,-4.286768381E-4,1.127135940E-3,1.157266423E-1,1.157329250E-1
9.146839083E0,1.628112514E-4,1.364955679E-3,1.154693812E-1,1.154775632E-1
9.156795083E0,4.359032027E-5,-1.284649596E-3,1.132516563E-1,1.132589505E-1
9.166750083E0,-1.116216416E-3,1.604613848E-3,1.111011505E-1,1.111183440E-1
9.176706083E0,3.011003137E-4,1.372620463E-4,1.094328463E-1,1.094333466E-1
9.186662083E0,-8.392652962E-4,-1.430007629E-3,1.109708175E-1,1.109832043E-1
9.196618083E0,1.868112944E-3,3.697974607E-4,1.142863482E-1,1.143022134E-1
9.206574083E0,-6.224752869E-4,7.764622569E-4,1.158307195E-1,1.158349945E-1
9.216530083E0,-3.572725691E-4,-1.943835989E-3,1.145810559E-1,1.145981000E-1
9.226486083E0,-1.019600779E-3,2.751098946E-4,1.175454259E-1,1.175501698E-1
9.236442083E0,9.343444835E-4,5.166223273E-4,1.144014001E-1,1.144063820E-1
9.246398083E0,-8.156187832E-4,6.977170706E-4,1.133273467E-1,1.133324294E-1
9.256354083E0,1.184830442E-3,1.002892852E-3,1.128292307E-1,1.128399084E-1
9.266309083E0,-3.106054850E-3,-2.360679209E-3,1.114518419E-1,1.115201033E-1
9.276265083E0,2.724322490E-3,-1.152148470E-4,1.108721793E-1,1.109057047E-1
9.286221083E0,6.699601654E-4,-1.184207387E-3,1.070055366E-1,1.070141862E-1
9.296177083E0,3.618665040E-3,5.445564166E-4,1.105682552E-1,1.106287952E-1
9.306133083E0,1.073748223E-3,-9.960820898E-4,1.124772131E-1,1.124867485E-1
9.316089083E0,2.054435667E-3,1.098103821E-4,1.122858375E-1,1.123046841E-1
9.326045083E0,-2.431126777E-3,1.124474220E-3,1.170779318E-1,1.171085690E-1
9.336001083E0,-1.684834016E-3,9.159725159E-4,1.172271669E-1,1.172428519E-1
9.345957083E0,-7.724349853E-4,2.122651320E-3,1.139235198E-1,1.139459112E-1
9.355913083E0,-1.210679999E-3,-1.857131720E-4,1.155883670E-1,1.155948564E-1
9.365868083E0,1.544892788E-3,-1.639799215E-3,1.127664819E-1,1.127889848E-1
9.375824083E0,7.930933498E-5,-1.372660510E-3,1.100456938E-1,1.100542830E-1
9.385780083E0,-1.865331084E-3,-7.771775126E-4,1.104425043E-1,1.104609896E-1
9.395736083E0,-1.860097982E-4,-6.782300770E-4,1.093645096E-1,1.093667708E-1
9.405692083E0,7.402375340E-4,-1.351477578E-3,1.105442941E-1,1.105550334E-1
9.415648083E0,1.525616739E-3,-1.172299497E-3,1.113951653E-1,1.114117797E-1
9.425604083E0,-4.927930422E-4,-1.416778192E-3,1.140695140E-1,1.140793764E-1
9.435560083E0,7.900717901E-4,-9.293779731E-4,1.141825914E-1,1.141891069E-1
9.445516083E0,1.397006214E-3,-1.806623302E-3,1.157908738E-1,1.158133928E-1
9.455472083E0,-1.905121608E-3,-8.935676888E-4,1.169732139E-1,1.169921395E-1
9.465427083E0,-2.949613379E-3,3.597158939E-4,1.124162748E-1,1.124555399E-1
9.475383083E0,-7.234311197E-4,2.043017186E-3,1.115794107E-1,1.116004578E-1
9.485339083E0,4.187986488E-4,1.419571228E-3,1.081271544E-1,1.081372836E-1
9.495295083E0,-2.307081828E-3,-2.714060247E-5,1.087537929E-1,1.087782646E-1
9.505251083E0,4.202612909E-4,1.023742370E-3,1.129152477E-1,1.129206705E-1
9.515207083E0,1.820323523E-4,3.613252193E-5,1.098766848E-1,1.098768416E-1
9.525163083E0,-1.759411767E-3,4.236223176E-4,1.158653349E-1,1.158794667E-1
9.535119083E0,-1.246484462E-4,1.855520532E-4,1.146789491E-1,1.146791670E-1
9.545075083E0,-1.435722690E-3,-1.260277815E-3,1.160893589E-1,1.161050768E-1
9.555030083E0,-8.402406238E-4,3.064483404E-3,1.139808372E-1,1.140251214E-1
9.564986083E0,3.323492128E-4,4.204977304E-4,1.123065054E-1,1.123077844E-1
9.574942083E0,-2.111695707E-3,-5.026925355E-4,1.116083264E-1,1.116294338E-1
9.584898083E0,-1.100227237E-3,-1.059559174E-3,1.118200496E-1,1.118304818E-1
9.594854083E0,3.383960575E-6,-4.702340811E-5,1.088579223E-1,1.088579325E-1
9.604810083E0,-2.520227339E-3,-2.659354359E-4,1.107498258E-1,1.107788165E-1
9.614766083E0,-1.057912596E-5,1.061700284E-3,1.136047468E-1,1.136097082E-1
9.624722083E0,-1.497954596E-3,-1.167098992E-3,1.142854467E-1,1.143012218E-1
9.634678083E0,-1.057241112E-3,-6.123455241E-4,1.156424284E-1,1.156488823E-1
9.644633083E0,-1.331812935E-3,1.085952856E-3,1.180166379E-1,1.180291482E-1
9.654589083E0,-1.296954229E-3,-2.469867468E-6,1.130557507E-1,1.130631897E-1
9.664545083E0,1.565990970E-4,8.191149682E-4,1.139633581E-1,1.139664094E-1
9.674501083E0,-5.872990005E-5,5.696760491E-4,1.144906655E-1,1.144920978E-1
9.684457083E0,5.396824563E-4,-1.180819236E-3,1.134858504E-1,1.134932766E-1
9.694413083E0,6.731799804E-4,-1.492477953E-3,1.124143600E-1,1.124262825E-1
9.704369083E0,-1.820071368E-3,-3.100344911E-4,1.115235388E-1,1.115388206E-1
9.714325083E0,-7.308311760E-4,-6.031394005E-4,1.118954122E-1,1.118994243E-1
9.724281083E0,-1.542562619E-3,-8.132634684E-4,1.123335063E-1,1.123470407E-1
9.734237083E0,-1.568470849E-3,3.868388012E-4,1.139481291E-1,1.139595800E-1
9.744192083E0,-3.988104872E-4,-1.529038884E-3,1.123507619E-1,1.123618739E-1
9.754148083E0,-9.441105649E-4,-1.956643537E-4,1.159704253E-1,1.159744333E-1
9.764104083E0,-1.600047341E-3,1.630465500E-3,1.149933115E-1,1.150160000E-1
9.774060083E0,4.620471736E-4,-3.258092329E-4,1.136781946E-1,1.136796005E-1
9.784016083E0,-1.509757247E-3,-5.074366927E-4,1.151884720E-1,1.151994832E-1
9.793972083E0,-9.119776078E-4,1.129261218E-3,1.131501943E-1,1.131595042E-1
9.803928083E0,-1.778570469E-3,-1.732911915E-4,1.121027768E-1,1.121170188E-1
9.813884083E0,-1.335215056E-3,-8.670724928E-4,1.127041578E-1,1.127154018E-1
9.823840083E0,-1.719775610E-3,-5.642706528E-4,1.124450341E-1,1.124596004E-1
9.833796083E0,-4.839170724E-4,9.338445961E-4,1.102266759E-1,1.102316938E-1
9.843751083E0,8.050529286E-4,-9.229108691E-4,1.109489277E-1,1.109556868E-1
9.853707083E0,2.597278683E-3,1.027807593E-5,1.128909513E-1,1.129208256E-1
9.863663083E0,1.836413634E-3,4.225354642E-4,1.108499095E-1,1.108659253E-1
9.873619083E0,-3.124657087E-3,-5.127927288E-4,1.117373332E-1,1.117821903E-1
9.883575083E0,9.049718501E-4,4.627229646E-4,1.133485436E-1,1.133531007E-1
9.893531083E0,-1.518778503E-3,-1.877020113E-3,1.124739572E-1,1.124998709E-1
9.903487083E0,-1.478564693E-3,-9.166849777E-4,1.133424193E-1,1.133557695E-1
9.913443083E0,-7.811749820E-4,6.786454469E-5,1.139299721E-1,1.139326703E-1
9.923399083E0,1.279046526E-3,-5.638366565E-4,1.136277020E-1,1.136362994E-1
9.933355083E0,4.387410823E-3,4.690634087E-4,1.130229458E-1,1.131090433E-1
9.943310083E0,-3.874513553E-3,-2.920683473E-4,1.159313843E-1,1.159964785E-1
9.953266083E0,-5.385796539E-4,1.106153242E-3,1.145286933E-1,1.145353012E-1
9.963222083E0,-1.279737335E-3,1.830799505E-3,1.128887236E-1,1.129108209E-1
9.973178083E0,-1.924814424E-3,2.014579717E-3,1.119799465E-1,1.120146056E-1
9.983134083E0,2.853430342E-4,-4.251422361E-4,1.139205918E-1,1.139217424E-1
9.993090083E0,-1.029737992E-3,-9.124195203E-4,1.135896072E-1,1.135979389E-1
1.000304608E1,3.593668807E-4,-5.978997797E-4,1.131323427E-1,1.131344934E-1
1.001300208E1,1.656662440E-3,5.803117529E-4,1.116880104E-1,1.117018037E-1
1.002295808E1,2.502748743E-3,-3.885459155E-4,1.117692366E-1,1.117979292E-1
1.003291308E1,-1.704359660E-3,-1.582661644E-4,1.109996364E-1,1.110128333E-1
1.004286908E1,-1.706450712E-4,-2.483738586E-3,1.110254675E-1,1.110533769E-1
1.005282508E1,-2.571990713E-3,-4.576127976E-4,1.124160066E-1,1.124463565E-1
1.006278108E1,2.464313060E-3,-7.436359301E-4,1.124383807E-1,1.124678411E-1
1.007273708E1,2.184105106E-4,-8.855992928E-4,1.115083024E-1,1.115120329E-1
1.008269308E1,-1.582685392E-3,-8.762786165E-4,1.120316163E-1,1.120462217E-1
1.009264908E1,2.645161003E-4,4.195794463E-4,1.139131859E-1,1.139142657E-1
1.010260525E1,2.765003592E-4,-4.456816241E-4,1.138149127E-1,1.138161212E-1
1.011256125E1,-4.187594168E-4,-1.524006948E-4,1.145086139E-1,1.145094811E-1
1.012251725E1,-6.224913523E-4,1.501347870E-4,1.131341606E-1,1.131359728E-1
1.013247225E1,-2.127371030E-3,1.827516593E-3,1.137763485E-1,1.138109090E-1
1.014242825E1,-8.157643024E-4,3.667725250E-4,1.120618060E-1,1.120653754E-1
1.015238425E1,1.181531465E-3,1.468192786E-4,1.126211807E-1,1.126274741E-1
1.016234025E1,-1.922649099E-3,-1.845225692E-3,1.100168750E-1,1.100491445E-1
1.017229625E1,1.450109878E-3,8.762078360E-4,1.126042977E-1,1.126170432E-1
1.018225225E1,-8.713675197E-4,-7.960014045E-5,1.097656339E-1,1.097691214E-1
1.019220825E1,-7.946912665E-4,2.715550363E-5,1.125934869E-1,1.125962946E-1
1.020216425E1,-1.083910698E-3,6.399480626E-4,1.102283299E-1,1.102355165E-1
1.021212025E1,1.326935599E-3,-1.323699020E-3,1.116244122E-1,1.116401467E-1
1.022207625E1,-3.468610812E-4,-1.433155499E-3,1.123320162E-1,1.123416936E-1
1.023203125E1,-4.792299587E-4,3.442298621E-4,1.111628264E-1,1.111643924E-1
1.024198725E1,3.876290284E-4,-1.236796379E-5,1.113665625E-1,1.113672378E-1
1.025194325E1,1.660702517E-3,-9.762961417E-4,1.122190505E-1,1.122355843E-1
1.026189925E1,-1.608593855E-3,5.896426737E-4,1.098011658E-1,1.098145312E-1
1.027185525E1,-1.709829550E-3,-1.005128026E-3,1.115334928E-1,1.115511265E-1
1.028181125E1,1.758405007E-3,1.178131439E-3,1.089675277E-1,1.089880823E-1
1.029176725E1,5.489970790E-4,-1.724283211E-3,1.103196740E-1,1.103345142E-1
1.030172325E1,4.193012137E-4,-3.120088950E-4,1.088384241E-1,1.088396790E-1
1.031167925E1,5.339481868E-5,4.077814519E-4,1.088793874E-1,1.088801641E-1
1.032163425E1,2.037982456E-3,7.244311273E-4,1.073962748E-1,1.074180526E-1
1.033159025E1,6.362562999E-5,1.108597964E-3,1.084046587E-1,1.084103458E-1
1.034154625E1,-2.666064538E-4,-4.349695519E-4,1.088408828E-1,1.088420785E-1
1.035150225E1,1.601322321E-3,-1.044590957E-3,1.074113473E-1,1.074283619E-1
1.036145825E1,7.009076653E-4,1.373560168E-3,1.061801687E-1,1.061913658E-1
1.037141425E1,-1.470677089E-3,-1.263675280E-3,1.068633720E-1,1.068809620E-1
1.038137025E1,-1.661359333E-3,2.208820079E-3,1.081896275E-1,1.082249255E-1
1.039132625E1,5.549010821E-4,6.334232166E-4,1.032085568E-1,1.032119922E-1
1.040128225E1,3.072270192E-4,-2.868900076E-3,1.048445404E-1,1.048842344E-1
1.041123825E1,-8.615318220E-4,-7.664766163E-4,1.033509299E-1,1.033573628E-1
1.042119325E1,5.326396786E-5,1.009851694E-3,1.019066945E-1,1.019117119E-1
1.043114925E1,1.728656585E-3,-2.809866332E-3,1.011597291E-1,1.012135089E-1
1.044110525E1,-1.279383898E-3,3.579640761E-4,9.692477435E-2,9.693387872E-2
1.045106125E1,-3.018123563E-3,7.980978116E-4,9.699987620E-2,9.705010053E-2
1.046101725E1,1.505056862E-4,-8.519962430E-4,9.588534385E-2,9.588924713E-2
1.047097325E1,-7.934898604E-4,2.063544467E-3,9.486960620E-2,9.489536354E-2
1.048092925E1,1.891509048E-3,-2.304572612E-3,9.565444291E-2,9.570089503E-2
1.049088525E1,1.664696960E-3,-1.416709274E-4,9.144302458E-2,9.145828574E-2
1.050084125E1,1.648185309E-3,-9.086616337E-4,9.059507400E-2,9.061462141E-2
1.051079725E1,-6.401326973E-4,-7.692398503E-4,8.854742348E-2,8.855307846E-2
1.052075225E1,1.345520141E-3,-1.915464178E-3,8.902253211E-2,8.905330230E-2
1.053070825E1,-8.091432974E-4,-3.690682352E-4,8.531504124E-2,8.531967643E-2
1.054066425E1,4.236747976E-3,-1.590394415E-3,8.419678360E-2,8.431831211E-2
1.055062025E1,-2.844154369E-4,-1.833520830E-3,8.261859417E-2,8.263942639E-2
1.056057625E1,1.408556011E-3,-1.088101417E-3,8.107396215E-2,8.109349748E-2
1.057053225E1,-1.820489299E-3,3.626756370E-5,7.974600047E-2,7.976678562E-2
1.058048825E1,2.602383029E-4,2.715407871E-3,8.504915237E-2,8.509288738E-2
1.059044425E1,8.309609257E-5,1.386537217E-3,1.018180102E-1,1.018274845E-1