"Time (s)","Gyroscope x (rad/s)","Gyroscope y (rad/s)","Gyroscope z (rad/s)","Absolute (rad/s)"
4.912333334E-3,-6.830021739E-4,-1.736115664E-3,-1.660922193E-3,2.497849495E-3
1.486933333E-2,-5.000431556E-4,-2.708444372E-4,-2.952555427E-3,3.006822811E-3
2.482633333E-2,1.441991655E-3,-6.047561765E-4,-6.014958024E-3,6.214884552E-3
3.478333333E-2,6.704739062E-4,-2.437544055E-3,-5.811492912E-3,6.337555219E-3
4.474033333E-2,8.216666756E-4,2.568711527E-3,-6.634677993E-4,2.777337674E-3
5.469733333E-2,5.433663027E-4,-3.245463595E-4,-5.489648320E-3,5.526012663E-3
6.465333333E-2,8.840905502E-5,2.187022939E-3,-3.508054186E-3,4.134891736E-3
7.461033333E-2,1.083366107E-3,-1.078229398E-4,-1.898972434E-3,2.188927640E-3
8.456733333E-2,3.332573920E-3,-6.672674790E-4,-4.859870300E-3,5.930399156E-3
9.452433333E-2,1.173815457E-3,1.549813896E-3,-4.352005664E-3,4.766520654E-3
1.044813333E-1,-2.746296581E-3,1.471432857E-3,-4.777410999E-3,5.703587942E-3
1.144383333E-1,2.193600871E-3,1.279418357E-3,-6.486094557E-3,6.965502043E-3
1.243953333E-1,-1.335015986E-5,2.816375345E-4,-8.051303448E-4,8.530725642E-4
1.343523333E-1,-8.154942188E-4,1.360750757E-3,-4.350596573E-3,4.630805976E-3
1.443093333E-1,-8.201389574E-4,-9.593758732E-4,-1.843033358E-3,2.233786457E-3
1.542653333E-1,-1.390055288E-3,-2.578990534E-4,-4.931767471E-3,5.130408952E-3
1.642223333E-1,6.159378681E-4,-2.513676882E-4,-4.353140481E-3,4.403679963E-3
1.741793333E-1,-8.179082070E-4,-1.108905300E-3,-5.355021916E-3,5.529457887E-3
1.841363333E-1,-1.160249463E-3,-8.028503507E-4,-3.264624393E-3,3.556475774E-3
1.940933333E-1,-1.900341944E-3,-2.518724650E-3,-7.316357456E-3,7.967707311E-3
2.040503333E-1,-1.219253289E-3,-1.607763581E-3,-1.579617965E-3,2.562552483E-3
2.140073333E-1,-1.097803470E-4,-1.135584898E-3,-5.049183965E-3,5.176472109E-3
2.239643333E-1,-1.127997064E-3,-1.553264447E-3,-5.008444656E-3,5.363723118E-3
2.339213333E-1,-3.937635338E-4,-7.583107799E-4,-2.115452895E-3,2.281496419E-3
2.438773333E-1,1.820710488E-3,-1.807468012E-3,-3.685758449E-3,4.490739654E-3
2.538343333E-1,2.923223656E-4,-1.397961751E-4,-2.226346172E-3,2.249802795E-3
2.637913333E-1,1.649492770E-3,-2.367151901E-4,-2.966538072E-3,3.402529737E-3
2.737483333E-1,-7.518796483E-4,-1.897729002E-3,-3.911161330E-3,4.411788902E-3
2.837053333E-1,7.198157255E-5,1.503277570E-3,-1.507340232E-3,2.130046801E-3
2.936619167E-1,-8.601248264E-4,-8.272547275E-4,-2.988590393E-3,3.218048732E-3
3.036189167E-1,-1.971930964E-3,1.686970703E-3,-3.840179415E-3,4.634798790E-3
3.135759167E-1,2.667222871E-4,-1.089374535E-3,-4.106495529E-3,4.256898306E-3
3.235329167E-1,9.955690475E-4,-2.415013500E-3,-3.772411263E-3,4.588522057E-3
3.334889167E-1,-1.323511591E-3,-1.797959208E-3,-5.609726068E-3,6.037662362E-3
3.434459167E-1,1.883855672E-3,1.425082795E-3,-3.702482907E-3,4.391827961E-3
3.534029167E-1,8.087375900E-4,-1.372301951E-3,-4.146697931E-3,4.442113558E-3
3.633599167E-1,-9.868526831E-6,-2.026895061E-3,-2.181106014E-3,2.977519844E-3
3.733169167E-1,1.411726815E-3,1.505054533E-4,-3.450901248E-3,3.731533721E-3
3.832739167E-1,-6.317417137E-5,-9.432900697E-5,-5.172826350E-3,5.174072031E-3
3.932309167E-1,2.974178642E-4,2.692135982E-3,-2.829965670E-4,2.723259185E-3
4.031879167E-1,-1.981695415E-3,-1.870447770E-3,-2.016771585E-3,3.390141473E-3
4.131449167E-1,1.746660564E-4,-1.525035128E-3,-2.667914610E-3,3.077987775E-3
4.231009167E-1,8.962966967E-5,5.175424740E-4,-5.561581347E-4,7.649807585E-4
4.330579167E-1,1.223864965E-4,1.701051369E-3,-2.119433600E-3,2.720395744E-3
4.430149167E-1,-1.749768155E-3,-5.123596638E-4,-3.320328891E-3,3.787979008E-3
4.529719167E-1,-2.125007333E-3,-1.622631215E-3,-3.567736596E-3,4.458400234E-3
4.629289167E-1,7.399134338E-4,-5.921162665E-4,-3.959077410E-3,4.070917280E-3
4.728859167E-1,-1.010049833E-3,1.721456647E-5,-4.094099626E-3,4.216888516E-3
4.828429167E-1,-3.829610068E-4,-7.586963475E-4,-4.374651238E-3,4.456439469E-3
4.927999167E-1,-8.226488717E-4,1.006713137E-3,-4.752819892E-3,4.927425234E-3
5.027569167E-1,4.708914785E-4,-6.812969223E-4,-7.693440421E-4,1.130395743E-3
5.127129167E-1,-1.351243351E-3,-1.097936183E-5,-2.937956015E-3,3.233815808E-3
5.226699167E-1,-1.117060892E-4,-1.508227549E-3,-3.676095046E-3,3.975035016E-3
5.326269167E-1,3.913650289E-4,2.329470590E-4,-2.485395642E-3,2.526781038E-3
5.425839167E-1,1.055997564E-3,1.036086120E-3,-3.819589037E-3,4.096079310E-3
5.525409167E-1,-1.358424197E-3,-5.130749196E-4,-2.881889930E-3,3.227050006E-3
5.624979167E-1,1.996685984E-3,-8.030887693E-5,-3.428653814E-3,3.968484775E-3
5.724549167E-1,6.323098205E-5,-5.602110177E-4,-2.183626173E-3,2.255228992E-3
5.824119167E-1,-2.222034615E-3,-3.637373447E-4,-2.365275286E-3,3.265619369E-3
5.923689167E-1,1.077355701E-3,-1.374939457E-3,-2.309082542E-3,2.895343848E-3
6.023249167E-1,-1.656040316E-3,-5.802083760E-4,-2.501403447E-3,3.055508222E-3
6.122819167E-1,-3.065917641E-3,2.898462117E-4,-7.125580451E-4,3.160949347E-3
6.222389167E-1,9.285192937E-5,6.354255602E-4,-2.305521397E-3,2.393285615E-3
6.321959167E-1,-1.505577355E-3,1.166725531E-3,-1.224011648E-3,2.264114872E-3
6.421529167E-1,-2.495388035E-3,-9.608175606E-5,-2.086903900E-3,3.254437130E-3
6.521099167E-1,1.248750254E-3,-3.693224862E-4,-4.988684319E-3,5.155845957E-3
6.620669167E-1,-3.568810644E-4,7.184119895E-4,-7.975628600E-3,8.015867479E-3
6.720239167E-1,2.620799234E-3,-6.448598579E-4,-2.654099837E-3,3.785324135E-3
6.819809167E-1,1.369136153E-3,1.010205597E-3,6.275468040E-4,1.813522579E-3
6.919369167E-1,-1.193357399E-3,2.687730826E-3,8.035816718E-4,3.048563986E-3
7.018939167E-1,-1.193943201E-3,7.001282647E-4,-1.174688223E-3,1.815371140E-3
7.118509167E-1,1.032825094E-4,-8.144117892E-4,-3.704158589E-3,3.794038046E-3
7.218079167E-1,-1.184235560E-3,-2.601388842E-4,-2.324889880E-3,2.622060078E-3
7.317649167E-1,-1.431909390E-3,3.473283723E-4,-2.113168593E-3,2.576137225E-3
7.417219167E-1,3.391665174E-3,-8.928617463E-4,-4.682262894E-3,5.850143635E-3
7.516789167E-1,-1.418270171E-3,1.020353287E-3,-3.212730633E-3,3.657082065E-3
7.616359167E-1,-1.415862469E-3,1.121042296E-4,-7.316162810E-4,1.597653364E-3
7.715929167E-1,-7.692468353E-4,6.910748780E-4,-3.555099713E-3,3.702439621E-3
7.815489167E-1,1.167449169E-3,1.634493470E-3,-2.006138442E-3,2.838855036E-3
7.915059167E-1,1.062254189E-3,1.092806458E-3,-4.762776196E-3,5.000664657E-3
8.014629167E-1,-1.245753025E-3,3.137616441E-4,-3.450617427E-3,3.681997772E-3
8.114199167E-1,1.417141873E-3,-7.062293589E-4,-3.394158557E-3,3.745312178E-3
8.213769167E-1,1.130285556E-3,-5.691517144E-4,-4.496904556E-3,4.671576789E-3
8.313339167E-1,2.093644580E-4,4.092939198E-4,-2.459320007E-3,2.501921239E-3
8.412909167E-1,-2.914276440E-3,-2.370153554E-3,-3.547254950E-3,5.166590047E-3
8.512479167E-1,4.053540761E-4,-4.745153710E-4,-4.007449374E-3,4.055752365E-3
8.612049167E-1,-2.311358461E-3,-1.456973143E-3,-2.131051617E-3,3.465043963E-3
8.711609167E-1,-1.155013917E-3,-3.674738109E-4,-1.275910647E-3,1.759841507E-3
8.811179167E-1,-1.728199655E-3,2.630827948E-4,-1.578339725E-3,2.355216103E-3
8.910749167E-1,-1.167210285E-4,-1.066633500E-3,-2.604722045E-3,2.817074326E-3
9.010319167E-1,-2.561671194E-3,1.543588005E-3,-1.039725728E-3,3.166362712E-3
9.109889167E-1,-1.014907495E-3,-1.062847674E-3,-2.717250958E-3,3.089196525E-3
9.209459167E-1,-2.175953705E-4,5.910117179E-4,-3.706234274E-4,7.307559928E-4
9.309029167E-1,1.176303136E-3,2.716480754E-3,-3.374136519E-3,4.488624957E-3
9.408599167E-1,8.396541816E-4,-1.091144048E-3,-1.588497078E-3,2.102126886E-3
9.508169167E-1,9.110268438E-4,-4.506539553E-4,-1.471051713E-3,1.788030213E-3
9.607729167E-1,-1.460446510E-4,2.630891278E-3,-2.652846044E-3,3.739052031E-3
9.707299167E-1,1.662508002E-3,2.883747220E-4,-2.624616493E-3,3.120209059E-3
9.806869167E-1,-6.403459702E-4,-2.128695138E-3,-1.348931924E-3,2.600192933E-3
9.906439167E-1,-8.608556818E-4,-1.752390526E-3,-4.333270248E-3,4.752807181E-3
1.000600917E0,-1.386081567E-3,6.798459217E-4,-8.679804159E-4,1.771102083E-3
1.010557917E0,-2.944829874E-3,2.603977919E-5,-2.042168286E-3,3.583734416E-3
1.020514917E0,1.541910693E-3,-1.066138968E-3,-1.767684938E-3,2.576596772E-3
1.030471917E0,-8.456133073E-4,1.421785913E-3,-1.125596813E-3,2.000876117E-3
1.040428917E0,-6.521043833E-4,-3.400318325E-3,-3.061133204E-3,4.621465279E-3
1.050384917E0,-2.949745394E-4,1.012539491E-3,-1.009433996E-3,1.459864101E-3
1.060341917E0,6.677926285E-4,-8.177878335E-4,2.351904986E-4,1.081683182E-3
1.070298917E0,1.534385141E-3,7.281769067E-4,-3.657019464E-3,4.032167002E-3
1.080255917E0,4.796071444E-4,-7.136026397E-4,-4.486943595E-3,4.568579053E-3
1.090212917E0,-3.515654244E-4,3.002630547E-4,-2.201418858E-3,2.249444629E-3
1.100169917E0,-2.954094205E-3,-7.658945397E-4,-2.693288028E-3,4.070266259E-3
1.110126917E0,8.467693697E-4,-1.190935262E-3,-8.463859558E-4,1.688701972E-3
1.120083917E0,2.868496813E-4,2.596051432E-3,-1.597257331E-3,3.061535033E-3
1.130040917E0,2.057052916E-3,-4.740245640E-5,-5.606379826E-3,5.972035536E-3
1.139996917E0,-5.682236515E-4,-6.146905944E-4,-3.644404234E-3,3.739305399E-3
1.149953917E0,3.740027314E-4,-1.139333472E-3,-3.797802376E-3,3.982619953E-3
1.159910917E0,-1.909307670E-3,-2.195739187E-3,-1.229621121E-4,2.912360904E-3
1.169867917E0,-1.744191861E-3,-4.766685888E-4,9.111432591E-4,2.024746954E-3
1.179824917E0,6.442868616E-4,-7.966700941E-4,-1.559869153E-3,1.866274518E-3
1.189781917E0,-8.084673900E-4,-1.334629022E-3,-3.736736951E-3,4.049451468E-3
1.199738917E0,-8.581229486E-4,-1.860943623E-3,-4.470913671E-3,4.918186171E-3
1.209695917E0,9.842519648E-4,7.606716827E-4,-4.662128631E-3,4.825227115E-3
1.219652917E0,-1.920562936E-3,-2.350416966E-3,7.737695705E-5,3.036282118E-3
1.229609917E0,-1.751984702E-3,-5.290843546E-5,2.620695857E-3,3.152823572E-3
1.239565917E0,-8.152254159E-4,-2.124205232E-3,8.676555008E-4,2.435090638E-3
1.249522917E0,-1.139065833E-3,5.165850744E-4,-1.650629565E-3,2.070968148E-3
1.259479917E0,-1.671453472E-3,2.576215193E-4,-3.207201837E-3,3.625778424E-3
1.269436917E0,4.950281000E-4,-2.214815468E-4,-2.635154873E-3,2.690380661E-3
1.279393917E0,-1.946292352E-3,2.359781414E-3,-4.176769406E-3,5.177067211E-3
1.289350917E0,-3.813731018E-5,4.111463204E-4,-1.736248843E-3,1.784672462E-3
1.299308167E0,-2.453432651E-3,-8.174628019E-4,1.061438234E-4,2.588212456E-3
1.309265167E0,-4.965420812E-4,1.643830910E-3,-1.845154329E-3,2.520581004E-3
1.319222167E0,-2.280487446E-3,-1.288476400E-3,-2.763697412E-3,3.807731321E-3
1.329178167E0,-1.098843059E-3,2.745679580E-3,-3.051851410E-3,4.249706984E-3
1.339135167E0,-1.150084427E-4,-9.112721309E-4,-2.644574502E-3,2.799538915E-3
1.349092167E0,-7.757388521E-4,-2.771737054E-4,-2.491709078E-3,2.624349473E-3
1.359049167E0,-2.955361735E-3,-1.001777127E-4,-1.285690116E-3,3.224468581E-3
1.369006167E0,-1.410195604E-3,1.848457381E-3,-7.503947709E-4,2.443059280E-3
1.378963167E0,1.009310712E-3,-4.442138597E-4,-4.003410693E-3,4.152509030E-3
1.388920167E0,-3.611519933E-4,1.241034828E-3,-1.345309662E-3,1.865598106E-3
1.398877167E0,-5.169715732E-4,3.505283967E-4,-8.751162095E-4,1.075154940E-3
1.408833167E0,-3.590460401E-4,-8.425675333E-4,-2.184858778E-3,2.369059305E-3
1.418790167E0,1.212481875E-4,-2.508144826E-5,-1.718942658E-3,1.723396084E-3
1.428747167E0,-3.930082312E-4,-9.633125737E-4,-3.442806890E-3,3.596574185E-3
1.438704167E0,1.771731768E-3,-7.432522252E-4,-3.872843692E-3,4.323236703E-3
1.448661167E0,-7.031438872E-4,1.238733530E-4,-1.979336143E-3,2.104169076E-3
1.458618167E0,2.444239799E-4,-1.782660373E-3,-3.700891102E-4,1.837004909E-3
1.468575167E0,8.276563021E-4,-2.718493342E-4,-1.849475084E-3,2.044376458E-3
1.478532167E0,3.333506174E-5,-3.029247746E-4,4.200584721E-3,4.211625178E-3
1.488489167E0,5.182967288E-4,-1.082476228E-4,-2.429620828E-3,2.486645616E-3
1.498446167E0,5.399151705E-4,-8.655050769E-4,-1.691130223E-3,1.974975661E-3
1.508402167E0,6.930468371E-4,-1.962994225E-3,-8.716755547E-4,2.256873616E-3
1.518359167E0,-8.404789260E-4,-2.150573768E-3,-3.493676661E-3,4.187737929E-3
1.528316167E0,3.542151535E-4,8.113943040E-4,-3.486486152E-3,3.597139805E-3
1.538273167E0,-2.545945579E-3,6.629331037E-4,-2.723469399E-3,3.786635018E-3
1.548230167E0,5.116895773E-5,7.657306269E-4,-1.545553328E-3,1.725600402E-3
1.558187167E0,-1.284931088E-3,4.195319489E-4,3.870165674E-4,1.406000277E-3
1.568144167E0,2.724855440E-4,6.426591426E-5,-2.603180707E-3,2.618191794E-3
1.578101167E0,-1.522682607E-3,-3.320258111E-5,-1.264704624E-3,1.979682429E-3
1.588057167E0,-8.241354953E-4,1.076003537E-3,-1.707055606E-3,2.179683869E-3
1.598014167E0,-1.761091640E-3,6.645778194E-4,-2.946146997E-3,3.496124936E-3
1.607971167E0,-4.963565152E-4,4.683025181E-4,8.213357069E-5,6.873303151E-4
1.617928167E0,7.762620226E-5,1.000253484E-3,-1.773613621E-3,2.037704134E-3
1.627885167E0,-8.249192033E-4,-1.679153182E-3,-8.628125070E-4,2.060216620E-3
1.637842167E0,7.798247971E-4,-1.255091280E-3,-9.353038040E-4,1.748763575E-3
1.647799167E0,5.105792079E-4,-1.234851778E-3,-1.160873566E-3,1.770078381E-3
1.657756167E0,-2.005492803E-3,1.521253958E-3,-7.754425169E-4,2.633918390E-3
1.667713167E0,5.825671833E-4,-3.908956423E-4,-2.343245316E-3,2.446013601E-3
1.677670167E0,9.545870707E-4,1.938939095E-4,-2.956405282E-3,3.112742122E-3
1.687626167E0,1.173765166E-3,-9.299600497E-4,-2.173968591E-3,2.639827607E-3
1.697583167E0,-1.681306283E-3,-9.757466614E-4,-3.242094535E-3,3.780218160E-3
1.707540167E0,-5.238965387E-4,1.698865555E-3,-1.484940760E-3,2.316389608E-3
1.717497167E0,1.023171120E-3,-1.460834406E-3,1.504520187E-3,2.333344659E-3
1.727454167E0,-4.413011484E-4,-1.300245523E-3,-4.238747060E-4,1.437029885E-3
1.737411167E0,1.683173585E-3,-4.004733637E-4,-2.182433847E-3,2.785043937E-3
1.747368167E0,3.888270818E-3,-1.364537515E-3,-4.014155827E-3,5.752743657E-3
1.757325167E0,-1.051314175E-3,1.938097179E-3,-3.139716340E-3,3.836574105E-3
1.767282167E0,-1.298721880E-3,6.698993966E-4,-2.937582321E-3,3.280980588E-3
1.777238167E0,-1.338470029E-3,-5.418481305E-4,-1.823721686E-5,1.444103186E-3
1.787195167E0,-7.310030051E-4,2.445152961E-3,8.086742600E-4,2.677142591E-3
1.797152167E0,-3.121152520E-3,3.554821014E-4,-7.525846013E-4,3.230223547E-3
1.807109167E0,-6.872897502E-4,1.453503035E-3,-2.967535751E-3,3.375100992E-3
1.817066167E0,-1.476590522E-3,-1.323383301E-3,-8.100002306E-4,2.141906465E-3
1.827023167E0,-1.236106968E-3,1.511817798E-3,-2.840926871E-3,3.447378566E-3
1.836980167E0,1.557247015E-4,1.436704770E-4,1.486480469E-4,2.588196871E-4
1.846937167E0,2.471343148E-3,6.810966879E-4,-2.795882465E-4,2.578681687E-3
1.856893167E0,-9.030126967E-4,-3.388319165E-4,-1.821041515E-4,9.815298874E-4
1.866850167E0,5.422846880E-4,-2.576056868E-4,-1.087046228E-3,1.241814348E-3
1.876807167E0,-1.080833143E-3,-7.055066526E-4,-2.155255293E-3,2.512183373E-3
1.886764167E0,-2.348231617E-3,5.419179797E-4,-1.458306098E-3,2.816828625E-3
1.896721167E0,9.330739849E-4,3.348803148E-4,-1.867833897E-3,2.114609976E-3
1.906678167E0,-5.431162426E-4,8.747261018E-5,-3.106835939E-4,6.317839868E-4
1.916635167E0,-9.765548166E-4,1.128980890E-3,7.401283365E-4,1.666147387E-3
1.926592167E0,9.331980837E-4,1.041362993E-3,7.095020264E-4,1.568020623E-3
1.936549167E0,-1.393850660E-3,-2.569817007E-4,-1.429630560E-3,2.013132582E-3
1.946505167E0,-5.344485398E-4,4.106732085E-4,-1.434690552E-3,1.585126085E-3
1.956462167E0,7.317669224E-5,2.429631539E-3,-3.096232889E-3,3.936384426E-3
1.966419167E0,-5.907493178E-4,4.767356440E-4,-3.988125362E-3,4.059729736E-3
1.976376167E0,-1.770445844E-3,3.658588976E-4,-4.133937880E-3,4.511958956E-3
1.986333167E0,1.044248929E-3,-6.235055625E-4,-7.314834511E-4,1.419254400E-3
1.996290167E0,9.910555091E-4,2.596247941E-4,-6.462940946E-4,1.211318337E-3
2.006247167E0,1.432075049E-3,1.693736762E-3,4.461345961E-4,2.262436572E-3
2.016204167E0,1.581024379E-3,-5.656722933E-4,-2.474893583E-3,2.990772722E-3
2.026161167E0,-5.697445013E-4,1.121439971E-3,-2.226154320E-3,2.556951204E-3
2.036117167E0,3.723150585E-4,-8.030105382E-4,-2.791775158E-3,2.928728898E-3
2.046074167E0,-2.224000869E-3,1.340567134E-3,-1.543285325E-3,3.020766410E-3
2.056031167E0,1.724730828E-3,-1.627160236E-4,-1.501959516E-3,2.292826928E-3
2.065988167E0,5.393578904E-4,6.783101708E-4,1.694403181E-4,8.830184840E-4
2.075945167E0,-8.280078182E-4,5.161855370E-5,-2.899136627E-3,3.015502380E-3
2.085902167E0,-3.862946294E-3,1.140585169E-3,2.368260175E-5,4.027883994E-3
2.095859167E0,-2.053397009E-3,1.798095182E-4,-2.153983805E-3,2.981344826E-3
2.105816167E0,-1.279482385E-3,-3.213975579E-4,-3.531543771E-4,1.365682825E-3
2.115773167E0,2.675735159E-4,5.433214828E-4,-1.485788729E-3,1.604481838E-3
2.125729167E0,-4.011462443E-4,-1.043923199E-3,-7.813826669E-4,1.364277401E-3
2.135686167E0,-1.428732066E-3,-7.483744994E-4,-1.651330618E-3,2.308296454E-3
2.145643167E0,-1.653284999E-4,5.533788353E-4,-2.108595334E-3,2.186260719E-3
2.155600167E0,7.496557664E-4,-1.358402893E-3,-2.022001427E-3,2.548672587E-3
2.165557167E0,-1.960909460E-3,-1.201809384E-3,4.185194848E-4,2.337663420E-3
2.175514167E0,2.100485377E-3,-9.463652968E-4,-1.797579112E-3,2.922145917E-3
2.185471167E0,1.140948385E-3,-7.287850603E-4,-4.100414459E-3,4.318134969E-3
2.195428167E0,-4.960282240E-5,-4.456238821E-4,-9.275964694E-4,1.030279717E-3
2.205385167E0,-4.996770294E-4,-2.296254970E-3,-6.547665223E-3,6.956607212E-3
2.215341167E0,-2.025383990E-3,8.134711534E-4,-2.648701426E-3,3.432132700E-3
2.225298167E0,-3.728924785E-4,-1.814858988E-4,-8.487619925E-5,4.233082815E-4
2.235255167E0,-8.086380549E-4,-3.963606432E-4,1.041991869E-3,1.377223409E-3
2.245212167E0,-8.584391326E-4,9.290948510E-4,2.302998677E-3,2.627534565E-3
2.255169167E0,3.750436008E-6,7.329266518E-4,-1.053476124E-3,1.283357895E-3
2.265126167E0,-1.957203494E-4,-9.291516617E-4,-3.317961935E-3,3.451159322E-3
2.275083167E0,-2.803270938E-3,1.190652139E-3,-2.560776193E-3,3.979140005E-3
2.285040167E0,5.983846495E-4,-6.570490077E-4,-1.458227518E-3,1.707689984E-3
2.294997417E0,2.395499265E-3,-6.662877277E-4,-8.467831649E-4,2.626670477E-3
2.304953417E0,3.268217202E-3,-2.108388580E-3,-2.700609621E-3,4.734959177E-3
2.314910417E0,-2.974792616E-3,1.190073788E-3,-1.300312462E-3,3.457814227E-3
2.324867417E0,-3.317008959E-3,1.009511761E-3,-2.561585512E-3,4.310844786E-3
2.334824417E0,-1.623079763E-3,1.889688894E-3,-1.107805874E-3,2.726269592E-3
2.344781417E0,-1.628672588E-3,-1.002252102E-4,-1.959218644E-3,2.549736689E-3
2.354738417E0,9.586225497E-4,1.484029926E-3,1.543402614E-4,1.773449444E-3
2.364695417E0,-1.685097348E-3,1.791358925E-3,-2.000157023E-3,3.170039115E-3
2.374652417E0,-7.959932555E-4,-6.152745336E-4,-2.373458818E-3,2.577881839E-3
2.384609417E0,-9.488586802E-4,-3.266984597E-3,-3.585111990E-4,3.420826133E-3
2.394565417E0,7.706776960E-4,1.672056504E-3,-1.773104537E-3,2.556094044E-3
2.404522417E0,-8.216262795E-4,8.352911100E-4,4.841907648E-4,1.267762469E-3
2.414479417E0,-4.904926755E-4,1.775941812E-3,-1.455721445E-3,2.348122081E-3
2.424436417E0,3.948996775E-3,-3.548534587E-4,-3.036041278E-3,4.993800471E-3
2.434393417E0,-5.703533534E-4,1.970306039E-4,3.617562354E-3,3.667544327E-3
2.444350417E0,-6.358670071E-4,1.286263578E-3,-8.381724474E-4,1.661726179E-3
2.454307417E0,8.533820510E-4,1.421220601E-3,-3.557381220E-3,3.924677065E-3
2.464264417E0,-4.984384868E-4,-1.366843469E-3,-2.047368791E-3,2.511657015E-3
2.474221417E0,2.656880068E-3,-7.493775338E-4,-1.713741338E-3,3.249228794E-3
2.484177417E0,6.946630310E-4,2.666190267E-4,-3.395793727E-3,3.476356924E-3
2.494134417E0,-6.963796914E-4,6.147809327E-4,2.552580190E-5,9.292748981E-4
2.504091417E0,1.037338050E-3,2.587158233E-4,-1.193669392E-3,1.602451473E-3
2.514048417E0,4.323361209E-4,-4.887739196E-4,-1.296968898E-3,1.451875610E-3
2.524005417E0,-1.008287072E-4,5.794195458E-4,-3.819067788E-4,7.012461950E-4
2.533962417E0,-8.725442458E-4,-9.891856462E-5,-3.501885803E-4,9.453837237E-4
2.543919417E0,2.654246055E-4,-6.555188447E-4,-3.993392922E-3,4.055532296E-3
2.553876417E0,-6.432970986E-4,3.361823037E-4,-1.816792763E-3,1.956421642E-3
2.563832417E0,5.127810873E-4,4.136804491E-4,-4.146384017E-4,7.784606359E-4
2.573789417E0,1.235522912E-3,2.543395385E-4,-7.129379665E-4,1.448960321E-3
2.583746417E0,-2.847053111E-6,2.406706102E-3,8.085259469E-4,2.538888847E-3
2.593703417E0,-1.594629837E-3,-1.697818749E-3,1.691145124E-3,2.878437884E-3
2.603660417E0,-7.040689234E-4,5.791839212E-4,3.598308831E-4,9.801251593E-4
2.613617417E0,-1.791308518E-3,1.537149772E-3,-2.225884935E-3,3.244407399E-3
2.623574417E0,1.238836208E-3,-9.947167709E-4,-4.209407140E-3,4.499253835E-3
2.633531417E0,-4.062359221E-4,1.603850164E-3,7.364614285E-4,1.811004806E-3
2.643488417E0,-1.315172762E-3,-5.316920578E-5,-5.503779976E-4,1.426682269E-3
2.653444417E0,-2.040016698E-3,-9.655375034E-4,2.483493183E-3,3.355841055E-3
2.663401417E0,2.292629797E-4,1.474983059E-3,-1.668238110E-5,1.492787607E-3
2.673358417E0,-2.898246748E-3,-8.376473561E-4,-1.346943667E-3,3.303898387E-3
2.683315417E0,4.339003935E-4,-2.980912104E-4,-1.530435518E-3,1.618443943E-3
2.693272417E0,-1.669094549E-3,1.627942547E-4,-2.258435823E-3,2.812989681E-3
2.703229417E0,1.214842545E-3,2.177475952E-3,-6.946275826E-4,2.588387801E-3
2.713186417E0,-2.345654648E-3,4.031667486E-4,-2.031910990E-4,2.388707972E-3
2.723143417E0,2.222731709E-3,-1.282613724E-3,-2.264477778E-3,3.422498185E-3
2.733100417E0,-1.888385275E-3,1.405259594E-3,-1.447573653E-3,2.763371665E-3
2.743056417E0,6.043334724E-4,-9.556328878E-4,-3.683297429E-3,3.852938244E-3
2.753013417E0,1.240937854E-3,-2.118945122E-5,-3.963724710E-3,4.153491222E-3
2.762970417E0,-2.715454204E-3,1.084022224E-3,1.309866901E-3,3.203833175E-3
2.772927417E0,-2.051711082E-3,1.036562026E-3,-4.073693999E-4,2.334508305E-3
2.782884417E0,1.376735745E-4,7.430817932E-4,4.999695811E-4,9.061424538E-4
2.792841417E0,-8.659110172E-4,-5.976650864E-4,-1.562817022E-3,1.883985799E-3
2.802798417E0,-4.866766976E-4,-7.861573249E-5,-3.037675517E-3,3.077418916E-3
2.812755417E0,-1.709418837E-3,-6.673792377E-4,-2.491232241E-3,3.094147037E-3
2.822712417E0,-1.643904950E-3,1.018934883E-3,7.857875316E-4,2.087609596E-3
2.832668417E0,-1.463838853E-3,1.593255438E-3,-2.210280159E-3,3.092996195E-3
2.842625417E0,3.489749506E-4,-5.505885929E-4,5.460915854E-4,8.503806997E-4
2.852582417E0,-5.568196066E-4,-1.184745692E-3,-2.246235963E-3,2.599855079E-3
2.862539417E0,-1.053232700E-3,2.132221125E-3,-2.654232318E-3,3.563792256E-3
2.872496417E0,1.238382887E-3,-1.278406009E-3,-3.714723978E-3,4.119112566E-3
2.882453417E0,1.298303949E-3,5.996553227E-4,-3.655324690E-4,1.476073723E-3
2.892410417E0,-9.813816287E-4,-1.782463863E-3,-2.684253501E-3,3.368308801E-3
2.902367417E0,-6.796454545E-4,-1.458358020E-3,1.789108937E-4,1.618868483E-3
2.912324417E0,9.625502280E-4,-1.324234530E-3,-3.176261089E-6,1.637104188E-3
2.922280417E0,-5.429347511E-4,-1.404129900E-3,-1.035683788E-3,1.827293033E-3
2.932237417E0,-1.515269163E-3,-2.007855102E-3,-2.343692351E-3,3.438083272E-3
2.942194417E0,5.777091719E-4,1.412709244E-3,-5.532490904E-4,1.623446904E-3
2.952151417E0,5.885686260E-4,1.763002947E-3,-1.620344818E-3,2.465787855E-3
2.962108417E0,1.200296683E-3,4.865499213E-4,9.184466326E-4,1.587761686E-3
2.972065417E0,-4.359843209E-3,1.955756918E-3,-2.249828540E-3,5.281566661E-3
2.982022417E0,-1.750478055E-3,3.594579175E-4,-7.105214172E-4,1.923076728E-3
2.991979417E0,1.124560600E-3,-6.261654198E-5,-2.991573652E-3,3.196571647E-3
3.001936417E0,8.220254676E-4,-1.910584047E-3,-3.446441609E-3,4.025421349E-3
3.011892417E0,-1.278793206E-3,1.379409805E-4,-1.434031874E-3,1.926340363E-3
3.021849417E0,1.470920630E-3,1.452744007E-3,-3.002633806E-3,3.645529101E-3
3.031806417E0,5.246272776E-4,-2.150181681E-3,-1.921367599E-3,2.930898922E-3
3.041763417E0,-1.017482718E-4,3.570022061E-3,-2.552939695E-4,3.580584483E-3
3.051720417E0,-1.038003247E-4,6.570843980E-4,-5.004649865E-4,8.324659850E-4
3.061677417E0,-2.974688075E-3,-5.136411637E-4,-1.352143940E-3,3.307701562E-3
3.071634417E0,-5.303018261E-4,1.831610687E-3,-2.108611632E-3,2.842931718E-3
3.081591417E0,1.940578921E-3,4.973672330E-4,-2.911021933E-3,3.533733069E-3
3.091548417E0,-6.591303973E-4,1.838561147E-3,1.321100397E-3,2.357979269E-3
3.101504417E0,-2.655152930E-4,1.432695426E-3,-1.025943435E-3,1.782042223E-3
3.111461417E0,-7.196560036E-4,-1.089917496E-3,-2.118154662E-4,1.323136691E-3
3.121418417E0,-1.005413244E-3,3.814790398E-4,-4.914473975E-4,1.182329308E-3
3.131375417E0,-6.973820273E-4,-7.539363578E-4,1.651788712E-3,1.945036677E-3
3.141332417E0,-3.212434240E-5,-3.864197060E-4,-3.131248523E-3,3.155165522E-3
3.151289417E0,-5.965020973E-4,2.632831223E-3,-1.899840310E-3,3.301061679E-3
3.161246417E0,-3.930365201E-4,9.033745155E-4,7.406839868E-4,1.232548575E-3
3.171203417E0,-1.145746675E-3,2.744207159E-4,3.855509276E-4,1.239633692E-3
3.181159417E0,-3.345477162E-4,1.586027443E-3,8.606588817E-4,1.835249012E-3
3.191116417E0,-1.382445451E-3,7.532266900E-4,-3.769447794E-4,1.618824647E-3
3.201073417E0,-9.390292689E-4,3.745248541E-4,-2.270452213E-3,2.485356732E-3
3.211030417E0,1.076680725E-3,1.348476857E-3,-5.169489887E-4,1.801351568E-3
3.220987417E0,1.440417254E-4,-1.234523952E-4,-1.340132090E-3,1.353492716E-3
3.230944417E0,-1.903880737E-3,-1.085412689E-3,2.378805657E-4,2.204420497E-3
3.240901417E0,-6.111824187E-4,1.787872054E-3,-1.108613680E-3,2.190674490E-3
3.250858417E0,-2.457529772E-3,4.517305642E-4,-2.438332653E-3,3.491271861E-3
3.260815417E0,-1.078545116E-3,2.490645275E-4,-4.091356881E-3,4.238454180E-3
3.270771417E0,-3.087207675E-3,7.126387209E-4,-2.417274285E-3,3.985212685E-3
3.280728417E0,2.944053151E-3,7.280847058E-4,5.462914123E-4,3.081556522E-3
3.290685417E0,-9.983276250E-4,5.628718063E-4,1.070176077E-4,1.151058420E-3
3.300642042E0,1.951123355E-3,9.096153080E-4,-1.052363077E-4,2.155309035E-3
3.310599042E0,6.466440391E-5,1.054947264E-3,-1.842253841E-4,1.072862623E-3
3.320556042E0,-1.805140870E-3,5.185864866E-4,-5.296373856E-4,1.951404946E-3
3.330513042E0,-1.314015826E-3,-1.622363925E-5,-3.668021876E-3,3.896316887E-3
3.340470042E0,6.095854333E-4,-1.184552908E-3,-3.971273545E-4,1.390133133E-3
3.350427042E0,1.694906969E-3,1.470219344E-3,-1.493303804E-3,2.695219991E-3
3.360383042E0,2.548982622E-3,1.484928653E-4,2.081897692E-4,2.561777804E-3
3.370340042E0,7.161679678E-4,1.414537430E-3,1.337805996E-3,2.074496946E-3
3.380297042E0,1.257451950E-4,-7.656589150E-5,-5.586310290E-4,5.777047830E-4
3.390254042E0,4.079736536E-4,1.719076186E-3,-2.064519795E-3,2.717334617E-3
3.400211042E0,4.412631970E-4,1.057546586E-3,-4.375610966E-3,4.523172484E-3
3.410168042E0,4.806385841E-4,7.391367108E-4,-1.281535951E-3,1.555529145E-3
3.420125042E0,1.543772523E-3,-8.161496371E-4,-3.530841786E-3,3.939057953E-3
3.430082042E0,4.227970727E-3,-3.210920841E-4,2.982081205E-4,4.250619329E-3
3.440039042E0,1.216734294E-3,-9.464016184E-4,7.639949908E-4,1.720408879E-3
3.449995042E0,-2.541222377E-3,4.342263564E-4,-5.331666907E-4,2.632609051E-3
3.459952042E0,-1.555586467E-3,1.224919222E-3,-3.053316148E-3,3.639095472E-3
3.469909042E0,-8.958026301E-4,3.507966176E-4,-2.148145577E-3,2.353731089E-3
3.479866042E0,-3.570415312E-3,-1.213012263E-3,-2.883177949E-3,4.746786212E-3
3.489823042E0,9.626743849E-5,-1.366967335E-4,-9.108872619E-4,9.261042169E-4
3.499780042E0,8.518061950E-4,-1.228488982E-4,-4.581498797E-4,9.749702344E-4
3.509737042E0,-6.655615289E-4,-1.441245899E-3,2.734977170E-5,1.587737352E-3
3.519694042E0,-1.555589959E-3,-1.826604828E-3,3.024471225E-3,3.860540313E-3
3.529651042E0,-2.357179997E-3,-1.234225929E-3,1.057823421E-3,2.863320027E-3
3.539607042E0,-4.237252288E-4,-4.153037444E-4,-2.376588993E-3,2.449529651E-3
3.549564042E0,-1.877296367E-3,1.273002476E-3,-1.870275242E-3,2.939848029E-3
3.559521042E0,3.176318016E-3,1.195874065E-4,-2.824752359E-3,4.252355015E-3
3.569478042E0,-9.823363507E-4,-1.064873300E-3,-1.381723327E-3,2.002023777E-3
3.579435042E0,5.939885741E-4,6.041293964E-4,1.488897949E-3,1.713070885E-3
3.589392042E0,-2.359678037E-3,1.892642118E-3,7.957188063E-5,3.025971961E-3
3.599349042E0,2.239867346E-3,1.407414675E-3,3.136614570E-3,4.103190558E-3
3.609306042E0,-2.908061724E-4,-6.318725646E-4,5.153028178E-4,8.656605350E-4
3.619263042E0,5.305126542E-4,-1.346608624E-4,-5.068813451E-3,5.098278829E-3
3.629219042E0,7.392605767E-6,5.236230791E-4,-1.837500837E-3,1.910666142E-3
3.639176042E0,1.533337636E-4,1.230835915E-4,-2.084451262E-4,2.865487466E-4
3.649133042E0,-2.919626888E-3,5.418080837E-4,2.183301840E-3,3.685727077E-3
3.659090042E0,-2.000836190E-3,6.302250549E-4,4.708893830E-4,2.149945555E-3
3.669047042E0,1.739383442E-3,-1.468438655E-3,-1.219358761E-3,2.582363768E-3
3.679004042E0,4.101997474E-4,-1.371242106E-4,-2.463587560E-3,2.501265789E-3
3.688961042E0,-3.170589916E-3,9.340960532E-4,-9.272519965E-4,3.432924718E-3
3.698918042E0,-9.196860483E-4,-7.005520165E-4,-1.311279833E-3,1.748156273E-3
3.708874042E0,-4.966778215E-5,-1.234738156E-3,1.361918636E-3,1.838985474E-3
3.718831042E0,6.165239029E-5,1.363442279E-3,1.531097805E-4,1.373396691E-3
3.728788042E0,-7.976132911E-4,-5.481103435E-4,-1.608539373E-3,1.877234888E-3
3.738745042E0,-2.156357979E-3,-7.736803964E-4,-9.661847726E-4,2.486357598E-3
3.748702042E0,-1.891244436E-3,-4.852795973E-4,-4.873541184E-4,2.012415424E-3
3.758659042E0,4.195804941E-4,2.321425825E-3,-1.704685157E-3,2.910501183E-3
3.768616042E0,-2.199564362E-3,-2.011487260E-3,1.297788229E-3,3.250910437E-3
3.778573042E0,-1.582243480E-3,-1.763014123E-3,-2.210125676E-4,2.379193095E-3
3.788530042E0,-9.228242561E-6,-9.105913341E-4,-1.066025347E-3,1.402024172E-3
3.798486042E0,-8.657010039E-4,1.005819999E-3,-2.727038926E-3,3.032796300E-3
3.808443042E0,4.212337080E-4,1.061130315E-4,-1.643357798E-3,1.699800772E-3
3.818400042E0,-1.665885560E-3,9.886845946E-4,-1.702213660E-3,2.578798804E-3
3.828357042E0,-3.055931535E-3,-8.103344589E-4,9.865276515E-4,3.311887119E-3
3.838314042E0,1.627648016E-4,-1.183177345E-3,-3.322697012E-4,1.239679057E-3
3.848271042E0,-4.665924935E-4,-1.850359142E-3,-2.219591406E-4,1.921146368E-3
3.858228042E0,-5.166599294E-4,1.750234514E-3,7.466325769E-4,1.971729835E-3
3.868185042E0,-2.371145412E-3,1.333516091E-3,-1.616929891E-3,3.164657644E-3
3.878142042E0,-1.990579534E-3,-5.725082010E-4,-4.326222697E-4,2.115971302E-3
3.888098042E0,-8.282484487E-4,2.024751157E-4,3.287458676E-4,9.138191893E-4
3.898055042E0,6.862913724E-4,1.047495753E-3,-1.719224965E-3,2.126964429E-3
3.908012042E0,-1.597925788E-3,2.860407345E-3,-4.098240752E-3,5.246987160E-3
3.917969042E0,-8.778069168E-4,-6.642863154E-4,-4.309162963E-3,4.447550644E-3
3.927926042E0,-1.251257956E-3,2.416633070E-4,-8.836708730E-5,1.277441337E-3
3.937883042E0,1.984216273E-3,6.568506360E-4,2.657884499E-3,3.381259674E-3
3.947840042E0,-1.001085388E-3,-9.885132313E-4,1.423950307E-3,2.001740452E-3
3.957797042E0,-3.912213724E-4,1.265518367E-4,9.152864804E-4,1.003403643E-3
3.967754042E0,1.559306751E-3,-1.322445460E-3,-9.070743108E-4,2.236757328E-3
3.977710042E0,6.684793625E-4,6.442992017E-4,-3.127884353E-3,3.262766716E-3
3.987667042E0,-9.990762919E-7,-1.215667464E-3,-9.795591468E-4,1.561212510E-3
3.997624042E0,1.743105124E-3,7.577342913E-4,-2.940444509E-3,3.501255580E-3
4.007581042E0,2.919784747E-4,-1.045743003E-3,1.020906144E-3,1.490328559E-3
4.017538042E0,-8.854049956E-4,1.085584983E-3,-8.126802277E-4,1.619532622E-3
4.027495042E0,-4.543663003E-3,-1.110860147E-3,-8.867834695E-4,4.760805464E-3
4.037452042E0,6.971717812E-4,9.474968538E-4,-2.309710486E-3,2.592018771E-3
4.047409042E0,8.230141248E-4,1.979368739E-3,-1.568695065E-3,2.656323975E-3
4.057366042E0,6.858613342E-4,-2.022832632E-6,-1.888540573E-3,2.009227553E-3
4.067322042E0,-1.274789101E-3,3.723800182E-5,2.949391492E-3,3.213313569E-3
4.077279042E0,5.705152871E-4,2.251923084E-3,-6.695782067E-4,2.417639395E-3
4.087236042E0,-9.527681395E-4,-3.312551416E-3,-1.341089024E-3,3.698551579E-3
4.097193042E0,3.316012677E-3,-2.434663475E-5,1.433125930E-3,3.612531351E-3
4.107150042E0,1.949807745E-3,1.652809791E-3,-5.766994320E-3,6.308070540E-3
4.117107042E0,5.987860495E-4,-2.009036951E-3,-3.385595977E-3,3.982089191E-3
4.127064042E0,-9.514030535E-5,-8.756369352E-4,-3.596620169E-3,3.702899993E-3
4.137021042E0,-4.482754739E-4,2.666633576E-3,-5.861826940E-4,2.766856643E-3
4.146977042E0,4.020949127E-4,-1.100666821E-3,-1.189654111E-3,1.669857681E-3
4.156934042E0,-9.497255087E-4,-1.060985960E-3,4.257042892E-3,4.488884487E-3
4.166891042E0,-5.634996342E-4,-2.556527033E-4,-1.674334286E-3,1.785016931E-3
4.176848042E0,8.913853089E-4,9.249262512E-4,-8.559449343E-4,1.543599064E-3
4.186805042E0,-2.540947637E-3,2.761941403E-3,-1.211968716E-3,3.943805697E-3
4.196762042E0,1.227159053E-3,-2.085810527E-3,-3.368063830E-3,4.147333946E-3
4.206719042E0,-1.595220761E-3,8.821375668E-4,-3.817102406E-4,1.862417427E-3
4.216676042E0,-1.581106102E-3,8.645607159E-4,-3.043928882E-5,1.802300832E-3
4.226633042E0,2.051175339E-3,5.847113207E-4,-1.631942112E-3,2.685599124E-3
4.236589042E0,9.568824898E-4,-1.027832739E-3,-7.072925800E-4,1.572363518E-3
4.246546042E0,-4.385289736E-3,9.879320860E-4,-1.691635232E-3,4.802958009E-3
4.256503042E0,1.471444266E-4,4.270700738E-4,-7.009393303E-4,8.338802521E-4
4.266460042E0,-1.320587005E-3,1.877046190E-3,-1.824736362E-3,2.932049664E-3
4.276417042E0,1.801702892E-3,7.457351312E-4,-2.799985930E-3,3.412063219E-3
4.286374042E0,-1.042630058E-3,-1.722574234E-5,-8.138417033E-4,1.322766979E-3
4.296331417E0,-7.904288359E-4,-5.578473210E-4,1.595437061E-4,9.805231116E-4
4.306288417E0,-1.951064682E-3,-1.234721392E-3,-1.431769924E-4,2.313371989E-3
4.316245417E0,1.567986328E-5,1.185558736E-3,-1.454632729E-5,1.185751648E-3
4.326201417E0,-2.719119657E-4,1.114913262E-3,-7.510676514E-4,1.371521169E-3
4.336158417E0,-6.559398025E-4,-1.147442497E-3,-3.527945839E-3,3.767397398E-3
4.346115417E0,1.053943066E-3,-5.588252097E-4,-1.869633794E-3,2.217794428E-3
4.356072417E0,-2.934140619E-3,2.360798419E-3,-3.102411050E-3,4.879293460E-3
4.366029417E0,5.596550182E-5,-5.488339812E-4,-3.795912955E-3,3.835792752E-3
4.375986417E0,-3.486837726E-3,-5.019623786E-4,1.655311440E-3,3.892307737E-3
4.385943417E0,3.025002079E-4,1.113574021E-3,1.468366361E-3,1.867525969E-3
4.395900417E0,8.242134354E-4,1.399065368E-3,-3.609589767E-4,1.663431115E-3
4.405857417E0,-7.110054139E-5,6.306506693E-4,-1.013617381E-3,1.195907918E-3
4.415813417E0,-1.523854909E-3,2.348389477E-3,-4.255217034E-3,5.093519307E-3
4.425770417E0,-6.343615241E-4,8.328091353E-4,-2.512517152E-3,2.721897875E-3
4.435727417E0,-3.568292595E-5,-3.842553124E-4,-3.012944944E-4,4.895955358E-4
4.445684417E0,-3.244979307E-4,1.673987135E-4,-5.516008241E-4,6.615018560E-4
4.455641417E0,2.053172328E-3,1.676079817E-3,1.365076168E-3,2.981307281E-3
4.465598417E0,-1.042709220E-3,-5.964823067E-4,8.605662733E-4,1.477703614E-3
4.475555417E0,-6.914383266E-4,-7.402934134E-4,-7.032419089E-4,1.233154686E-3
4.485512417E0,-6.288371515E-4,-1.728672534E-3,-7.624882273E-4,1.991264219E-3
4.495468417E0,-3.404650139E-3,1.621051691E-3,3.879973374E-4,3.790777372E-3
4.505425417E0,-9.754179046E-4,-2.643066458E-3,-8.240481839E-5,2.818515735E-3
4.515382417E0,-5.730143748E-4,-1.382592134E-3,3.258577490E-4,1.531695060E-3
4.525339417E0,-1.392023521E-3,-8.111465722E-4,4.875554296E-4,1.683270193E-3
4.535296417E0,-6.183752557E-4,1.049604267E-3,2.216479741E-3,2.529197406E-3
4.545253417E0,3.039422911E-3,7.239012048E-4,1.433989964E-3,3.437797522E-3
4.555210417E0,9.584287764E-4,3.364114091E-4,-3.464362118E-3,3.610202660E-3
4.565167417E0,8.176970296E-4,2.449378371E-7,1.356286230E-3,1.583711094E-3
4.575124417E0,-1.888341038E-3,1.568847336E-3,-2.385721309E-3,3.423270366E-3
4.585080417E0,1.556579606E-3,-2.755038440E-4,1.371410443E-3,2.092751547E-3
4.595037417E0,1.301182434E-3,7.375627756E-4,1.087783836E-3,1.849418354E-3
4.604994417E0,-2.880626358E-3,1.620474271E-3,-1.876403810E-3,3.800636307E-3
4.614951417E0,-7.500974461E-4,8.841101080E-4,-7.184613496E-4,1.363995445E-3
4.624908417E0,-1.335282577E-3,-7.831417024E-4,-2.968481276E-3,3.347860746E-3
4.634865417E0,-7.608386222E-4,1.632877626E-3,-2.216670895E-3,2.856360377E-3
4.644822417E0,-2.651742194E-3,8.405102417E-4,-3.372342326E-5,2.781965384E-3
4.654779417E0,-2.692784183E-4,-1.400653273E-4,-1.995141618E-3,2.018097926E-3
4.664736417E0,-4.213419743E-5,4.565333948E-4,2.625184425E-4,5.283123733E-4
4.674692417E0,1.957633533E-3,4.714466631E-4,9.147265810E-4,2.211631914E-3
4.684649417E0,-1.410114462E-3,4.193112254E-4,-2.553046215E-3,2.946572531E-3
4.694606417E0,4.210718907E-5,2.041272819E-4,-2.288328018E-3,2.297800270E-3
4.704563417E0,-7.635080256E-4,-5.757194012E-4,-2.834604820E-4,9.973701314E-4
4.714520417E0,5.531588104E-4,1.555874944E-3,-1.028346596E-3,1.945309290E-3
4.724477417E0,1.742755878E-3,-3.441032022E-4,6.483236211E-4,1.891012581E-3
4.734434417E0,-9.742011316E-4,4.939930514E-4,6.581773632E-4,1.275262491E-3
4.744391417E0,8.432715549E-4,-3.560213372E-4,-2.943227068E-3,3.082278975E-3
4.754348417E0,-3.935003188E-4,1.871180721E-3,4.991749302E-4,1.976192147E-3
4.764304417E0,-2.104957821E-4,3.392808139E-4,3.590242704E-3,3.612376312E-3
4.774261417E0,6.700563245E-5,-7.185265422E-4,-2.556066727E-3,2.655983295E-3
4.784218417E0,-1.046588412E-3,1.754862256E-3,1.934708911E-3,2.813891862E-3
4.794175417E0,3.363911528E-4,4.959860817E-4,1.810173271E-4,6.260419104E-4
4.804132417E0,8.969339542E-4,-2.664839849E-3,1.980900415E-4,2.818705661E-3
4.814089417E0,1.375504071E-3,-1.036776230E-4,-2.783495001E-4,1.407209630E-3
4.824046417E0,3.276121104E-3,2.637979575E-3,-1.594813308E-3,4.498370284E-3
4.834003417E0,1.892342698E-3,2.515740693E-3,-2.323720371E-3,3.912746923E-3
4.843960417E0,-7.895035669E-4,5.538649857E-4,2.322625369E-4,9.919819507E-4
4.853916417E0,-1.076059649E-3,-1.114604995E-3,-3.235439304E-3,3.587243531E-3
4.863873417E0,-4.094746429E-3,-1.530079171E-4,-4.089922644E-3,5.789458263E-3
4.873830417E0,2.043945715E-4,4.251636565E-4,5.610219669E-4,7.329985832E-4
4.883787417E0,2.956459764E-3,-1.404766925E-3,-6.305953721E-4,3.333417912E-3
4.893744417E0,-3.354738001E-4,-9.000981227E-4,1.627498888E-3,1.889833837E-3
4.903701417E0,-3.656314919E-3,2.050889656E-3,2.726046368E-4,4.201083248E-3
4.913658417E0,7.264493033E-4,-2.491664141E-3,-3.176721744E-3,4.102155510E-3
4.923615417E0,-6.877409760E-4,-1.244787127E-4,-1.196284546E-3,1.385488836E-3
4.933571417E0,-1.146337250E-3,-1.599603333E-3,-3.696392523E-4,2.002361878E-3
4.943528417E0,-1.456243685E-3,-1.160631888E-3,1.474778401E-4,1.868010107E-3
4.953485417E0,7.017155876E-4,1.174192876E-4,1.085957047E-4,7.197118049E-4
4.963442417E0,-1.318233320E-3,1.661675051E-4,-9.286159184E-4,1.621011490E-3
4.973399417E0,-2.758721821E-4,1.471649855E-3,-2.258598572E-3,2.709820338E-3
4.983356417E0,-6.286322605E-5,3.738217056E-4,-1.429690281E-3,1.479090515E-3
4.993313417E0,-6.839123089E-4,-3.417693079E-4,-2.015585778E-3,2.155719911E-3
5.003270417E0,-8.884782437E-5,2.243537456E-4,-8.323899237E-5,2.552592190E-4
5.013227417E0,-1.169824856E-3,4.557827488E-4,7.713693776E-4,1.473512411E-3
5.023183417E0,-1.290237997E-4,-4.331851378E-4,-9.066591738E-4,1.013078162E-3
5.033140417E0,-2.374601085E-3,3.872625530E-5,-9.820266860E-4,2.569942888E-3
5.043097417E0,4.128757864E-4,1.326082274E-4,-1.458987361E-3,1.522069471E-3
5.053054417E0,1.195845078E-3,1.107705757E-4,-1.676567597E-3,2.062327442E-3
5.063011417E0,-1.636606175E-4,1.511550508E-3,1.800407423E-3,2.356488198E-3
5.072968417E0,1.073111314E-3,-4.061916843E-4,-7.149481680E-4,1.351928423E-3
5.082925417E0,-1.790795242E-3,7.043844089E-4,-1.556044910E-3,2.474748625E-3
5.092882417E0,1.756002544E-3,1.612256281E-3,-1.914411550E-4,2.391561199E-3
5.102839417E0,6.353182252E-4,-1.326004975E-3,-1.845278312E-4,1.481880211E-3
5.112795417E0,1.984742004E-3,9.825360030E-5,-2.284962917E-3,3.028185946E-3
5.122752417E0,-1.053096727E-3,-9.063798934E-4,1.151483506E-3,1.804564072E-3
5.132709417E0,5.602461752E-4,-5.207536742E-4,-1.553295879E-4,7.805046104E-4
5.142666417E0,-3.491293173E-4,1.136884093E-4,1.066592056E-3,1.128022584E-3
5.152623417E0,2.641334198E-3,-1.438934356E-3,7.067989791E-4,3.089780449E-3
5.162580417E0,-4.303718451E-4,-6.175180897E-4,-1.608244376E-3,1.775668463E-3
5.172537417E0,-1.720140688E-3,-1.205718145E-4,1.257317024E-3,2.134073019E-3
5.182494417E0,-1.540422207E-3,1.952233724E-3,1.916753245E-4,2.494164493E-3
5.192451417E0,2.104646293E-3,1.413476653E-3,6.111231633E-4,2.607858085E-3
5.202407417E0,2.300174208E-3,-2.255755477E-3,-6.298874505E-4,3.282680667E-3
5.212364417E0,-6.910881493E-4,-3.776941448E-4,1.003162935E-3,1.275378992E-3
5.222321417E0,-3.406091128E-4,2.460053191E-3,-1.125785289E-3,2.726768928E-3
5.232278417E0,-8.514034562E-4,-1.925108023E-3,-2.535396488E-3,3.295324582E-3
5.242235417E0,-2.796190092E-3,1.188963652E-4,-3.133172868E-5,2.798892112E-3
5.252192417E0,-2.883807989E-3,-1.401236281E-3,4.280635621E-4,3.234663822E-3
5.262149417E0,1.275162911E-3,1.297960989E-3,-2.457364462E-3,3.057676124E-3
5.272106417E0,1.857329858E-3,-6.682509556E-4,-2.137785079E-3,2.909700773E-3
5.282062417E0,3.887278726E-4,-1.395947300E-3,-1.595803769E-3,2.155543526E-3
5.292019417E0,-1.816369360E-3,2.612110227E-3,-1.915190369E-4,3.187318157E-3
5.301976792E0,-4.763682373E-4,-1.117289066E-3,1.943978132E-4,1.230061813E-3
5.311933792E0,-1.623924356E-3,-4.837233573E-4,-2.772479784E-4,1.716969727E-3
5.321890792E0,1.656918321E-4,1.068769023E-3,-1.194778597E-3,1.611588317E-3
5.331847792E0,-7.610882167E-4,1.474368386E-3,-1.730073942E-3,2.397117697E-3
5.341804792E0,-3.959206864E-3,4.471633583E-4,-1.529781846E-3,4.267962811E-3
5.351761792E0,-8.118830156E-4,8.080210537E-4,2.334767487E-6,1.145450787E-3
5.361718792E0,-1.409395947E-3,8.811093867E-4,2.218307927E-3,2.771938085E-3
5.371674792E0,-1.009921893E-3,2.265051007E-4,1.497656456E-3,1.820500385E-3
5.381631792E0,-8.486977313E-4,5.015358329E-4,1.939789625E-3,2.175915858E-3
5.391588792E0,-5.081470590E-5,2.909079194E-5,-1.743628411E-3,1.744611258E-3
5.401545792E0,-1.235030708E-3,1.583379693E-3,-1.822299091E-3,2.711672193E-3
5.411502792E0,7.157347864E-4,-1.388872042E-4,-1.969838282E-3,2.100435383E-3
5.421459792E0,-1.164274756E-3,4.566693678E-4,-2.956331009E-4,1.285099821E-3
5.431416792E0,1.039757393E-3,-1.752954908E-3,-4.439712502E-4,2.085918698E-3
5.441373792E0,6.987843663E-4,-4.944633693E-4,2.045476809E-3,2.217378856E-3
5.451330792E0,-1.898596529E-3,-4.976587370E-4,1.763980719E-3,2.638931787E-3
5.461286792E0,-8.605344919E-4,1.342271455E-3,-1.100810478E-3,1.937523155E-3
5.471243792E0,-7.950206054E-4,5.758134648E-4,-1.313330606E-3,1.639651240E-3
5.481200792E0,2.635568380E-3,-5.730614066E-4,-1.418624539E-3,3.047476931E-3
5.491157792E0,-1.946134027E-3,-1.734199002E-3,-2.838089364E-3,3.853522423E-3
5.501114792E0,3.106871154E-4,-8.134804666E-4,-1.914515859E-3,2.103246996E-3
5.511071792E0,-1.217701123E-3,-1.066214405E-3,-6.886627525E-4,1.758938762E-3
5.521028792E0,-1.823157771E-3,3.973860294E-5,2.713054884E-3,3.268967760E-3
5.530985792E0,-1.257236116E-3,1.283700578E-3,3.708544420E-3,4.120901787E-3
5.540942792E0,-6.033303216E-4,1.748559065E-3,2.607062459E-3,3.196598340E-3
5.550898792E0,-3.439383581E-4,1.468128525E-3,-4.249465419E-4,1.566612435E-3
5.560855792E0,-2.655988326E-3,6.332332268E-4,-2.955631353E-3,4.023806035E-3
5.570812792E0,-1.511095325E-3,8.532097563E-4,-6.661118241E-4,1.858784799E-3
5.580769792E0,-1.282323850E-3,-7.172320038E-4,1.122461981E-4,1.473558758E-3
5.590726792E0,9.403504664E-4,8.055632934E-4,3.970634192E-3,4.159221935E-3
5.600683792E0,1.323881559E-3,-1.090872101E-3,1.449823612E-3,2.246030461E-3
5.610640792E0,-3.435234539E-4,-1.244270243E-3,1.853825292E-3,2.258956620E-3
5.620597792E0,6.771641783E-4,2.524942160E-3,-1.079832204E-3,2.828413305E-3
5.630554792E0,4.529259168E-4,-1.310010441E-3,3.795799566E-4,1.437132626E-3
5.640510792E0,-1.612951630E-3,1.163511537E-3,-2.442336176E-3,3.149663165E-3
5.650467792E0,-4.653955111E-4,1.651668921E-3,-6.092822878E-4,1.820941546E-3
5.660424792E0,-3.320923075E-3,1.154957339E-3,2.592376550E-4,3.525572391E-3
5.670381792E0,-1.208237256E-3,-1.159595326E-3,1.931170118E-3,2.556152697E-3
5.680338792E0,8.494919166E-4,-2.247001976E-3,-6.134894211E-4,2.479319194E-3
5.690295792E0,-8.179133292E-4,-2.903770655E-4,-7.362611359E-4,1.138148283E-3
5.700252792E0,1.328814076E-3,-3.950651735E-4,-8.389222203E-4,1.620374596E-3
5.710209792E0,1.213499228E-3,9.612832218E-4,-2.149729989E-3,2.649147946E-3
5.720165792E0,1.593556372E-3,1.750106923E-3,-6.293113111E-4,2.449148603E-3
5.730122792E0,-1.695713727E-3,1.346338540E-4,1.343025826E-3,2.167323162E-3
5.740079792E0,-1.094048843E-3,1.673475839E-3,-1.494482392E-3,2.496185465E-3
5.750036792E0,-7.244022563E-4,2.116663381E-4,6.823855219E-4,1.017453325E-3
5.759993792E0,9.823238943E-4,1.378124580E-4,3.895662376E-4,1.065699001E-3
5.769950792E0,-4.280862631E-4,-2.779066563E-4,-2.016067039E-3,2.079667345E-3
5.779907792E0,-9.470775258E-4,-2.873002551E-3,-6.914866390E-4,3.103103813E-3
5.789864792E0,2.462848788E-4,-1.735833474E-3,-5.024021957E-4,1.823782349E-3
5.799821792E0,1.566757215E-3,-3.167781979E-4,-1.588814892E-3,2.253754503E-3
5.809777792E0,-1.065511256E-3,-9.474148974E-4,3.416063730E-3,3.701675382E-3
5.819734792E0,-2.786350902E-3,4.917979240E-4,-5.031219916E-4,2.873803801E-3
5.829691792E0,-1.545584062E-3,-2.686152235E-3,1.618085778E-3,3.496061428E-3
5.839648792E0,-1.600272954E-4,-1.690917648E-3,-2.482647542E-4,1.716521662E-3
5.849605792E0,-1.324627548E-3,-3.622658551E-4,-3.579870099E-4,1.419165033E-3
5.859562792E0,-2.957303077E-4,-1.031169668E-3,-3.797913669E-4,1.137984526E-3
5.869519792E0,-2.530921483E-3,2.374746837E-3,-1.452246215E-3,3.762180905E-3
5.879476792E0,8.221173193E-4,1.311283559E-3,1.526285778E-3,2.173681148E-3
5.889433792E0,4.535358166E-4,1.137379557E-3,-1.330753323E-3,1.808378113E-3
5.899389792E0,9.441482252E-4,-1.766082831E-3,-1.724471105E-3,2.642776008E-3
5.909346792E0,2.056395169E-5,1.775388606E-3,-2.329275012E-3,2.928813695E-3
5.919303792E0,-2.335120924E-3,2.478772774E-3,-1.176905120E-3,3.603083382E-3
5.929260792E0,-1.752421143E-3,1.434813254E-3,-3.094647545E-3,3.834907087E-3
5.939217792E0,-1.525448170E-5,5.532419309E-4,1.209366368E-3,1.329991107E-3
5.949174792E0,-6.956921425E-4,-2.528969198E-4,-8.093519136E-5,7.446441528E-4
5.959131792E0,2.426959109E-4,-5.296347663E-4,-1.740434207E-3,1.835354331E-3
5.969088792E0,-2.865745686E-3,-2.128597349E-3,2.577356063E-4,3.579085449E-3
5.979045792E0,9.007337503E-4,-6.591603160E-4,2.124354243E-3,2.399728018E-3
5.989001792E0,6.304228446E-4,5.336692557E-4,7.221997948E-4,1.097182018E-3
5.998958792E0,-9.625507519E-4,3.510136157E-4,-1.525955042E-3,1.838002529E-3
6.008915792E0,6.353459321E-4,4.341043532E-4,-8.058364037E-4,1.114218718E-3
6.018872792E0,2.708421089E-4,6.626946852E-4,-6.235887995E-4,9.494117571E-4
6.028829792E0,1.440757187E-4,2.349913120E-4,1.559670782E-3,1.583840799E-3
6.038786792E0,-1.561506884E-3,-1.169249415E-3,7.959594368E-4,2.106893298E-3
6.048743792E0,2.753879176E-3,4.904326051E-4,6.092700642E-5,2.797871827E-3
6.058700792E0,-1.206489978E-3,7.570814341E-5,-1.466049580E-3,1.900171351E-3
6.068657792E0,1.516858581E-3,-6.622541696E-4,-9.137099842E-4,1.890583634E-3
6.078613792E0,4.939817591E-4,2.853935584E-4,-4.377350677E-3,4.414370443E-3
6.088570792E0,1.487607136E-3,4.523741081E-4,-3.006355371E-3,3.384640298E-3
6.098527792E0,9.599740733E-4,-2.296606079E-3,4.287732881E-4,2.525825852E-3
6.108484792E0,-2.466981765E-3,-1.810045913E-3,1.413610298E-3,3.370542881E-3
6.118441792E0,-2.660646103E-3,-2.051524818E-3,-1.414400525E-3,3.645314885E-3
6.128398792E0,1.963932766E-3,-2.086678520E-3,1.769142225E-3,3.367658440E-3
6.138355792E0,3.038549330E-4,7.158014923E-4,2.843532711E-4,8.279833208E-4
6.148312792E0,2.223994117E-3,-8.091246709E-4,-3.901336808E-3,4.563032046E-3
6.158269792E0,-5.865772255E-5,1.505684108E-3,-3.553690389E-3,3.859953463E-3
6.168225792E0,-8.213869296E-4,-1.479452476E-3,9.134958964E-4,1.923000486E-3
6.178182792E0,-2.587748924E-3,-1.353537664E-3,3.863251768E-4,2.945803090E-3
6.188139792E0,4.240199924E-4,3.583356738E-5,2.725912258E-3,2.758926356E-3
6.198096792E0,-1.094293082E-3,7.501672953E-4,1.190802548E-3,1.782761630E-3
6.208053792E0,-6.964169443E-4,-1.702206209E-4,-6.824650336E-4,9.898131855E-4
6.218010792E0,4.914801102E-4,2.400297672E-4,-1.954059117E-3,2.029165843E-3
6.227967792E0,-2.419543453E-4,1.732198521E-3,-3.146170639E-4,1.777086807E-3
6.237924792E0,1.433814294E-3,-5.420744419E-4,4.726368061E-4,1.604074088E-3
6.247880792E0,2.396529308E-4,-6.840210408E-4,6.681128289E-4,9.857449282E-4
6.257837792E0,-1.945780125E-3,6.961170584E-4,2.215604996E-3,3.029776353E-3
6.267794792E0,1.598620904E-3,1.596797258E-3,-6.004215684E-4,2.337917093E-3
6.277751792E0,-1.156570390E-3,-7.191495970E-4,-2.196423244E-3,2.584396695E-3
6.287708792E0,3.981831251E-4,-2.373838797E-4,-4.618035629E-3,4.641244874E-3
6.297665292E0,2.344700508E-3,1.698505133E-3,-1.828306820E-3,3.424214653E-3
6.307622292E0,1.209927490E-3,2.287330106E-3,4.883770598E-4,2.633308887E-3
6.317579292E0,-6.126356311E-5,3.547975793E-4,1.329326769E-4,3.838041728E-4
6.327536292E0,1.332368585E-3,3.044642508E-4,5.830068840E-4,1.485867273E-3
6.337492292E0,2.310192212E-4,1.566775143E-3,-1.757686259E-4,1.593439312E-3
6.347449292E0,-5.889680469E-4,-6.170170382E-4,-1.973668579E-3,2.150107217E-3
6.357406292E0,2.010589698E-3,-5.676252767E-4,-1.362737501E-3,2.494338166E-3
6.367363292E0,-3.646838013E-4,4.459740594E-4,-1.249020454E-3,1.375477819E-3
6.377320292E0,1.789102098E-3,2.413494512E-4,-1.231105998E-3,2.185121931E-3
6.387277292E0,1.147280214E-3,2.317283303E-3,-7.437474560E-4,2.690578762E-3
6.397234292E0,1.321843592E-4,-2.258978784E-4,-1.563156489E-3,1.584916643E-3
6.407191292E0,1.911175903E-3,-3.078144044E-3,-2.096054843E-3,4.185810553E-3
6.417148292E0,-2.491003834E-4,-1.183840446E-3,1.521160826E-3,1.943568744E-3
6.427104292E0,-4.030857235E-5,2.337601036E-4,1.169623574E-3,1.193435324E-3
6.437061292E0,3.298988100E-3,-7.429728284E-4,5.137370317E-4,3.420417642E-3
6.447018292E0,-2.514958847E-3,1.277301461E-3,1.897249254E-3,3.399422268E-3
6.456975292E0,1.250875182E-3,-3.945762292E-4,-3.363981843E-3,3.610644397E-3
6.466932292E0,-7.792526158E-4,-2.183421515E-3,3.908089711E-4,2.351020162E-3
6.476889292E0,1.142849214E-5,3.054197878E-4,-1.263981685E-4,3.307391029E-4
6.486846292E0,-4.875892773E-5,-2.103143372E-3,-2.433228306E-3,3.216549310E-3
6.496803292E0,1.161881140E-3,-5.154693499E-4,2.086293651E-3,2.443009953E-3
6.506760292E0,-5.816903431E-4,-5.120066926E-4,-1.520932419E-4,7.897131522E-4
6.516716292E0,-1.888617408E-3,-1.365793869E-4,3.214678145E-4,1.920643433E-3
6.526673292E0,1.245656749E-3,1.120166853E-3,-2.077773912E-3,2.669003362E-3
6.536630292E0,-3.274091287E-4,8.573904634E-4,-5.837255158E-4,1.087681305E-3
6.546587292E0,1.534673036E-3,1.423312351E-4,9.724480333E-5,1.544323820E-3
6.556544292E0,6.858764682E-4,-2.205098979E-3,2.620253363E-4,2.324122483E-3
6.566501292E0,6.363417488E-4,7.611298934E-4,9.664305253E-5,9.967895542E-4
6.576458292E0,-1.666598138E-3,-5.345176905E-4,2.003771951E-4,1.761649663E-3
6.586415292E0,1.844779821E-3,4.551932216E-5,-1.777818892E-3,2.562406020E-3
6.596371292E0,5.227216752E-4,8.722832426E-4,-4.066423513E-3,4.191648386E-3
6.606328292E0,-1.858410658E-3,1.272556372E-3,-3.150562756E-3,3.872871748E-3
6.616285292E0,-2.078206278E-3,-4.152767360E-5,1.591013512E-3,2.617630585E-3
6.626242292E0,1.704015071E-3,-5.398048088E-4,1.154255122E-3,2.127759732E-3
6.636199292E0,-2.114113886E-4,-8.661048487E-4,1.810810762E-3,2.018382520E-3
6.646156292E0,6.967806257E-6,-1.219506375E-3,-3.440942615E-3,3.650661643E-3
6.656113292E0,1.182259526E-3,-2.297142521E-3,-3.987156786E-3,4.751002061E-3
6.666070292E0,-3.746815491E-5,1.778026111E-3,-2.295516897E-3,2.903821368E-3
6.676027292E0,-6.441596197E-4,-6.160177290E-4,-1.210509334E-3,1.503247254E-3
6.685983292E0,2.210482722E-3,1.514244825E-3,1.218027202E-3,2.943256958E-3
6.695940292E0,7.537582424E-4,1.740148291E-3,5.945450161E-3,6.240564492E-3
6.705897292E0,-6.678370992E-4,1.202244312E-5,2.055903431E-3,2.161686806E-3
6.715854292E0,7.436750457E-4,-4.507685080E-4,-5.661530886E-4,1.037677282E-3
6.725811292E0,9.945447091E-4,-4.963083193E-4,-9.869325440E-4,1.486430951E-3
6.735768292E0,-1.066197176E-3,-7.130168378E-4,-4.151213914E-3,4.344852862E-3
6.745725292E0,-1.337306807E-3,-3.737304360E-5,-5.021503894E-4,1.428965099E-3
6.755682292E0,2.303014509E-3,-2.309232950E-3,1.123593072E-3,3.449477358E-3
6.765639292E0,5.557283293E-5,7.781693712E-4,1.981397159E-3,2.129453125E-3
6.775595292E0,7.182126865E-5,5.193790421E-4,1.250918838E-3,1.356359401E-3
6.785552292E0,-4.026517272E-3,-9.581167251E-5,-2.170710592E-3,4.575369459E-3
6.795509292E0,2.327000955E-3,-8.247327060E-5,-1.513958210E-3,2.777373714E-3
6.805466292E0,-6.722509861E-4,-4.774192348E-4,4.376063007E-4,9.334611875E-4
6.815423292E0,-1.336478977E-3,-1.222090796E-3,4.076090991E-4,1.856293928E-3
6.825380292E0,-6.592372665E-4,2.089283429E-3,1.501902007E-3,2.656201923E-3
6.835337292E0,1.896087197E-3,-2.000440843E-3,-5.351223517E-4,2.807715469E-3
6.845294292E0,7.136436179E-4,-9.418344125E-4,-3.356515663E-4,1.228414119E-3
6.855251292E0,-6.330448668E-4,-2.490245737E-3,-1.646244898E-3,3.051588423E-3
6.865207292E0,3.235626500E-4,1.116739586E-3,-4.579424858E-4,1.249604502E-3
6.875164292E0,-1.220311038E-3,6.297938526E-4,-1.411292935E-3,1.969148820E-3
6.885121292E0,1.644184929E-3,1.700650901E-3,3.780850093E-4,2.395517865E-3
6.895078292E0,-3.129693214E-4,1.350010745E-3,-1.014183275E-3,1.717278814E-3
6.905035292E0,-1.166942529E-4,-9.168721735E-4,-2.125717001E-4,9.483980488E-4
6.914992292E0,1.166459406E-4,1.454308629E-3,1.924097072E-3,2.414698616E-3
6.924949292E0,-2.940134145E-4,2.239407972E-3,-3.976466833E-4,2.293363215E-3
6.934906292E0,1.005207188E-3,1.719241962E-3,-2.249581739E-4,2.004205727E-3
6.944863292E0,1.562606776E-3,-2.559126355E-3,-1.631906256E-3,3.413793442E-3
6.954819292E0,3.798948601E-4,-8.792635053E-4,-1.691761892E-3,1.944089174E-3
6.964776292E0,3.554811701E-5,1.804936677E-3,1.835328643E-3,2.574391444E-3
6.974733292E0,-6.967086811E-4,-8.393954486E-4,2.055190969E-3,2.326756890E-3
6.984690292E0,2.666331129E-3,7.238807157E-4,-9.930634405E-5,2.764631391E-3
6.994647292E0,1.514293486E-3,6.069792435E-4,-1.014130656E-3,1.920929346E-3
7.004604292E0,1.995526720E-3,1.724974252E-3,-3.339593532E-4,2.658795199E-3
7.014561292E0,2.353102900E-4,-4.351697862E-4,3.982937196E-4,6.351232656E-4
7.024518292E0,2.571952064E-5,1.031166874E-3,1.656370936E-3,1.951289649E-3
7.034474292E0,-3.556179348E-3,-1.362515613E-4,3.207474947E-6,3.558790010E-3
7.044431292E0,1.557888812E-3,3.013052046E-4,5.044144345E-4,1.665003393E-3
7.054388292E0,-3.313652705E-4,1.524949446E-3,2.443422098E-3,2.899238746E-3
7.064345292E0,-2.216431312E-4,3.683390096E-4,-1.122284215E-3,1.201799136E-3
7.074302292E0,-1.800110098E-3,2.329858020E-3,-1.603598939E-4,2.948618330E-3
7.084259292E0,-3.486874048E-4,-1.764427871E-4,2.207384096E-4,4.488211323E-4
7.094216292E0,9.908778593E-4,-2.415832132E-4,-1.218222547E-3,1.588794372E-3
7.104173292E0,1.975182211E-3,8.031744510E-4,-4.781301832E-4,2.185187049E-3
7.114130292E0,-1.704874914E-3,1.964326948E-4,-1.145804068E-3,2.063504601E-3
7.124086292E0,1.251233858E-3,2.222647890E-4,-3.659561742E-3,3.873935976E-3
7.134043292E0,-1.506252447E-3,-7.752869278E-4,1.469551702E-3,2.242643186E-3
7.144000292E0,-4.337797873E-5,2.845562994E-5,3.405137220E-3,3.405532390E-3
7.153957292E0,-1.653297804E-4,-2.017693594E-3,1.420776010E-3,2.473262187E-3
7.163914292E0,-5.096765235E-4,-9.678760543E-4,1.712392084E-3,2.031954937E-3
7.173871292E0,-2.387752756E-4,-1.389465295E-3,-3.001403529E-4,1.441426956E-3
7.183828292E0,1.042399090E-4,-1.733545214E-3,-4.282897804E-3,4.621607790E-3
7.193785292E0,-4.559389781E-4,-1.176936552E-3,-3.583621234E-3,3.799394839E-3
7.203742292E0,9.233122109E-4,1.071570441E-3,8.233775734E-4,1.636679345E-3
7.213698292E0,-3.812778741E-4,1.053426415E-3,3.443004098E-3,3.620684638E-3
7.223655292E0,-1.477187034E-4,-6.699059159E-4,2.702378901E-3,2.788090112E-3
7.233612292E0,1.011537621E-3,5.917465314E-4,3.494785633E-4,1.222909474E-3
7.243569292E0,-1.748562441E-3,-1.819012687E-4,-8.896903601E-4,1.970306478E-3
7.253526292E0,-1.177068101E-3,-1.087877899E-5,-1.766668167E-3,2.122904632E-3
7.263483292E0,5.064916331E-5,-2.211715095E-3,-2.900908468E-3,3.648221339E-3
7.273440292E0,1.031200634E-3,-8.910568431E-4,-9.995668661E-4,1.690115666E-3
7.283397292E0,-8.958627004E-4,-1.814374700E-3,2.061470412E-3,2.888630435E-3
7.293354292E0,-6.620860659E-4,-1.058947295E-3,9.685178520E-4,1.580428474E-3
7.303309792E0,7.568462752E-4,-6.954260170E-4,1.109132776E-3,1.512153810E-3
7.313266792E0,-1.206377754E-3,3.560138866E-4,6.285437848E-6,1.257828557E-3
7.323223792E0,-1.532615162E-3,6.130086258E-4,-1.669375459E-3,2.347659097E-3
7.333180792E0,3.209424904E-4,2.486547455E-4,-4.849864636E-4,6.324912129E-4
7.343137792E0,8.538409602E-4,9.804908186E-4,-1.136928331E-3,1.727140023E-3
7.353094792E0,5.906764418E-4,-1.034597866E-3,7.752415841E-4,1.421369381E-3
7.363051792E0,2.315605991E-3,1.772107556E-3,2.123333747E-3,3.607068407E-3
7.373008792E0,-2.891266020E-3,-4.774164408E-4,-6.093467819E-4,2.993100258E-3
7.382965792E0,-2.003634581E-3,-6.009824574E-5,-1.071138773E-3,2.272773989E-3
7.392921792E0,-7.153921761E-4,2.373674884E-3,-1.953806030E-3,3.156497493E-3
7.402878792E0,2.149103908E-3,-1.101484522E-3,-1.673375256E-3,2.938043653E-3
7.412835792E0,1.054442488E-3,-7.849074900E-4,1.699220622E-3,2.148320146E-3
7.422792792E0,-6.153594004E-4,1.154673286E-3,8.699123282E-4,1.571204967E-3
7.432749792E0,1.092762919E-3,-1.423387788E-3,3.183351946E-4,1.822498529E-3
7.442706792E0,7.452203427E-4,6.496170536E-4,-5.498552928E-4,1.131236721E-3
7.452663792E0,1.410058467E-3,-4.009098746E-3,-4.260671791E-3,6.017845274E-3
7.462620792E0,-1.191850053E-3,5.494346842E-4,-2.028676681E-3,2.416177580E-3
7.472577792E0,-9.696623310E-4,2.388220280E-3,1.310987631E-3,2.891803886E-3
7.482533792E0,1.216260251E-3,3.570271656E-4,4.233560758E-4,1.336408531E-3
7.492490792E0,1.806323417E-5,-1.345233060E-3,2.411487047E-3,2.761385168E-3
7.502447792E0,9.728065343E-4,8.409554139E-4,2.039177343E-3,2.410768093E-3
7.512404792E0,7.981962990E-4,3.338064998E-4,-1.991147641E-3,2.170993560E-3
7.522361792E0,-7.168760058E-4,-1.569820568E-3,-4.704005551E-5,1.726401051E-3
7.532318792E0,1.276992261E-4,1.242973842E-3,1.239364268E-3,1.759918990E-3
7.542275792E0,-7.732482627E-4,1.416078769E-3,1.091187005E-4,1.617126725E-3
7.552232792E0,6.791815395E-4,-3.769155592E-5,-2.279353095E-3,2.378688452E-3
7.562188792E0,2.145518083E-3,-2.699187025E-4,-1.720888074E-3,2.763613525E-3
7.572145792E0,2.559572225E-3,-2.438846976E-3,-3.591465764E-3,5.039643924E-3
7.582102792E0,1.128922100E-3,-3.623804078E-4,-2.099562902E-3,2.411213190E-3
7.592059792E0,-2.541245893E-3,-1.392008737E-3,-5.442858674E-4,2.948197096E-3
7.602016792E0,2.012775512E-4,9.329309687E-4,3.382278839E-3,3.514353851E-3
7.611973792E0,-1.067837584E-3,-9.455569088E-4,2.662076149E-3,3.020100064E-3
7.621930792E0,8.957109530E-4,2.848648466E-3,1.796548720E-3,3.484922309E-3
7.631887792E0,-6.295964122E-4,2.507333644E-3,1.043824013E-4,2.587278363E-3
7.641844792E0,4.439237528E-4,-3.883214667E-4,-4.223908763E-4,7.254487661E-4
7.651800792E0,1.161687309E-3,5.484120920E-4,-3.942821641E-3,4.146819952E-3
7.661757792E0,-3.579123877E-4,-8.276430890E-4,-5.142682930E-4,1.038058879E-3
7.671714792E0,2.535196254E-4,-3.575719893E-5,1.561960205E-3,1.582804619E-3
7.681671792E0,-1.127329306E-3,-3.129923716E-4,3.338288749E-3,3.537372946E-3
7.691628792E0,3.845818574E-4,2.381345257E-4,2.105430700E-3,2.153473865E-3
7.701585792E0,1.208830159E-3,2.157641575E-4,9.738534573E-4,1.567231662E-3
7.711542792E0,-6.510295207E-4,6.351098418E-4,-9.730739985E-4,1.331944802E-3
7.721499792E0,4.890696146E-4,5.901018158E-4,-1.673485385E-3,1.840641892E-3
7.731456792E0,2.599644940E-4,2.494081855E-5,-1.153923571E-3,1.183107430E-3
7.741412792E0,1.004584366E-3,7.895343006E-4,1.018416951E-3,1.633930001E-3
7.751369792E0,-4.116701894E-4,-7.774252445E-4,2.076983219E-4,9.038810477E-4
7.761326792E0,8.538638940E-4,3.057718277E-5,1.544072526E-3,1.764703510E-3
7.771283792E0,-1.368548954E-3,-2.589105628E-3,7.109933067E-4,3.013620029E-3
7.781240792E0,-1.192514086E-3,2.027484588E-3,-1.542573562E-3,2.812884071E-3
7.791197792E0,-1.941176830E-3,-2.113962546E-3,-3.149753902E-3,4.261215176E-3
7.801154792E0,-3.542269114E-3,2.004615963E-3,1.199987251E-3,4.243362469E-3
7.811111792E0,-2.540802117E-3,8.101165295E-4,1.476082369E-3,3.048078633E-3
7.821068792E0,-9.503623005E-4,-2.319630235E-3,-1.148729119E-3,2.757435679E-3
7.831024792E0,-1.472350443E-3,-1.161435619E-3,3.338564420E-3,3.829198468E-3
7.840981792E0,5.849415902E-4,-3.401171416E-4,-1.226626337E-3,1.400874193E-3
7.850938792E0,-2.254678402E-4,5.167536438E-5,-1.577825751E-3,1.594691253E-3
7.860895792E0,1.927663106E-5,1.511620358E-3,-2.108060988E-3,2.594087281E-3
7.870852792E0,1.022783108E-4,9.519327432E-4,-1.483599190E-3,1.765701944E-3
7.880809792E0,5.102745490E-4,1.724259928E-4,6.887412164E-4,8.743427827E-4
7.890766792E0,2.154081361E-3,-1.253662631E-3,2.236400614E-4,2.502349172E-3
7.900723792E0,5.841479870E-4,-1.210197806E-4,5.757099716E-4,8.290456136E-4
7.910680792E0,-7.976713823E-4,-3.444990143E-4,-4.792636028E-4,9.922967328E-4
7.920636792E0,-5.167078925E-4,1.787628047E-3,-1.389532117E-3,2.322369606E-3
7.930593792E0,-2.308565658E-3,1.004091464E-3,-8.039919194E-4,2.642740636E-3
7.940550792E0,-1.482719206E-3,-2.495385706E-5,-2.997371368E-3,3.344146238E-3
7.950507792E0,3.543427447E-4,3.629290499E-3,-1.464269590E-3,3.929553885E-3
7.960464792E0,-2.912075724E-4,-1.161787659E-4,-2.722387435E-4,4.152267927E-4
7.970421792E0,1.367748249E-3,1.126130112E-3,-1.322007971E-3,2.210567659E-3
7.980378792E0,7.024905644E-4,3.508841619E-4,4.942678497E-4,9.278541887E-4
7.990335792E0,3.983720671E-4,-5.371151492E-4,5.017273943E-4,8.360163668E-4
8.000292792E0,-9.180285269E-4,1.098066568E-3,7.786961505E-4,1.629384626E-3
8.010248792E0,-2.500263974E-3,1.337714493E-4,-4.153689370E-4,2.538059514E-3
8.020205792E0,-1.375876949E-3,1.110618934E-3,-1.376237487E-3,2.240656470E-3
8.030162792E0,2.188876970E-4,-1.510139555E-3,-1.193196513E-3,1.937047035E-3
8.040119792E0,-1.909244340E-3,-1.302146353E-3,-8.238159353E-4,2.453461181E-3
8.050076792E0,-5.474025384E-4,-1.898368821E-3,5.706816446E-4,2.056485171E-3
8.060033792E0,-2.760755597E-3,1.184437424E-4,8.836031193E-4,2.901129928E-3
8.069990792E0,-1.010063104E-3,-9.714905173E-5,1.488033449E-3,1.801085495E-3
8.079947792E0,-2.313547302E-4,-2.310501412E-3,-4.621993285E-4,2.367608499E-3
8.089904792E0,2.444769489E-4,-5.084564909E-4,-1.011444721E-3,1.158152583E-3
8.099860792E0,-6.356977392E-4,8.670659736E-4,-2.468193648E-3,2.692191469E-3
8.109817792E0,1.127483672E-3,-1.567650586E-3,-1.249328023E-3,2.299906151E-3
8.119774792E0,1.361841802E-3,8.084215224E-4,1.532077324E-3,2.203501617E-3
8.129731792E0,9.867700282E-5,2.307890914E-3,2.793331631E-3,3.624748160E-3
8.139688792E0,-1.969001256E-3,-2.127913758E-4,3.239943646E-3,3.797299164E-3
8.149645792E0,-7.480056956E-5,-1.630274579E-3,-8.790356806E-4,1.853670428E-3
8.159602792E0,-2.015670761E-4,-8.286628872E-4,-1.662804047E-3,1.868750589E-3
8.169559792E0,2.325157635E-3,1.357587986E-3,-3.105682321E-3,4.110312135E-3
8.179515792E0,-2.383311279E-3,1.751735806E-3,-1.294998918E-3,3.228896590E-3
8.189472792E0,-1.270669629E-3,6.178207695E-4,1.686254982E-3,2.199945380E-3
8.199429792E0,-6.067437353E-4,8.303411305E-4,-3.278937656E-4,1.079406631E-3
8.209386792E0,4.651362542E-4,-1.132851467E-3,6.976331351E-4,1.409395676E-3
8.219343792E0,2.217229921E-3,1.488497481E-3,-4.856092855E-4,2.714323056E-3
8.229300792E0,-4.797549918E-4,2.208333462E-3,-3.320396412E-3,4.016457876E-3
8.239257792E0,-6.925414782E-4,6.996532902E-4,-1.485716784E-4,9.955912661E-4
8.249214792E0,2.145303646E-3,8.366080001E-4,1.817725832E-3,2.933661173E-3
8.259171792E0,1.819599187E-3,-1.039322466E-3,7.295582909E-4,2.218870814E-3
8.269128792E0,1.270128065E-3,-3.691744059E-4,3.378670895E-3,3.628351149E-3
8.279084792E0,-3.559980541E-4,-4.685111344E-4,5.203000619E-4,7.854612989E-4
8.289041792E0,-1.486716093E-3,-1.059749164E-3,-6.449363427E-4,1.936320200E-3
8.298998792E0,-3.529340029E-5,1.087558456E-3,2.887679730E-4,1.125795701E-3
8.308956083E0,-3.975279396E-4,-4.198271781E-4,-6.024399772E-5,5.813025559E-4
8.318913083E0,2.110104542E-3,-1.248070039E-3,-2.190772910E-3,3.287811726E-3
8.328870083E0,-1.875505317E-3,-3.318080679E-3,3.295532428E-3,5.038622189E-3
8.338827083E0,1.302977558E-3,-8.392110467E-4,-4.376868019E-4,1.610464354E-3
8.348784083E0,2.984973835E-4,-1.314273104E-4,2.887773793E-3,2.906133394E-3
8.358741083E0,8.748054388E-4,7.415562868E-4,1.114108367E-3,1.598883278E-3
8.368697083E0,-3.079725895E-3,2.156672999E-4,1.114947954E-4,3.089280671E-3
8.378654083E0,2.985357074E-3,-6.450666115E-4,-4.039840773E-3,5.064462584E-3
8.388611083E0,1.650440739E-3,-1.330197789E-3,-6.719983649E-4,2.223727185E-3
8.398568083E0,-9.751697071E-4,1.763064414E-3,-3.809148911E-4,2.050475126E-3
8.408525083E0,-4.156751093E-4,-1.530967653E-3,8.266572841E-4,1.788857181E-3
8.418482083E0,-2.742612269E-4,5.953004584E-4,7.563498802E-4,1.000833152E-3
8.428439083E0,3.169458359E-3,3.871619701E-4,-3.828548361E-4,3.215888448E-3
8.438396083E0,-1.392003847E-3,1.174924895E-3,1.351395622E-3,2.268125514E-3
8.448352083E0,-2.361143706E-4,3.616856411E-4,6.022000453E-4,7.410879796E-4
8.458309083E0,8.027846925E-4,-1.451130956E-4,1.846695319E-3,2.018862223E-3
8.468266083E0,-6.485295016E-4,5.191173404E-4,1.814177609E-3,1.995322963E-3
8.478223083E0,-3.830124624E-4,-1.190099865E-3,-2.113718539E-3,2.455777331E-3
8.488180083E0,-4.860307090E-4,-5.517480895E-4,-1.604357269E-3,1.764826918E-3
8.498137083E0,-6.570057012E-4,4.535950720E-4,2.449416788E-4,8.351056261E-4
8.508094083E0,1.367583522E-3,6.202636287E-4,1.915363828E-3,2.433850910E-3
8.518051083E0,2.040297957E-3,-8.753677830E-4,1.077799592E-3,2.467941748E-3
8.528008083E0,-1.130370423E-3,-7.137255743E-4,2.683873521E-3,2.998385994E-3
8.537964083E0,2.632409800E-3,-8.327681571E-4,-2.160150092E-3,3.505614437E-3
8.547921083E0,2.006056253E-3,-9.390367195E-4,-5.756543251E-4,2.288543107E-3
8.557878083E0,6.435831310E-4,-2.583330497E-4,-3.178095445E-3,3.252879627E-3
8.567835083E0,-1.714358805E-3,-6.271339953E-4,-2.244468546E-3,2.893088697E-3
8.577792083E0,-6.877102423E-4,1.365709119E-3,3.275199095E-3,3.614558878E-3
8.587749083E0,-7.404054049E-4,-1.103873365E-3,8.755640592E-4,1.591649770E-3
8.597706083E0,3.132096957E-3,1.957491040E-4,-2.815794433E-4,3.150815140E-3
8.607663083E0,-7.572374307E-5,-1.510810107E-4,1.621787436E-3,1.630568626E-3
8.617620083E0,9.788880125E-4,-4.107393324E-4,8.683791966E-4,1.371499533E-3
8.627576083E0,-3.423090093E-4,2.036988735E-4,-2.051066374E-3,2.089387939E-3
8.637533083E0,5.253487034E-4,-1.087401062E-3,1.822604099E-4,1.221331727E-3
8.647490083E0,1.095406245E-3,-3.570234403E-4,6.216315669E-4,1.309124282E-3
8.657447083E0,3.835433163E-4,-1.337067224E-3,2.530851867E-3,2.887917140E-3
8.667404083E0,-5.675635766E-4,-6.066663191E-4,3.819884150E-4,9.143782507E-4
8.677361083E0,-9.526566137E-4,6.058700383E-4,-1.027356368E-3,1.526464619E-3
8.687318083E0,3.676256165E-4,-5.311556160E-4,-1.693582628E-3,1.812593998E-3
8.697275083E0,-3.959026653E-4,5.106730387E-4,-2.864840906E-3,2.936807670E-3
8.707232083E0,-2.153033856E-3,-1.051063649E-3,-1.727026887E-3,2.953457542E-3
8.717188083E0,1.844104612E-3,-1.586092636E-3,1.991544850E-3,3.143670237E-3
8.727145083E0,2.721790224E-7,4.006559029E-4,1.405807445E-3,1.461786509E-3
8.737102083E0,-7.534024771E-4,5.439342931E-4,7.384193595E-4,1.186904781E-3
8.747059083E0,-1.437205123E-3,3.466289490E-5,-1.192075666E-3,1.867566458E-3
8.757016083E0,-1.990343677E-3,-6.926460192E-4,-2.617399441E-3,3.360358060E-3
8.766973083E0,2.151985187E-3,-4.232656211E-4,8.071845514E-4,2.337036784E-3
8.776930083E0,-1.565787476E-3,-2.434218302E-3,-8.185161278E-7,2.894323726E-3
8.786887083E0,1.353265718E-3,-1.271449961E-3,2.004864626E-3,2.732653522E-3
8.796844083E0,-2.100098645E-4,-2.659755759E-3,-7.312670350E-4,2.766433863E-3
8.806800083E0,2.145130420E-3,-2.393934876E-3,1.558968099E-3,3.572518753E-3
8.816757083E0,5.823875545E-4,1.765480265E-4,8.460399113E-4,1.042174650E-3
8.826714083E0,2.645236673E-4,6.029382348E-4,1.038245275E-3,1.229414713E-3
8.836671083E0,1.344701857E-3,-1.005345024E-3,-1.513595693E-3,2.260511806E-3
8.846628083E0,7.390117971E-4,-1.748930663E-3,-1.966077834E-3,2.733195740E-3
8.856585083E0,1.586429658E-3,3.198124468E-4,2.798583824E-3,3.232817731E-3
8.866542083E0,1.070884522E-3,1.129485667E-3,1.153029967E-3,1.937010489E-3
8.876499083E0,5.750037963E-4,4.660924897E-4,1.340516494E-3,1.531292279E-3
8.886456083E0,1.138240914E-3,-1.057189889E-3,-1.106140669E-3,1.907036974E-3
8.896412083E0,-1.364864176E-3,1.533533446E-3,2.900851425E-3,3.553803320E-3
8.906369083E0,-5.789558636E-4,2.212673426E-3,-2.236262895E-3,3.198747461E-3
8.916326083E0,6.567509845E-4,5.021253601E-4,-6.359693361E-4,1.043028633E-3
8.926283083E0,-3.515984863E-4,-9.561534971E-4,-3.229239490E-3,3.386124435E-3
8.936240083E0,8.044798160E-4,-1.291445456E-3,-2.475032350E-3,2.905306227E-3
8.946197083E0,1.390576130E-3,1.788642257E-4,-2.618244383E-3,2.969999669E-3
8.956154083E0,-2.627142239E-4,-7.622968405E-4,-1.247266773E-4,8.158872352E-4
8.966111083E0,2.084440785E-3,6.903754547E-4,6.660875864E-3,7.013471247E-3
8.976068083E0,1.958206994E-3,7.391115651E-4,9.744943818E-4,2.308787526E-3
8.986024083E0,-1.079850830E-3,3.868499771E-4,-1.314991852E-3,1.744974009E-3
8.995981083E0,-2.196514048E-3,5.327910185E-4,-1.719526015E-3,2.839948934E-3
9.005938083E0,2.100468613E-3,9.685782716E-4,-2.839614172E-3,3.662447393E-3
9.015895083E0,7.206847658E-4,-1.009617932E-3,-7.860506885E-4,1.468533481E-3
9.025852083E0,-4.690225469E-4,5.014846101E-4,5.119922571E-3,5.165759973E-3
9.035809083E0,1.780283172E-3,-2.599135041E-4,3.551320871E-3,3.981060554E-3
9.045766083E0,-1.452921657E-3,1.015821472E-3,1.281595090E-3,2.187546703E-3
9.055723083E0,-8.619662840E-4,-1.276360825E-3,-3.807173111E-3,4.106902717E-3
9.065680083E0,1.524295658E-5,6.777187809E-4,-2.742793411E-3,2.825323130E-3
9.075636083E0,1.837644028E-3,5.693277344E-4,-5.360981449E-4,1.997115636E-3
9.085593083E0,1.762529137E-4,1.358976588E-4,2.734086593E-4,3.525415695E-4
9.095550083E0,-1.299404539E-3,-1.463330351E-3,1.060639042E-3,2.225925212E-3
9.105507083E0,5.032062763E-4,1.513737254E-3,2.548603807E-3,3.006659009E-3
9.115464083E0,8.137308760E-4,-1.360080205E-3,4.843875649E-4,1.657289177E-3
9.125421083E0,-1.646253513E-3,-1.078710891E-3,-2.854889259E-3,3.467587129E-3
9.135378083E0,-3.186678514E-4,1.020658761E-3,5.470326287E-4,1.201057119E-3
9.145335083E0,2.490949119E-3,-3.057873808E-3,-3.224147018E-3,5.094167619E-3
9.155292083E0,3.116843291E-4,2.215430140E-4,2.731746528E-3,2.758381323E-3
9.165248083E0,1.743629342E-3,-1.459632069E-3,-7.413446438E-4,2.391727606E-3
9.175205083E0,7.244375302E-4,-8.801277727E-4,-1.553608803E-3,1.926949648E-3
9.185162083E0,8.351973374E-4,-2.499804832E-3,-2.940918785E-5,2.635800389E-3
9.195119083E0,2.580366796E-3,-3.290623426E-4,-1.877642935E-3,3.208133074E-3
9.205076083E0,-1.999439672E-3,9.930822998E-4,-1.288727392E-3,2.577748968E-3
9.215033083E0,3.201735672E-4,4.095835611E-4,2.553148661E-3,2.605539846E-3
9.224990083E0,-1.302854391E-3,1.472558826E-3,-3.029160434E-4,1.989376081E-3
9.234947083E0,1.483877422E-3,-2.379170619E-3,1.057959278E-3,2.996935580E-3
9.244904083E0,3.957196604E-4,-9.262776002E-4,4.103137180E-4,1.087631183E-3
9.254860083E0,5.254155258E-4,-9.284084663E-4,1.250541070E-3,1.643732559E-3
9.264817083E0,-1.469161361E-4,-1.683943905E-3,-6.998470053E-5,1.691788782E-3
9.274774083E0,2.202524571E-3,3.690868616E-4,-7.339107106E-4,2.350737018E-3
9.284731083E0,5.997341359E-4,4.639998078E-4,-5.069439067E-4,9.121233359E-4
9.294688083E0,3.142433707E-4,-4.859492183E-4,5.391787272E-5,5.812079454E-4
9.304644708E0,-6.357026286E-4,-3.081811592E-4,1.905318000E-3,2.032075329E-3
9.314601708E0,8.807011764E-4,-3.396067768E-4,7.961114170E-4,1.234812015E-3
9.324558708E0,-3.107772209E-3,1.294286922E-3,4.034176469E-3,5.254332167E-3
9.334515708E0,4.113289760E-4,6.239693612E-4,-4.937301856E-4,8.957113298E-4
9.344471708E0,8.570516366E-4,1.505021006E-3,-1.037481939E-3,2.018909238E-3
9.354428708E0,-6.889132783E-4,-6.153881550E-4,-4.497223999E-4,1.027401734E-3
9.364385708E0,8.807322592E-4,-8.825743571E-4,1.903071883E-3,2.275150413E-3
9.374342708E0,-9.584892541E-5,-6.498396397E-5,1.230357448E-3,1.235795040E-3
9.384299708E0,-1.411657548E-3,4.449933767E-4,1.339946873E-3,1.996560483E-3
9.394256708E0,1.816892647E-3,-1.426409930E-3,-1.198844519E-3,2.602493489E-3
9.404213708E0,1.548039378E-3,-2.479358576E-3,-3.873395734E-3,4.852508565E-3
9.414170708E0,1.440713997E-3,-2.196797170E-3,-1.368426485E-3,2.962121819E-3
9.424127708E0,1.024083933E-3,-4.129204899E-5,1.284262980E-3,1.643102047E-3
9.434083708E0,9.399280534E-4,5.970681086E-4,3.350076964E-3,3.530293293E-3
9.444040708E0,-2.944265027E-3,-3.848504275E-4,4.792213440E-3,5.637562953E-3
9.453997708E0,-1.229188987E-3,-2.247942612E-4,-4.627363523E-4,1.332502517E-3
9.463954708E0,-4.732401576E-4,-2.016221173E-3,-1.995224738E-4,2.080604067E-3
9.473911708E0,8.253172273E-4,2.527926117E-4,-1.481234794E-4,8.757814769E-4
9.483868708E0,-5.339181516E-4,-1.204566099E-3,-5.612133536E-4,1.432134249E-3
9.493825708E0,9.244287503E-4,8.170390502E-4,2.088898327E-3,2.426029172E-3
9.503782708E0,-5.761529319E-4,1.188964583E-3,1.034931163E-3,1.678294221E-3
9.513739708E0,7.016317686E-4,1.455014572E-3,8.804678218E-4,1.839722296E-3
9.523695708E0,-3.637028858E-4,-1.177472062E-3,8.274695138E-4,1.484394167E-3
9.533652708E0,1.948986202E-3,3.186985850E-5,-2.878319006E-3,3.476245562E-3
9.543609708E0,1.355947927E-3,-6.554378197E-4,-2.957549412E-3,3.318929351E-3
9.553566708E0,2.480600728E-3,-4.317704588E-5,-5.322084762E-4,2.537417997E-3
9.563523708E0,-2.419506200E-3,-3.336802125E-3,1.261406695E-3,4.310383454E-3
9.573480708E0,1.943017705E-3,5.202544853E-4,1.862215810E-3,2.741136672E-3
9.583437708E0,3.290936584E-4,-5.219122395E-4,1.314978348E-3,1.452536773E-3
9.593394708E0,2.590526128E-4,-6.446847692E-4,8.443978149E-4,1.093496400E-3
9.603351708E0,-1.170398435E-3,3.220774233E-4,-1.455684891E-3,1.895411529E-3
9.613307708E0,1.815804164E-3,9.308764711E-4,-2.850115765E-3,3.505258284E-3
9.623264708E0,-1.610175241E-3,-7.562888786E-4,1.478973310E-3,2.313438831E-3
9.633221708E0,8.511182969E-4,2.488240600E-3,7.367502549E-4,2.731033609E-3
9.643178708E0,-1.017945819E-3,7.842238992E-4,7.698836271E-4,1.497979176E-3
9.653135708E0,6.747595035E-4,1.415925100E-3,2.141145291E-3,2.654175472E-3
9.663092708E0,-1.650808612E-3,5.952809006E-4,6.424488383E-4,1.868761337E-3
9.673049708E0,1.345247612E-3,-1.010338776E-3,-2.550364006E-4,1.701622504E-3
9.683006708E0,-1.231677015E-3,4.301378503E-4,7.667200407E-4,1.513243689E-3
9.692963708E0,-2.284642542E-4,-6.939824671E-4,9.912245441E-4,1.231395013E-3
9.702919708E0,-1.364165451E-3,-5.412595347E-4,7.655568188E-4,1.655290460E-3
9.712876708E0,-3.311252221E-4,1.271287911E-3,1.720851287E-5,1.313816196E-3
9.722833708E0,-1.103015617E-3,-3.687925637E-4,-4.358553560E-4,1.242023066E-3
9.732790708E0,-2.602375578E-3,-1.113023609E-5,-1.357575413E-3,2.935216097E-3
9.742747708E0,5.990681238E-4,-1.444187947E-3,-2.536136890E-4,1.583944868E-3
9.752704708E0,3.511278192E-4,-4.164744169E-4,-1.147636911E-3,1.270359069E-3
9.762661708E0,5.982333096E-4,-8.741561323E-4,-3.853783710E-4,1.127186109E-3
9.772618708E0,-2.027110895E-3,-1.188675873E-3,4.969268921E-4,2.401887851E-3
9.782575708E0,1.192227704E-3,4.132371396E-4,-3.413641825E-4,1.307173033E-3
9.792531708E0,2.027128590E-3,1.294477843E-3,-1.838326920E-3,3.027270895E-3
9.802488708E0,-3.644553944E-4,-1.622203737E-3,-5.113098305E-4,1.739485684E-3
9.812445708E0,-1.222792314E-3,-6.878189743E-5,-3.198971972E-3,3.425401242E-3
9.822402708E0,1.451545628E-3,2.258483320E-3,-2.221683739E-3,3.484768321E-3
9.832359708E0,-2.842268907E-3,3.039892763E-4,-6.998889148E-6,2.858487537E-3
9.842316708E0,-1.921851188E-3,-1.479077153E-3,2.332312521E-3,3.364649002E-3
9.852273708E0,9.626186220E-4,-1.437682658E-4,4.006109200E-3,4.122646583E-3
9.862230708E0,-1.509474823E-4,-1.069630496E-3,1.528413501E-3,1.871614910E-3
9.872187708E0,2.188639482E-3,4.036305472E-4,-1.208250877E-3,2.532376470E-3
9.882143708E0,-8.231679676E-4,-7.302034646E-4,-2.678370336E-3,2.895594975E-3
9.892100708E0,-1.652476494E-3,2.879230306E-4,-1.468496164E-3,2.229362963E-3
9.902057708E0,2.230760641E-3,-1.894480549E-3,-2.543834271E-4,2.937696464E-3
9.912014708E0,1.533278846E-3,2.547139302E-3,2.736346330E-3,4.040600684E-3
9.921971708E0,2.856448758E-3,1.478703693E-3,2.831704449E-3,4.285372120E-3
9.931928708E0,2.963521983E-4,1.580435783E-3,2.410392277E-3,2.897514938E-3
9.941885708E0,-2.086454770E-4,1.931404695E-4,1.274164300E-3,1.305500226E-3
9.951842708E0,-1.444633817E-4,-4.364307970E-4,-2.811216982E-4,5.388607598E-4
9.961799708E0,-2.856667619E-3,-1.045159064E-3,-4.214876797E-3,5.197893205E-3
9.971755708E0,7.780144224E-4,-1.415871084E-3,-9.445152245E-4,1.871391562E-3
9.981712708E0,9.546987130E-4,-2.892520279E-4,-1.183045330E-3,1.547485903E-3
9.991669708E0,8.817281341E-4,8.404608816E-4,3.288668348E-3,3.507015611E-3
1.000162671E1,1.114403247E-3,-7.661161944E-4,1.929673948E-3,2.356368003E-3
1.001158371E1,1.931194682E-3,-2.454826608E-3,-3.871489782E-3,4.974346159E-3
1.002154071E1,-1.490806579E-3,6.603561342E-4,-2.980147488E-3,3.397035992E-3
1.003149771E1,-1.760584651E-3,-1.803333871E-3,-1.963352552E-3,3.194749538E-3
1.004145471E1,2.115934622E-4,-6.392812356E-4,-3.257631324E-3,3.326501787E-3
1.005141171E1,5.293085705E-4,2.030803822E-3,2.370959613E-3,3.166351404E-3
1.006136771E1,4.815263674E-5,8.427547291E-4,3.368189326E-3,3.472355619E-3
1.007132471E1,2.034071833E-3,-7.327711210E-4,3.569530672E-4,2.191304915E-3
1.008128171E1,-1.519011799E-3,-1.537987962E-3,2.102140803E-3,3.015261145E-3
1.009123871E1,-8.971635252E-4,1.859406009E-3,-1.709908014E-3,2.680686202E-3
1.010119571E1,-2.983822254E-3,-2.905933186E-3,-1.383688999E-3,4.388876642E-3
1.011115271E1,-2.162769670E-3,1.027022488E-3,-3.220204730E-3,4.012738010E-3
1.012110971E1,3.509672824E-4,-5.343621597E-4,-1.361140981E-3,1.503803751E-3
1.013106671E1,-2.861870453E-3,1.015863381E-3,2.633600496E-3,4.019717959E-3
1.014102371E1,7.745337207E-4,-1.189439557E-3,2.475107089E-3,2.853212934E-3
1.015097971E1,-1.142143272E-3,1.744831912E-3,1.757651451E-3,2.727318881E-3
1.016093671E1,-1.408625627E-3,1.051884145E-3,-3.298253287E-3,3.737534101E-3
1.017089371E1,3.616493195E-3,-2.548975870E-3,-1.282240264E-3,4.606565001E-3
1.018085071E1,-1.006347593E-3,-1.210968941E-3,-1.908410341E-4,1.586064802E-3
1.019080771E1,-1.988771837E-4,5.078352988E-4,-2.917748643E-4,6.185316454E-4
1.020076471E1,1.795416698E-3,-1.054216176E-3,2.539999783E-3,3.284279489E-3
1.021072171E1,1.430030912E-3,3.082565963E-4,3.792484291E-3,4.064842880E-3
1.022067871E1,-2.070367336E-4,2.445971593E-3,2.238200977E-6,2.454719180E-3
1.023063571E1,-1.140474807E-3,3.141108900E-4,-3.284102771E-3,3.490656020E-3
1.024059271E1,1.021187170E-3,5.060760304E-4,-2.550579607E-3,2.793634285E-3
1.025054871E1,-3.101269249E-4,-1.158932224E-3,2.763658995E-4,1.231129855E-3
1.026050571E1,-1.088272547E-4,9.842384607E-4,-1.018232200E-3,1.420339936E-3
1.027046271E1,8.802707889E-4,4.369588569E-4,1.226280001E-3,1.571487304E-3
1.028041971E1,1.768359100E-3,2.248093486E-3,-7.754960097E-5,2.861299035E-3
1.029037671E1,-2.738774754E-3,-1.084852032E-3,1.843654783E-3,3.475176837E-3
1.030033371E1,-1.679025707E-3,1.101378351E-3,-2.473702654E-3,3.186120905E-3
1.031029167E1,-2.106729429E-3,2.749990672E-4,-5.080937408E-3,5.507255062E-3
1.032024867E1,5.296975141E-4,-1.071365550E-4,-3.057148308E-3,3.104547225E-3
1.033020567E1,1.751023228E-3,6.779637188E-4,-1.784689957E-3,2.590528014E-3
1.034016167E1,2.452523913E-4,-2.578143030E-4,9.338472737E-4,9.993436250E-4
1.035011867E1,-1.217355719E-3,-6.445050240E-4,5.435122177E-3,5.606950575E-3