"Time (s)","Gyroscope x (rad/s)","Gyroscope y (rad/s)","Gyroscope z (rad/s)","Absolute (rad/s)"
8.188333341E-4,4.558777437E-5,-4.122406244E-4,-3.325121105E-2,3.325379763E-2
1.077583334E-2,-1.257208642E-3,8.899336681E-4,-3.277398273E-2,3.281015848E-2
2.073283333E-2,7.047421532E-4,-1.690136269E-3,-3.157715872E-2,3.163020985E-2
3.068983334E-2,-1.684828196E-3,-1.791493036E-3,-3.187855706E-2,3.197327780E-2
4.064683333E-2,1.835338073E-3,-1.503605396E-3,-3.185352311E-2,3.194176309E-2
5.060383334E-2,4.141291138E-4,-7.525626570E-4,-2.797751129E-2,2.799069473E-2
6.055983333E-2,1.233118819E-4,1.144673675E-3,-2.894131094E-2,2.896420140E-2
7.051683333E-2,2.545398194E-3,-5.433689803E-4,-3.286624700E-2,3.296914457E-2
8.047383334E-2,-4.413370043E-4,-4.029832780E-5,-3.002705239E-2,3.003032263E-2
9.042995833E-2,6.069297669E-4,1.034271903E-3,-3.127840534E-2,3.130138531E-2
1.003869583E-1,-1.357151428E-3,-9.769471362E-4,-3.268109262E-2,3.272384605E-2
1.103439583E-1,-8.071084740E-4,-1.348387450E-4,-2.892480604E-2,2.893637866E-2
1.203009583E-1,-1.123492024E-3,6.803553551E-4,-2.691225521E-2,2.694428693E-2
1.302579583E-1,-8.111709030E-4,1.074681990E-3,-2.622006647E-2,2.625461532E-2
1.402149583E-1,-4.628292518E-4,-4.393253475E-4,-3.005262092E-2,3.005939523E-2
1.501719583E-1,1.084395917E-3,1.608311199E-3,-3.242273256E-2,3.248070452E-2
1.601289583E-1,-1.448003808E-3,-9.816130623E-4,-3.082803264E-2,3.087762743E-2
1.700859583E-1,9.382452117E-4,1.182385720E-3,-3.201337904E-2,3.204894347E-2
1.800429583E-1,1.544646919E-3,1.869214699E-3,-2.962665446E-2,2.972572206E-2
1.899999583E-1,3.257803153E-3,-2.717291936E-4,-2.816438302E-2,2.835347579E-2
1.999569583E-1,2.480692696E-3,-8.778646588E-4,-2.851485647E-2,2.863601792E-2
2.099139583E-1,3.484125249E-3,-4.555787891E-4,-2.895307913E-2,2.916551855E-2
2.198699583E-1,2.598362043E-4,-7.991259918E-4,-2.886226401E-2,2.887449395E-2
2.298269583E-1,7.298926357E-4,1.219202764E-3,-3.238961846E-2,3.242077393E-2
2.397839583E-1,1.310195425E-3,-3.350181505E-4,-3.255153820E-2,3.257961768E-2
2.497409583E-1,3.188299946E-3,2.218615264E-3,-2.894356847E-2,2.920304207E-2
2.596979583E-1,2.439685166E-3,-1.001146622E-3,-2.902000211E-2,2.913957585E-2
2.696549583E-1,7.415693253E-4,3.348998725E-4,-2.725338005E-2,2.726552414E-2
2.796119583E-1,-4.983985564E-4,-1.862474717E-3,-2.902784385E-2,2.909180179E-2
2.895689583E-1,-8.941247361E-4,-9.507481009E-4,-2.986976504E-2,2.989826491E-2
2.995259583E-1,-1.587878098E-3,-1.162203960E-3,-3.201387450E-2,3.207429244E-2
3.094829583E-1,1.872551395E-3,-1.026155427E-3,-3.134718537E-2,3.141982614E-2
3.194399583E-1,-2.892110264E-3,-8.767517284E-4,-2.930800244E-2,2.946340107E-2
3.293969583E-1,1.815531868E-3,-9.949803352E-4,-2.843896486E-2,2.851422214E-2
3.393539583E-1,-9.597482858E-4,8.077127859E-4,-2.999744751E-2,3.002366356E-2
3.493109583E-1,3.026007675E-3,-5.667600781E-4,-2.765848301E-2,2.782929431E-2
3.592679583E-1,3.679065267E-4,3.405790776E-4,-2.648109943E-2,2.648584483E-2
3.692249583E-1,-8.364015957E-4,2.728020772E-4,-2.845786884E-2,2.847146445E-2
3.791809583E-1,-2.502397401E-4,1.459507272E-3,-2.964084409E-2,2.967781023E-2
3.891379583E-1,4.145412240E-4,-1.040019095E-3,-3.164869547E-2,3.166849237E-2
3.990949583E-1,2.480936237E-4,-1.257865690E-3,-2.598628029E-2,2.601788885E-2
4.090519583E-1,-6.608824478E-4,1.806416549E-3,-2.913000807E-2,2.919344578E-2
4.190089583E-1,-1.263859449E-4,3.944085911E-4,-2.669135109E-2,2.669456413E-2
4.289659583E-1,5.117198452E-4,7.053017616E-4,-2.549791895E-2,2.551280421E-2
4.389229583E-1,7.801664760E-4,-1.317299902E-4,-2.891608514E-2,2.892690776E-2
4.488799583E-1,-1.073240652E-3,-1.827551052E-3,-2.808373980E-2,2.816359760E-2
4.588369583E-1,1.507480629E-4,-3.923736513E-4,-3.012318723E-2,3.012611975E-2
4.687939583E-1,2.267092932E-3,1.355815679E-3,-2.919811010E-2,2.931735971E-2
4.787509583E-1,-4.434722941E-4,-1.943574287E-3,-2.864390612E-2,2.871319394E-2
4.887079583E-1,-1.744461479E-3,-4.358310252E-5,-2.569191158E-2,2.575110417E-2
4.986649583E-1,7.485235110E-4,-3.034313209E-3,-2.692229301E-2,2.710308479E-2
5.086219583E-1,-2.941370476E-4,-7.135123014E-4,-2.793572098E-2,2.794637943E-2
5.185789583E-1,-1.159131760E-3,-1.927381381E-3,-2.922415733E-2,2.931057415E-2
5.285349583E-1,1.159319072E-3,-1.980546862E-3,-2.861968055E-2,2.871154300E-2
5.384919583E-1,1.399003551E-3,7.140394300E-4,-2.898506634E-2,2.902759263E-2
5.484489583E-1,-2.599812578E-4,-8.485745639E-5,-2.687464841E-2,2.687603985E-2
5.584059583E-1,1.304380130E-4,2.514654770E-3,-2.596917376E-2,2.609096565E-2
5.683629583E-1,1.602001605E-3,1.845712774E-3,-2.449424379E-2,2.461586975E-2
5.783199583E-1,1.729833311E-3,-2.106684260E-3,-2.391473949E-2,2.406959091E-2
5.882769583E-1,3.948417725E-4,1.565624960E-3,-2.620688453E-2,2.625657781E-2
5.982339583E-1,2.194339642E-3,6.582858041E-4,-2.662047371E-2,2.671887137E-2
6.081909583E-1,1.576968469E-3,6.932709366E-4,-2.696485817E-2,2.701982662E-2
6.181479583E-1,-1.796723926E-3,-3.245892003E-4,-2.801227942E-2,2.807171839E-2
6.281049583E-1,-5.451074103E-4,3.119707108E-4,-2.542630211E-2,2.543405800E-2
6.380619583E-1,1.236280892E-3,-2.148021013E-4,-2.392720990E-2,2.396008981E-2
6.480189583E-1,3.239685902E-4,-6.071403623E-4,-2.454034984E-2,2.454999685E-2
6.579759583E-1,5.154499086E-4,-1.949639991E-3,-2.612626180E-2,2.620397566E-2
6.679329583E-1,-2.959186677E-4,-1.927465200E-4,-2.892738022E-2,2.892953587E-2
6.778899583E-1,-3.827377222E-4,7.785074413E-4,-2.863203548E-2,2.864517442E-2
6.878469583E-1,7.125567645E-4,5.910694599E-4,-2.949919924E-2,2.951372318E-2
6.978029583E-1,1.428947086E-3,-5.184030160E-4,-2.567809820E-2,2.572305112E-2
7.077599583E-1,1.796824392E-3,-2.007978037E-4,-2.497833967E-2,2.504368883E-2
7.177169583E-1,1.772323274E-3,-1.616496593E-4,-2.397539467E-2,2.404135624E-2
7.276739583E-1,9.349720785E-4,-1.128704287E-3,-2.552275173E-2,2.556480006E-2
7.376309583E-1,-1.014461857E-3,-9.899539873E-4,-2.651664242E-2,2.655449994E-2
7.475879583E-1,-1.635867171E-3,-1.721642911E-3,-2.842265926E-2,2.852170534E-2
7.575449583E-1,-2.859057160E-3,4.643015563E-5,-2.786525898E-2,2.801158727E-2
7.675019583E-1,1.810177113E-3,6.647091359E-4,-2.722318470E-2,2.729139727E-2
7.774589583E-1,2.018436324E-3,-1.463955268E-3,-2.392459288E-2,2.405417624E-2
7.874159583E-1,4.808318336E-4,1.368413679E-3,-2.385820262E-2,2.390225068E-2
7.973729583E-1,1.772198593E-3,-7.152436301E-4,-2.368696034E-2,2.376392963E-2
8.073299583E-1,1.965553733E-3,6.318930537E-5,-2.504049987E-2,2.511760394E-2
8.172869583E-1,2.863665577E-5,-1.526184380E-3,-2.493903413E-2,2.498570556E-2
8.272439583E-1,-1.793370931E-3,-3.226362169E-4,-2.252270281E-2,2.259629207E-2
8.372009583E-1,-2.103879815E-4,1.611839980E-5,-2.271098830E-2,2.271196848E-2
8.471569583E-1,-1.421849011E-4,-1.134428196E-3,-2.415090799E-2,2.417795485E-2
8.571139583E-1,-3.925218480E-4,3.896001726E-5,-2.299882472E-2,2.300220706E-2
8.670709583E-1,-2.580316272E-3,-1.887434162E-3,-2.227645181E-2,2.250468274E-2
8.770279583E-1,2.484483179E-3,7.749283686E-4,-2.614895441E-2,2.627814657E-2
8.869849583E-1,5.001244135E-4,-7.471023127E-4,-2.722674981E-2,2.724158937E-2
8.969419583E-1,3.993022256E-5,1.452402212E-3,-2.413961291E-2,2.418329957E-2
9.068989583E-1,-3.787968308E-5,3.299638629E-4,-2.197479643E-2,2.197730623E-2
9.168559583E-1,1.133911079E-3,1.861548051E-3,-2.429547533E-2,2.439305715E-2
9.268129583E-1,-2.378954785E-3,7.655257359E-4,-2.375103906E-2,2.388215467E-2
9.367699583E-1,-1.136057777E-3,1.198612154E-6,-2.698864415E-2,2.701254416E-2
9.467269583E-1,-1.483685570E-3,-1.119645312E-3,-2.712986432E-2,2.719346367E-2
9.566839583E-1,-1.684221672E-3,-6.826203316E-4,-2.717513777E-2,2.723583460E-2
9.666409583E-1,-6.580507616E-4,-7.489230484E-4,-2.607105672E-2,2.609011145E-2
9.765979583E-1,8.080193074E-4,-2.724455670E-3,-2.356661856E-2,2.373733482E-2
9.865549583E-1,3.162925364E-3,1.108062454E-3,-2.194857225E-2,2.220296654E-2
9.965119583E-1,-1.681364607E-3,-1.582795754E-3,-2.522532456E-2,2.533079605E-2
1.006467958E0,1.281319419E-4,-1.053757034E-3,-2.253642865E-2,2.256141480E-2
1.016424958E0,-1.381840557E-4,-3.128657117E-4,-2.355189063E-2,2.355437394E-2
1.026381958E0,4.315321567E-4,-5.029337481E-4,-2.650592849E-2,2.651421142E-2
1.036338958E0,1.992677106E-3,1.767943613E-3,-2.243049443E-2,2.258812668E-2
1.046295958E0,4.324316978E-4,-6.588269025E-4,-2.336860076E-2,2.338188511E-2
1.056252958E0,-1.807819470E-3,-1.619695686E-3,-2.396861091E-2,2.409120035E-2
1.066209958E0,-2.927824156E-3,-1.445831731E-4,-2.391977422E-2,2.409872730E-2
1.076166958E0,7.505338872E-4,-2.596322447E-4,-2.574643679E-2,2.575868237E-2
1.086123958E0,-1.379660098E-4,1.815091819E-3,-2.370049432E-2,2.377029709E-2
1.096081500E0,6.497970317E-4,1.948783174E-3,-2.422779985E-2,2.431473375E-2
1.106038500E0,1.524019754E-3,-3.203805536E-4,-2.253866196E-2,2.259240055E-2
1.115995500E0,-7.476565661E-4,-1.819473691E-3,-2.573445439E-2,2.580952572E-2
1.125952500E0,-6.817186950E-4,-6.616925821E-4,-2.061357722E-2,2.063545839E-2
1.135909500E0,1.920189708E-3,-2.024166286E-3,-2.414785884E-2,2.430850601E-2
1.145866500E0,1.102425274E-3,-4.730308428E-4,-2.148775198E-2,2.152121243E-2
1.155823500E0,-4.901450593E-4,-8.093882352E-4,-2.502869070E-2,2.504657081E-2
1.165779500E0,-1.117863925E-3,7.795179263E-4,-2.350557595E-2,2.354504978E-2
1.175736500E0,-1.093629282E-3,9.366441518E-4,-2.554875240E-2,2.558929613E-2
1.185693500E0,1.462921849E-3,4.613325000E-4,-2.609320730E-2,2.613825616E-2
1.195650500E0,5.747575779E-4,-8.887611330E-5,-2.552621998E-2,2.553284457E-2
1.205607500E0,-1.287399791E-4,2.192836255E-4,-2.389958315E-2,2.390093584E-2
1.215564500E0,-1.553797512E-3,6.592385471E-4,-2.155706659E-2,2.162304331E-2
1.225521500E0,-8.012800245E-4,-1.561541110E-3,-2.147556841E-2,2.154716916E-2
1.235478500E0,-1.400757465E-3,-6.363587454E-4,-2.319330722E-2,2.324428045E-2
1.245435500E0,1.528221997E-3,-1.310135238E-3,-2.292815223E-2,2.301634379E-2
1.255392500E0,6.528409431E-4,9.663347155E-4,-2.494522929E-2,2.497247422E-2
1.265349500E0,2.063481370E-4,1.927957870E-3,-2.359116636E-2,2.367071464E-2
1.275306500E0,-1.577059738E-4,-2.195946872E-3,-2.442873083E-2,2.452773825E-2
1.285263500E0,-1.178891864E-3,1.920320094E-3,-2.196393535E-2,2.207921808E-2
1.295220500E0,5.015707575E-5,1.701408066E-3,-2.101451904E-2,2.108334213E-2
1.305177500E0,-5.649671657E-4,-2.450012602E-3,-2.017572708E-2,2.033179070E-2
1.315133500E0,1.427876181E-3,1.880287193E-3,-2.116029896E-2,2.129160779E-2
1.325090500E0,-1.517845667E-3,-8.666887879E-5,-2.269956470E-2,2.275041987E-2
1.335047500E0,-2.969535068E-3,3.876397386E-4,-2.209209651E-2,2.229415016E-2
1.345004500E0,-1.016500872E-3,-9.422851726E-4,-2.412726358E-2,2.416704415E-2
1.354961500E0,-4.018610343E-5,-1.487966627E-3,-2.369529940E-2,2.374200651E-2
1.364918500E0,2.049891977E-3,6.555849686E-4,-2.175043896E-2,2.185665674E-2
1.374875500E0,2.695480362E-5,-2.797171474E-4,-1.975333318E-2,1.975533194E-2
1.384832500E0,-1.796073513E-3,3.195675090E-4,-2.120999992E-2,2.128830900E-2
1.394789500E0,-2.063987544E-3,-6.125392392E-4,-2.131626010E-2,2.142470988E-2
1.404746500E0,2.806888660E-4,7.573692128E-4,-2.039131895E-2,2.040730954E-2
1.414703500E0,1.086295117E-3,9.837374091E-4,-2.034151927E-2,2.039424386E-2
1.424660500E0,5.722400965E-4,-1.344854943E-3,-1.926091500E-2,1.931628691E-2
1.434617500E0,-1.715808176E-4,2.436833456E-3,-1.792773604E-2,1.809340534E-2
1.444574500E0,1.536391675E-3,-1.198914833E-3,-2.074163966E-2,2.083299095E-2
1.454531500E0,2.330013551E-3,-3.160769120E-4,-2.214832231E-2,2.227278719E-2
1.464488500E0,4.103046376E-4,1.607380807E-3,-2.169441991E-2,2.175775443E-2
1.474444500E0,-1.410498633E-3,-9.766845033E-4,-2.121212147E-2,2.128138897E-2
1.484401500E0,-1.676505199E-3,6.300825626E-4,-1.904209517E-2,1.912613558E-2
1.494358500E0,-4.878104664E-5,5.536498502E-4,-1.631448604E-2,1.632395058E-2
1.504315500E0,-4.310831428E-4,8.043162525E-4,-1.641397178E-2,1.643931954E-2
1.514272500E0,-7.962025702E-4,-1.155398786E-4,-1.738442481E-2,1.740303174E-2
1.524229500E0,1.283544349E-3,-2.463627607E-4,-2.205821499E-2,2.209690090E-2
1.534186500E0,-3.348585451E-4,-6.056232378E-4,-2.176766470E-2,2.177866241E-2
1.544143500E0,-1.245334977E-3,7.956353948E-4,-2.003431693E-2,2.008874684E-2
1.554100500E0,-8.112397045E-4,1.850247383E-3,-1.744838804E-2,1.756495859E-2
1.564057500E0,1.689710538E-3,-4.278579727E-4,-1.707101241E-2,1.715976832E-2
1.574014500E0,1.220727921E-3,8.693672717E-4,-1.711735129E-2,1.718283130E-2
1.583971500E0,-1.551449532E-4,-2.785738558E-3,-1.814177446E-2,1.835506442E-2
1.593928500E0,6.350149633E-4,-1.307417639E-3,-1.994127221E-2,1.999417221E-2
1.603885500E0,-2.910285257E-4,1.916313544E-3,-2.087625116E-2,2.096603963E-2
1.613842500E0,1.881844597E-3,1.184476539E-3,-2.243206836E-2,2.254200556E-2
1.623798500E0,-1.307198545E-4,-1.888591796E-3,-1.962570101E-2,1.971679504E-2
1.633755500E0,-1.654314343E-3,1.314658672E-3,-1.521790214E-2,1.536390669E-2
1.643712500E0,-2.865115181E-3,2.709636465E-4,-1.797835343E-2,1.820723752E-2
1.653669500E0,-1.907689730E-4,6.004143506E-5,-1.905080862E-2,1.905185836E-2
1.663626500E0,2.973932074E-3,6.474424154E-4,-1.978894696E-2,2.002163518E-2
1.673583500E0,2.951827832E-3,9.790062904E-4,-2.227660641E-2,2.249264178E-2
1.683540500E0,7.746029878E-4,-2.723885700E-4,-2.062186599E-2,2.063820637E-2
1.693497500E0,-1.177227823E-3,1.983309165E-3,-1.987431571E-2,2.000769366E-2
1.703454500E0,1.969368430E-3,-3.820126876E-4,-1.699151285E-2,1.710952526E-2
1.713411500E0,8.495092625E-4,-2.073086798E-4,-1.631054282E-2,1.633396614E-2
1.723368500E0,-3.328453284E-3,4.919627681E-4,-1.877077855E-2,1.906994379E-2
1.733325500E0,-2.016358776E-4,1.287078485E-4,-1.754013263E-2,1.754176375E-2
1.743282500E0,-9.467781056E-4,8.166134357E-4,-2.083551697E-2,2.087299724E-2
1.753239500E0,2.698822878E-3,1.324471086E-4,-1.989222690E-2,2.007490668E-2
1.763196500E0,9.780607652E-4,-1.073097810E-4,-1.938716695E-2,1.941211891E-2
1.773152500E0,7.122772513E-4,-3.075795248E-4,-1.636208221E-2,1.638046637E-2
1.783109500E0,-1.787728979E-3,8.675307035E-4,-1.583232731E-2,1.595654011E-2
1.793066500E0,3.827472683E-4,-1.956801862E-5,-1.774154603E-2,1.774568494E-2
1.803023500E0,-3.186488524E-3,9.839711711E-4,-2.026990429E-2,2.054241778E-2
1.812980500E0,-1.120148227E-5,1.867874525E-3,-2.248565480E-2,2.256310600E-2
1.822937500E0,2.352698939E-4,2.064091153E-3,-2.101135999E-2,2.111381237E-2
1.832894500E0,9.647097322E-4,-1.935177483E-3,-1.881158911E-2,1.893545514E-2
1.842851500E0,-5.946487654E-4,3.096424043E-4,-1.710696146E-2,1.712009392E-2
1.852808500E0,-1.117427368E-3,-4.269368947E-5,-1.318306010E-2,1.323040212E-2
1.862765500E0,-2.774802968E-3,-8.179433644E-4,-1.610020548E-2,1.635803104E-2
1.872722500E0,-5.803584354E-4,4.747547209E-4,-1.752153412E-2,1.753757012E-2
1.882679500E0,4.722333979E-4,-6.366642192E-4,-2.113999426E-2,2.115485058E-2
1.892636500E0,-2.987517510E-4,-1.195395365E-3,-2.045183256E-2,2.048891598E-2
1.902593500E0,-1.869804692E-5,6.460864097E-5,-1.945872605E-2,1.945884229E-2
1.912550500E0,-1.600349322E-3,1.001451164E-5,-1.654203236E-2,1.661926752E-2
1.922507500E0,-1.945437398E-4,-3.130072728E-4,-1.580932923E-2,1.581362423E-2
1.932463500E0,-1.051282743E-3,-7.095513865E-4,-1.633130945E-2,1.638048617E-2
1.942420500E0,-2.532276325E-3,1.174548641E-3,-1.907735877E-2,1.928049806E-2
1.952377500E0,5.426094867E-4,5.782665685E-4,-2.030694112E-2,2.032241804E-2
1.962334500E0,1.818563323E-4,-1.140433364E-3,-2.001683414E-2,2.005011992E-2
1.972291500E0,3.736040089E-4,-8.970201015E-4,-1.857260242E-2,1.859800489E-2
1.982248500E0,1.585245482E-3,7.479535416E-4,-1.812695339E-2,1.821150398E-2
1.992205500E0,1.474457909E-3,2.031597309E-3,-1.830511913E-2,1.847643905E-2
2.002162500E0,-2.330961870E-4,-1.572273672E-3,-1.866222546E-2,1.872979010E-2
2.012119500E0,-1.658419962E-3,1.303673722E-3,-1.768271625E-2,1.780809861E-2
2.022076500E0,-6.463231985E-4,2.409210429E-3,-1.833779551E-2,1.850666833E-2
2.032033500E0,2.352396259E-3,-1.701910980E-3,-1.779664122E-2,1.803193577E-2
2.041990500E0,-4.542111419E-4,2.901698463E-3,-1.985393278E-2,2.006999773E-2
2.051947500E0,-6.704598200E-4,1.034289598E-3,-1.794950664E-2,1.799177757E-2
2.061904500E0,1.717591658E-6,-8.367337286E-4,-1.888986304E-2,1.890838576E-2
2.071861500E0,-4.675312666E-4,-1.544335857E-3,-1.634840854E-2,1.642784284E-2
2.081817500E0,5.480245454E-4,-4.770411178E-4,-1.899706759E-2,1.901095674E-2
2.091773875E0,-4.868798424E-4,7.903575897E-4,-1.549367793E-2,1.552146169E-2
2.101730875E0,-1.967832213E-4,-1.563883387E-3,-1.828832179E-2,1.835612075E-2
2.111687875E0,-5.003835540E-4,7.706433535E-4,-1.635007188E-2,1.637587021E-2
2.121644875E0,1.261012047E-3,1.441000029E-3,-1.779186912E-2,1.789461481E-2
2.131601875E0,-1.255675103E-3,2.272704616E-3,-1.482990198E-2,1.505549398E-2
2.141558875E0,-1.201755367E-5,-9.699817747E-4,-1.702475920E-2,1.705237329E-2
2.151515875E0,-2.674113261E-3,1.140307635E-3,-1.817045175E-2,1.840153526E-2
2.161472875E0,9.282658575E-4,-2.466616221E-3,-1.856321096E-2,1.874936464E-2
2.171429875E0,-1.180158695E-3,-2.402132377E-4,-1.754907891E-2,1.759035666E-2
2.181386875E0,2.055181889E-3,-7.209265605E-4,-1.664008945E-2,1.678201670E-2
2.191343875E0,-1.632763539E-3,4.553915933E-4,-1.712958142E-2,1.721324658E-2
2.201300875E0,1.364736818E-6,5.592051893E-4,-1.557138469E-2,1.558142270E-2
2.211257875E0,-2.084923908E-4,-9.465459734E-4,-1.827688888E-2,1.830257046E-2
2.221214875E0,-2.769523999E-4,-2.745123580E-3,-1.790050976E-2,1.811189266E-2
2.231170875E0,-1.843956416E-3,-8.063428104E-4,-2.042918094E-2,2.052807340E-2
2.241127875E0,2.168428618E-4,-5.536889657E-4,-1.741129346E-2,1.742144461E-2
2.251084875E0,2.890390344E-3,-2.095126547E-3,-1.687839441E-2,1.725178569E-2
2.261041875E0,-2.260638168E-3,1.352429390E-4,-1.430862397E-2,1.448673516E-2
2.270998875E0,-3.237212077E-4,8.817277849E-4,-1.595339365E-2,1.598102025E-2
2.280955875E0,1.225976739E-4,2.706585452E-3,-1.713358797E-2,1.734648298E-2
2.290912875E0,2.158051822E-3,6.879093125E-4,-1.925426349E-2,1.938703354E-2
2.300869875E0,-4.351467360E-4,6.802584976E-4,-1.993827522E-2,1.995462159E-2
2.310826875E0,-2.956627635E-3,1.068804413E-4,-1.739735343E-2,1.764712375E-2
2.320783875E0,1.522047678E-4,-2.033645287E-3,-1.731067151E-2,1.743038231E-2
2.330740875E0,3.612629371E-4,-9.379815310E-5,-1.591650583E-2,1.592088147E-2
2.340697875E0,-3.227595007E-4,-3.531128168E-4,-1.530865021E-2,1.531612332E-2
2.350654875E0,-1.446879818E-3,-5.709594116E-4,-1.772733219E-2,1.779544218E-2
2.360611875E0,-3.585854545E-3,-9.461902082E-4,-1.917697862E-2,1.953228450E-2
2.370568875E0,-1.937890542E-3,-1.532086171E-3,-1.606134698E-2,1.625021768E-2
2.380524875E0,1.673968043E-3,-1.696208492E-4,-1.798805222E-2,1.806657031E-2
2.390481875E0,-1.282140845E-3,1.319885254E-3,-1.385082956E-2,1.397252525E-2
2.400438875E0,-1.431303914E-3,-1.236505806E-3,-1.625880972E-2,1.636845964E-2
2.410395875E0,2.169556217E-3,-1.401888207E-3,-1.763193682E-2,1.782014199E-2
2.420352875E0,1.102502458E-3,1.995467581E-3,-1.772091910E-2,1.786696327E-2
2.430309875E0,-6.288186414E-4,-6.708893925E-4,-1.732730307E-2,1.735168398E-2
2.440266875E0,-2.433158690E-3,7.275743410E-4,-1.690407097E-2,1.709377785E-2
2.450223875E0,7.085722755E-4,3.390191123E-4,-1.632403582E-2,1.634292367E-2
2.460180875E0,1.798692741E-3,-2.616085112E-6,-1.555062458E-2,1.565430379E-2
2.470137875E0,6.146512460E-4,-1.060157083E-3,-1.626488380E-2,1.631098324E-2
2.480094875E0,-3.668965073E-4,5.436521024E-4,-1.651050150E-2,1.652352355E-2
2.490051875E0,6.634806050E-4,1.287320629E-4,-1.708387956E-2,1.709724303E-2
2.500008875E0,-1.654548803E-3,-1.078065485E-3,-1.625707559E-2,1.637657668E-2
2.509965875E0,8.871721220E-4,-8.655451238E-4,-1.660088822E-2,1.664709382E-2
2.519921875E0,-1.320609357E-3,-5.520433187E-4,-1.700098999E-2,1.706113775E-2
2.529878875E0,-4.183303099E-4,9.617023170E-5,-1.681989431E-2,1.682537054E-2
2.539835875E0,-1.200442319E-3,-1.581992954E-3,-1.335148886E-2,1.349837095E-2
2.549792875E0,-9.727420984E-4,-4.461556673E-4,-1.319356263E-2,1.323689453E-2
2.559749875E0,-3.406214528E-4,-8.331350982E-4,-1.427163184E-2,1.429998645E-2
2.569706875E0,1.769401133E-3,-8.163563907E-4,-1.521252654E-2,1.533682438E-2
2.579663875E0,-2.574117389E-4,-7.771430537E-4,-1.779551245E-2,1.781433343E-2
2.589620875E0,8.544580196E-4,-1.055443659E-3,-1.686633565E-2,1.692091422E-2
2.599577875E0,1.189364819E-3,-4.132641479E-4,-1.538653672E-2,1.543796904E-2
2.609534875E0,1.601622091E-3,8.152518421E-4,-1.280806400E-2,1.293353518E-2
2.619491875E0,6.366339512E-4,-2.600014210E-3,-1.382601261E-2,1.408275546E-2
2.629448875E0,-3.208580893E-5,-1.829561777E-3,-1.337167807E-2,1.349629950E-2
2.639405875E0,-2.185617341E-4,-1.090820879E-3,-1.728574932E-2,1.732151231E-2
2.649362875E0,1.146840863E-3,1.758709550E-5,-1.523458399E-2,1.527769952E-2
2.659319875E0,5.383191165E-4,-2.112246118E-3,-1.833625510E-2,1.846536277E-2
2.669275875E0,6.030339282E-4,2.811938524E-3,-1.682251506E-2,1.706656559E-2
2.679232875E0,-1.324063982E-3,-3.734314814E-4,-1.386288460E-2,1.393097865E-2
2.689189875E0,2.103690524E-3,-1.047210768E-3,-1.652711257E-2,1.669334042E-2
2.699146875E0,-7.738079876E-4,-5.784817040E-5,-1.563366130E-2,1.565290679E-2
2.709103875E0,1.142869121E-3,-1.035761088E-3,-1.758496091E-2,1.765247294E-2
2.719060875E0,9.489161894E-4,3.743078560E-5,-1.599692740E-2,1.602509061E-2
2.729017875E0,1.124684815E-3,1.085372642E-4,-1.655619219E-2,1.659470386E-2
2.738974875E0,-1.545450417E-3,-2.191034146E-3,-1.637202129E-2,1.659012142E-2
2.748931875E0,-2.867710078E-3,-4.527885467E-4,-1.674779505E-2,1.699757093E-2
2.758888875E0,-7.872474380E-4,1.096475869E-3,-1.311317924E-2,1.318246895E-2
2.768845875E0,-1.526160631E-4,-1.373663545E-4,-1.123405341E-2,1.123592974E-2
2.778802875E0,2.591977827E-4,-1.014571637E-3,-1.461313199E-2,1.465060291E-2
2.788759875E0,-1.169321826E-3,1.681345515E-3,-1.565522701E-2,1.578861517E-2
2.798716875E0,3.035950940E-4,-1.616059802E-3,-1.729485206E-2,1.737284453E-2
2.808673875E0,2.615171252E-4,1.043372788E-3,-1.726022922E-2,1.729371361E-2
2.818629875E0,-5.064965226E-4,-4.014763981E-4,-1.439537108E-2,1.440987268E-2
2.828586875E0,-1.300917473E-3,6.123892963E-4,-1.024243794E-2,1.034286914E-2
2.838543875E0,1.260656747E-3,1.084371470E-3,-1.048107073E-2,1.061216097E-2
2.848500875E0,2.744882368E-4,-5.854303017E-4,-1.310481690E-2,1.312075830E-2
2.858457875E0,-5.988734774E-4,-1.044088975E-3,-1.788722910E-2,1.792768072E-2
2.868414875E0,1.011007465E-3,7.466208190E-4,-1.615138166E-2,1.620020704E-2
2.878371875E0,1.787719317E-3,-3.409003839E-4,-1.520310715E-2,1.531164983E-2
2.888328875E0,1.220732345E-3,-1.879408956E-6,-1.357991062E-2,1.363466771E-2
2.898285875E0,-8.115568198E-4,-5.019549280E-5,-1.424105279E-2,1.426424652E-2
2.908242875E0,-7.039913908E-5,-2.478025854E-4,-1.178561896E-2,1.178843401E-2
2.918199875E0,1.914686989E-3,-4.792306572E-4,-1.463583857E-2,1.476832620E-2
2.928156875E0,-1.732512144E-3,2.749767154E-4,-1.620497368E-2,1.629964363E-2
2.938113875E0,-1.205252134E-3,-1.849760301E-3,-1.728875004E-2,1.742914581E-2
2.948070875E0,-7.021810161E-4,1.345500350E-3,-1.846213825E-2,1.852441573E-2
2.958027875E0,2.050759038E-3,-5.642464384E-4,-1.733929478E-2,1.746926243E-2
2.967983875E0,3.044118173E-3,9.042201564E-4,-1.860722713E-2,1.887625946E-2
2.977940875E0,-1.743765781E-3,1.265508123E-3,-1.353272796E-2,1.370317320E-2
2.987897875E0,5.071378546E-4,1.193868928E-3,-1.253777184E-2,1.260469097E-2
2.997854875E0,-3.475044388E-3,1.032520086E-3,-1.152472571E-2,1.208144585E-2
3.007811875E0,-7.082865341E-4,-3.166375682E-4,-1.393355615E-2,1.395513942E-2
3.017768875E0,-3.134349827E-4,1.987106167E-3,-1.386379078E-2,1.400898023E-2
3.027725875E0,-4.378044978E-4,-2.659279853E-4,-1.509923115E-2,1.510791752E-2
3.037682875E0,8.898977540E-4,1.501277089E-3,-1.632874459E-2,1.642174323E-2
3.047639875E0,3.018717980E-4,-2.992860973E-4,-1.273427531E-2,1.274136831E-2
3.057596875E0,1.379977679E-3,1.880070195E-4,-1.323613524E-2,1.330920588E-2
3.067553875E0,8.843634278E-4,-9.915074334E-4,-1.396770589E-2,1.403075171E-2
3.077510875E0,1.441577915E-3,1.969663426E-4,-1.086873095E-2,1.096568535E-2
3.087467875E0,5.480874097E-4,-1.638922840E-4,-1.573192701E-2,1.574232473E-2
3.097425708E0,-2.853503451E-3,-1.243850216E-3,-1.591378823E-2,1.621537237E-2
3.107381708E0,-1.967340941E-4,-2.545397729E-5,-1.561551448E-2,1.561677446E-2
3.117338708E0,-7.064333186E-4,2.730826847E-3,-1.369198877E-2,1.397952145E-2
3.127295708E0,-1.354514388E-4,4.327846691E-4,-1.125785988E-2,1.126698978E-2
3.137252708E0,2.015726874E-3,-1.347455196E-3,-1.134497300E-2,1.160117247E-2
3.147209708E0,2.150749089E-3,-5.418490618E-4,-1.062005945E-2,1.084919281E-2
3.157166708E0,2.346568741E-3,-3.319717944E-4,-1.390934642E-2,1.410980184E-2
3.167123708E0,-8.518875111E-4,-1.064340584E-3,-1.299215388E-2,1.306348328E-2
3.177080708E0,7.058396004E-4,-5.146134645E-4,-1.545957848E-2,1.548423726E-2
3.187037708E0,1.491472125E-3,1.644677483E-3,-1.202330180E-2,1.222657921E-2
3.196994708E0,-4.870182602E-4,4.083458334E-4,-1.323299669E-2,1.324825024E-2
3.206951708E0,-4.625170259E-4,-1.159723848E-3,-1.309637539E-2,1.315575653E-2
3.216908708E0,4.326424096E-4,-1.088396646E-3,-1.371540688E-2,1.376532501E-2
3.226865708E0,-1.968996134E-3,4.663569853E-4,-1.127355546E-2,1.145371063E-2
3.236822708E0,-1.639480004E-3,2.268515527E-5,-1.298644580E-2,1.308954483E-2
3.246779708E0,-8.165631443E-4,8.756956086E-4,-1.503708027E-2,1.508467439E-2
3.256735708E0,5.968996556E-4,-9.849742055E-4,-1.519223116E-2,1.523582460E-2
3.266692708E0,-1.718452550E-3,-5.234489217E-4,-1.517518610E-2,1.528114364E-2
3.276649708E0,-8.537294343E-5,-3.800150007E-4,-1.329169609E-2,1.329740143E-2
3.286606708E0,-9.650150314E-4,9.880512953E-4,-1.158514246E-2,1.166717726E-2
3.296563708E0,2.601088490E-4,5.578538403E-4,-1.156079024E-2,1.157716410E-2
3.306520708E0,-4.762551980E-4,-1.036048867E-3,-1.081297360E-2,1.087293035E-2
3.316477708E0,-2.136117546E-4,1.686187461E-3,-1.420253143E-2,1.430387210E-2
3.326434708E0,2.140622586E-3,-5.604550242E-4,-1.277534477E-2,1.296556242E-2
3.336391708E0,-1.232872717E-3,1.456728205E-4,-1.333233621E-2,1.339001062E-2
3.346348708E0,-8.576333057E-4,-9.797783569E-4,-1.266654674E-2,1.273329913E-2
3.356305708E0,6.659713108E-5,5.030389875E-4,-1.166576613E-2,1.167679677E-2
3.366262708E0,2.668771893E-3,9.416611865E-4,-1.206790376E-2,1.239529630E-2
3.376219708E0,1.653034706E-3,7.966440171E-4,-1.402419806E-2,1.414373701E-2
3.386176708E0,1.291643828E-3,2.258187160E-3,-1.540025324E-2,1.561843631E-2
3.396133708E0,-1.119993045E-3,1.557069831E-3,-1.440925710E-2,1.453635240E-2
3.406089708E0,1.985785551E-3,-5.609430373E-4,-1.377435774E-2,1.392806277E-2
3.416046708E0,2.188009676E-4,1.525666565E-3,-1.262156852E-2,1.271532635E-2
3.426003708E0,-8.499255637E-4,6.287135184E-4,-1.310466602E-2,1.314724023E-2
3.435960708E0,-8.151981747E-4,-3.778813407E-4,-1.290964801E-2,1.294087918E-2
3.445917708E0,1.024513505E-3,-5.994560197E-4,-1.230244618E-2,1.235957756E-2
3.455874708E0,3.141426714E-4,1.531597227E-4,-1.339172199E-2,1.339628163E-2
3.465831708E0,-1.102930401E-5,-1.868445426E-3,-1.289584115E-2,1.303049995E-2
3.475788708E0,-3.995042061E-4,-3.021934070E-3,-1.368799526E-2,1.402329859E-2
3.485745708E0,8.066382725E-5,-1.159586012E-3,-1.476364490E-2,1.480933344E-2
3.495702708E0,1.656342880E-3,1.473832875E-3,-1.326287072E-2,1.344691023E-2
3.505659708E0,3.649761202E-4,1.862654462E-3,-1.441415492E-2,1.453858836E-2
3.515616708E0,2.330418676E-3,-1.062033698E-4,-1.137130242E-2,1.160812858E-2
3.525573708E0,6.646115799E-4,6.980709732E-4,-1.336813997E-2,1.340284216E-2
3.535530708E0,2.749876818E-3,6.149709225E-5,-1.285925880E-2,1.315013845E-2
3.545486708E0,1.265164581E-3,8.679646999E-5,-1.402305998E-2,1.408028360E-2
3.555443708E0,-2.134271432E-3,-1.011961140E-3,-1.202115417E-2,1.225101332E-2
3.565400708E0,-3.081416944E-4,-7.901201025E-4,-1.390747167E-2,1.393330576E-2
3.575357708E0,1.726895920E-3,7.341094315E-4,-1.178679243E-2,1.193522358E-2
3.585314708E0,-7.304028841E-4,-6.731050089E-4,-1.356898062E-2,1.360528551E-2
3.595271708E0,8.484286373E-4,8.505238220E-4,-1.235768665E-2,1.241594302E-2
3.605228708E0,-3.569180844E-4,-6.613526493E-4,-1.443548407E-2,1.445503297E-2
3.615185708E0,-2.357468475E-4,-2.383628860E-3,-1.302617602E-2,1.324456586E-2
3.625142708E0,8.108754409E-4,1.148521900E-3,-1.743823662E-2,1.749481975E-2
3.635099708E0,-9.691078449E-4,5.530193448E-6,-1.318916492E-2,1.322472200E-2
3.645056708E0,-6.306202849E-4,-4.599904642E-4,-1.335454732E-2,1.337733932E-2
3.655013708E0,-1.486207824E-3,1.374794170E-3,-9.863315150E-3,1.006895518E-2
3.664970708E0,5.576235708E-5,-1.405280083E-3,-1.074215770E-2,1.083383005E-2
3.674927708E0,2.175953705E-3,5.605062470E-4,-1.060914900E-2,1.084449097E-2
3.684884708E0,1.056627021E-3,-6.253989413E-4,-1.145470235E-2,1.152032077E-2
3.694840708E0,8.256861474E-5,7.019005716E-5,-1.186502445E-2,1.186551935E-2
3.704797708E0,-1.253805705E-3,1.687277108E-4,-1.357663702E-2,1.363545271E-2
3.714754708E0,1.084767282E-3,-1.235187054E-3,-1.575845294E-2,1.584396560E-2
3.724711708E0,-2.193584107E-3,8.609862998E-4,-1.290168054E-2,1.311512369E-2
3.734668708E0,-8.505322039E-4,-1.460822299E-3,-1.005331613E-2,1.019443829E-2
3.744625708E0,-1.003860962E-5,3.946013749E-4,-6.707319990E-3,6.718924949E-3
3.754582708E0,-1.595584792E-3,9.896717966E-4,-1.081827935E-2,1.098000497E-2
3.764539708E0,9.855510434E-4,-2.096665092E-3,-1.399809401E-2,1.418851477E-2
3.774496708E0,-1.861273311E-3,4.246803001E-4,-1.260898076E-2,1.275268942E-2
3.784453708E0,-5.643139593E-4,-3.431094810E-4,-1.187714376E-2,1.189549151E-2
3.794410708E0,-7.943283999E-4,1.577259041E-3,-1.252902672E-2,1.265287375E-2
3.804367708E0,3.508307273E-4,-1.394296065E-3,-1.177908108E-2,1.186650305E-2
3.814324708E0,1.010342268E-3,2.323323861E-4,-8.607282303E-3,8.669491247E-3
3.824281708E0,3.895877395E-3,6.776126102E-4,-1.180786919E-2,1.245242122E-2
3.834237708E0,-8.222041652E-5,-6.861817092E-4,-1.205984224E-2,1.207962749E-2
3.844194708E0,-2.464950550E-3,3.684302792E-4,-1.224999223E-2,1.250096123E-2
3.854151708E0,1.208690926E-3,1.199173741E-3,-1.144977007E-2,1.157567217E-2
3.864108708E0,1.373048872E-5,3.448314965E-4,-1.233899873E-2,1.234382384E-2
3.874065708E0,-7.178069791E-4,-1.963940449E-3,-1.000505127E-2,1.022122106E-2
3.884022708E0,3.178963671E-4,-1.142355613E-3,-8.785856888E-3,8.865512715E-3
3.893979708E0,-2.693477552E-3,1.597372815E-3,-9.436646476E-3,9.942671570E-3
3.903936708E0,-9.583029896E-5,4.873676226E-4,-1.197490469E-2,1.198520141E-2
3.913893708E0,-2.593080280E-3,-1.468844712E-4,-1.537409611E-2,1.559193611E-2
3.923850708E0,2.761471551E-3,-8.052177727E-4,-1.682844758E-2,1.707251442E-2
3.933807708E0,5.522805732E-4,-1.606624573E-3,-1.337008178E-2,1.347758670E-2
3.943764708E0,6.947597140E-4,-4.052724689E-4,-1.227285899E-2,1.229918716E-2
3.953721708E0,-1.135457307E-3,7.214965299E-4,-8.507923223E-3,8.613627465E-3
3.963678708E0,-5.341155920E-4,2.046685666E-3,-6.279389374E-3,6.626079730E-3
3.973635708E0,-5.085011944E-4,5.444521084E-4,-9.505422786E-3,9.534572036E-3
3.983591708E0,9.362637065E-4,-8.112471551E-5,-1.038186997E-2,1.042431749E-2
3.993548708E0,-1.512010233E-3,-1.772535034E-3,-1.509033144E-2,1.526912434E-2
4.003505708E0,9.676591144E-4,8.498793468E-4,-1.322318800E-2,1.328575778E-2
4.013462708E0,2.278896281E-3,-4.510553554E-4,-1.255462319E-2,1.276774775E-2
4.023419708E0,-3.385913791E-3,-2.118992619E-3,-1.060012914E-2,1.132772174E-2
4.033376708E0,-4.731152439E-4,-7.363818586E-4,-1.023919508E-2,1.027653697E-2
4.043333708E0,1.903223456E-3,1.917990856E-3,-1.081257500E-2,1.114507634E-2
4.053290708E0,1.456718193E-3,-2.280957997E-4,-8.507156745E-3,8.633989314E-3
4.063247708E0,1.706522773E-3,-1.306245103E-4,-1.298313215E-2,1.309545735E-2
4.073204708E0,9.901056765E-4,5.080755800E-4,-1.411368512E-2,1.415749122E-2
4.083161708E0,-1.108997967E-3,-2.645077184E-4,-1.327665336E-2,1.332551558E-2
4.093118708E0,-8.759327466E-4,-1.978727058E-3,-1.015684195E-2,1.038479934E-2
4.103075708E0,-1.255965908E-3,-2.592851408E-3,-9.665489197E-3,1.008573300E-2
4.113032708E0,1.432140125E-3,-1.956748776E-3,-7.023492828E-3,7.430298959E-3
4.122988708E0,6.997708115E-4,-9.071966633E-4,-7.807794958E-3,7.891409702E-3
4.132945708E0,5.879057571E-4,-1.979813911E-3,-1.115214266E-2,1.134176275E-2
4.142902708E0,4.701782018E-5,-1.187257469E-3,-9.229874238E-3,9.306039406E-3
4.152859708E0,-1.868774416E-3,-9.424379095E-4,-1.315227337E-2,1.331776265E-2
4.162816708E0,3.413830418E-4,6.141802296E-4,-1.082866639E-2,1.085144117E-2
4.172773708E0,-1.507584471E-3,2.494752407E-4,-1.110359468E-2,1.120824980E-2
4.182730708E0,-7.440561894E-4,1.633785665E-3,-1.080585271E-2,1.095396403E-2
4.192687708E0,3.956207540E-3,8.166581392E-5,-1.049210876E-2,1.121350051E-2
4.202644708E0,-1.339754555E-3,-7.425826043E-4,-1.151396334E-2,1.161540886E-2
4.212601708E0,-1.489771297E-3,1.322315075E-3,-9.232779965E-3,9.445218979E-3
4.222558708E0,3.230948001E-3,3.979317844E-4,-9.404819459E-3,9.952286358E-3
4.232515708E0,2.945766784E-3,1.149316318E-3,-1.129444875E-2,1.172872723E-2
4.242472708E0,-1.057230402E-3,-1.299993135E-3,-7.632602006E-3,7.814367003E-3
4.252429708E0,3.480707528E-4,9.943675250E-4,-1.150394231E-2,1.155208244E-2
4.262386708E0,-1.968080411E-3,-8.717095479E-4,-1.114787720E-2,1.135378281E-2
4.272342708E0,2.055738354E-3,-1.642691903E-3,-1.019577682E-2,1.052987948E-2
4.282299708E0,-1.460965956E-3,-1.733239740E-3,-1.042853855E-2,1.067206436E-2
4.292256708E0,-1.417963067E-4,1.699738204E-3,-8.842766285E-3,9.005761030E-3
4.302213708E0,-1.872051973E-3,1.138078049E-3,-8.322650567E-3,8.606178751E-3
4.312170708E0,-1.492942334E-3,4.395283759E-5,-9.211096913E-3,9.331404771E-3
4.322127708E0,4.056250909E-4,-5.928091705E-4,-9.842265397E-3,9.868441750E-3
4.332084708E0,-1.238561119E-3,1.641167328E-4,-1.154302061E-2,1.161043895E-2
4.342041708E0,1.608358114E-3,5.960818380E-4,-1.538649388E-2,1.548180620E-2
4.351998708E0,-3.250841051E-3,5.599530414E-4,-1.382949017E-2,1.421746508E-2
4.361955708E0,2.224536147E-4,1.998934895E-4,-1.037377305E-2,1.037808317E-2
4.371912708E0,1.095695188E-4,2.308744006E-3,-8.054248989E-3,8.379333573E-3
4.381869708E0,-1.469951356E-3,-1.977347769E-3,-7.795389742E-3,8.175497686E-3
4.391826708E0,7.059020572E-4,-8.010957390E-5,-1.131038368E-2,1.133267374E-2
4.401783708E0,9.248139104E-4,-1.034320332E-3,-1.472908258E-2,1.479428853E-2
4.411739708E0,1.100651454E-3,-5.467273295E-4,-1.498925313E-2,1.503954966E-2
4.421696708E0,-1.363837742E-3,4.527568817E-4,-1.494770870E-2,1.501662537E-2
4.431653708E0,-1.601328840E-4,-2.061502077E-3,-1.206487045E-2,1.224077335E-2
4.441610708E0,2.033886267E-4,1.503138803E-3,-9.393453598E-3,9.515133404E-3
4.451567708E0,5.663030315E-4,-1.998836175E-3,-8.216274902E-3,8.474858019E-3
4.461524708E0,1.534095732E-3,-1.041429117E-3,-9.506043047E-3,9.685188626E-3
4.471481708E0,1.128699398E-3,-1.423681155E-3,-1.183736697E-2,1.197597959E-2
4.481438708E0,7.023272919E-4,-1.860706136E-3,-1.331861690E-2,1.346629299E-2
4.491395708E0,1.186410198E-3,1.678745262E-3,-1.590083912E-2,1.603316686E-2
4.501352708E0,2.029300667E-3,-2.576392144E-4,-1.216975041E-2,1.234047261E-2
4.511309708E0,-5.689376267E-4,-5.334084854E-4,-8.915724233E-3,8.949768334E-3
4.521266708E0,-2.248572418E-4,-1.554464921E-3,-6.108753383E-3,6.307439248E-3
4.531223708E0,1.070068218E-3,5.943942815E-4,-7.784776390E-3,7.880424734E-3
4.541180708E0,2.172616776E-3,1.866320148E-3,-8.962159976E-3,9.408704799E-3
4.551137708E0,-1.928366255E-4,-5.943449214E-4,-1.209547743E-2,1.211160626E-2
4.561093708E0,-2.565446775E-3,-1.044153236E-3,-1.466010138E-2,1.491946198E-2
4.571050708E0,6.475584814E-4,2.364264801E-4,-1.442197151E-2,1.443843800E-2
4.581007708E0,-3.071847605E-4,3.368277103E-4,-9.564632550E-3,9.575490128E-3
4.590964708E0,8.584358729E-4,-7.681846619E-4,-7.498614490E-3,7.586582834E-3
4.600921708E0,2.688119421E-4,-1.239830628E-3,-6.900733337E-3,7.016378014E-3
4.610878708E0,9.264863911E-4,6.772056222E-4,-1.017904468E-2,1.024353138E-2
4.620835708E0,-1.212298172E-3,4.790667444E-4,-1.271730289E-2,1.278393385E-2
4.630792708E0,4.261941649E-5,-7.403874770E-4,-1.397201605E-2,1.399168405E-2
4.640749708E0,1.167005976E-3,-1.005105674E-3,-1.290328801E-2,1.299488291E-2
4.650706708E0,-8.168108761E-4,-2.100589685E-3,-1.250825264E-2,1.270968296E-2
4.660663708E0,1.527836197E-3,4.587080330E-4,-9.353738278E-3,9.488788979E-3
4.670620708E0,5.297421943E-3,-1.164154150E-3,-1.249900088E-2,1.362508558E-2
4.680577708E0,-4.624627763E-4,1.485180110E-4,-1.279328018E-2,1.280249770E-2
4.690534708E0,-1.170533942E-3,1.602265984E-4,-1.153012179E-2,1.159049312E-2
4.700490708E0,1.204206725E-3,1.181016676E-3,-1.231309213E-2,1.242807917E-2
4.710447708E0,-9.107447695E-4,2.096327022E-3,-1.087202132E-2,1.110967554E-2
4.720404708E0,1.328707440E-3,6.291912869E-4,-1.047121547E-2,1.057391595E-2
4.730361708E0,3.783280263E-4,-1.048959792E-3,-1.026107743E-2,1.032149015E-2
4.740318708E0,-3.009745385E-3,-1.525132917E-3,-8.306849748E-3,8.965955076E-3
4.750275708E0,-4.012570716E-4,-1.417479478E-3,-1.131203026E-2,1.140755381E-2
4.760232708E0,4.783848999E-4,-1.070735976E-3,-8.455788717E-3,8.536725980E-3
4.770189708E0,-8.251417894E-4,1.662224531E-4,-1.183975674E-2,1.186963894E-2
4.780146708E0,-8.224784397E-4,-3.085192293E-5,-1.271513663E-2,1.274174722E-2
4.790103708E0,-5.934601650E-4,-3.247447312E-4,-1.197985373E-2,1.199893952E-2
4.800060708E0,-1.665554009E-4,1.300582662E-3,-9.229075164E-3,9.321753287E-3
4.810017708E0,-2.096683020E-4,1.582135446E-3,-1.053824089E-2,1.065840675E-2
4.819974708E0,-1.720213331E-3,-3.933971748E-4,-7.470013574E-3,7.675610597E-3
4.829931708E0,1.346023055E-4,-7.929047570E-4,-1.141529158E-2,1.144358762E-2
4.839888708E0,2.650971292E-4,-8.754627779E-4,-1.206057519E-2,1.209521333E-2
4.849844708E0,-4.163137637E-4,-1.319406554E-3,-1.089962199E-2,1.098707925E-2
4.859801708E0,-1.472523436E-3,1.027370803E-3,-1.156887412E-2,1.170737650E-2
4.869758708E0,-8.517201059E-5,2.130771987E-3,-8.489970118E-3,8.753687002E-3
4.879715708E0,-8.273951244E-4,-1.052238047E-3,-1.205274649E-2,1.212684978E-2
4.889672708E0,7.812069962E-4,4.247017205E-4,-1.241144910E-2,1.244326022E-2
4.899629708E0,-3.639521310E-4,-7.598726079E-4,-1.052486710E-2,1.055853660E-2
4.909586708E0,2.184494399E-3,-1.335330307E-5,-1.200430281E-2,1.220145402E-2
4.919543708E0,-7.204816211E-4,-1.473298296E-3,-9.321700782E-3,9.464872271E-3
4.929500708E0,-4.751503002E-4,-2.625715919E-3,-7.922209799E-3,8.359519125E-3
4.939457708E0,2.228757134E-3,-7.982552052E-4,-9.281754494E-3,9.578911014E-3
4.949414708E0,-2.230366226E-4,-2.740910277E-4,-1.074125059E-2,1.074706171E-2
4.959371708E0,-6.384898443E-4,6.260573864E-4,-1.072766818E-2,1.076487258E-2
4.969328708E0,-1.168826479E-3,1.910154708E-3,-1.282754913E-2,1.302155379E-2
4.979285708E0,6.724830018E-4,1.695118845E-4,-1.276416704E-2,1.278299370E-2
4.989241708E0,-1.306184102E-3,-5.557928234E-4,-9.222483262E-3,9.331088902E-3
4.999198708E0,-5.652927794E-4,1.113477163E-3,-5.657309666E-3,5.793491174E-3
5.009155708E0,-1.287161489E-3,2.992466092E-3,-7.995644584E-3,8.633769184E-3
5.019112708E0,-1.483170199E-3,1.230518334E-3,-1.024947688E-2,1.042908172E-2
5.029069708E0,1.931952429E-3,-3.641853109E-4,-1.008037850E-2,1.027030194E-2
5.039026708E0,-5.586356856E-4,3.679180518E-4,-1.090169698E-2,1.092219916E-2
5.048983708E0,1.377992914E-3,3.861729056E-4,-1.137344912E-2,1.146312954E-2
5.058940708E0,-5.878240336E-5,-9.992038831E-4,-9.440260008E-3,9.493175064E-3
5.068897708E0,-1.687160926E-3,-6.324155256E-4,-8.082184941E-3,8.280590245E-3
5.078854708E0,-2.718070755E-3,1.017413102E-3,-8.561819792E-3,9.040342703E-3
5.088811708E0,2.102473751E-3,1.559211873E-3,-8.513085544E-3,8.906411343E-3
5.098768458E0,-1.613434753E-3,7.849372923E-5,-1.113203727E-2,1.124862599E-2
5.108725458E0,1.059810515E-3,9.914617985E-4,-1.085237041E-2,1.094897887E-2
5.118682458E0,1.180185354E-3,-1.768665388E-4,-1.152348705E-2,1.158511428E-2
5.128638458E0,-1.296726638E-3,3.045188263E-3,-1.325251721E-2,1.365957115E-2
5.138595458E0,-2.429138403E-4,2.885398455E-3,-9.341131896E-3,9.779635805E-3
5.148552458E0,4.159314558E-4,2.049875446E-3,-1.089834236E-2,1.109724535E-2
5.158509458E0,6.902370369E-4,7.217573002E-4,-8.976871148E-3,9.032252010E-3
5.168466458E0,-6.601969944E-4,1.456383616E-3,-8.526491001E-3,8.675134702E-3
5.178423458E0,1.245028339E-3,-1.203048974E-3,-9.324640036E-3,9.484004122E-3
5.188380458E0,6.754987407E-4,1.542928629E-3,-1.205363683E-2,1.217074723E-2
5.198337458E0,1.471783849E-3,-8.941292763E-4,-1.186694950E-2,1.199125120E-2
5.208294458E0,-8.365057874E-4,-1.311903819E-3,-1.287842356E-2,1.297207103E-2
5.218251458E0,1.339829527E-3,-2.106324770E-3,-1.074523292E-2,1.103139963E-2
5.228208458E0,1.939239562E-3,-1.469112001E-3,-8.564639837E-3,8.903482222E-3
5.238165458E0,1.019117422E-3,1.782341860E-3,-6.810948253E-3,7.113674081E-3
5.248122458E0,1.093904255E-3,-2.648932859E-4,-6.028484553E-3,6.132652035E-3
5.258079458E0,9.812525241E-4,-1.584489830E-3,-8.634120226E-3,8.832977789E-3
5.268035458E0,3.571311245E-4,2.332024276E-3,-9.236576036E-3,9.533111597E-3
5.277992458E0,1.648231642E-3,8.305339143E-4,-9.774535894E-3,9.947261235E-3
5.287949458E0,1.351138810E-3,-1.993471757E-3,-9.474551305E-3,9.775818542E-3
5.297906458E0,-1.338920207E-3,9.983228520E-4,-7.379708812E-3,7.566337158E-3
5.307863458E0,-2.272748388E-3,-1.113629900E-3,-8.006170392E-3,8.396685128E-3
5.317820458E0,5.328917177E-4,-2.955472097E-3,-9.397672489E-3,9.865852072E-3
5.327777458E0,-5.689817481E-4,-1.018689014E-3,-8.935729042E-3,9.011588153E-3
5.337734458E0,1.916170586E-4,-1.755585894E-3,-1.406417787E-2,1.417462162E-2
5.347691458E0,-4.908908159E-3,8.281916380E-4,-1.066583209E-2,1.177043987E-2
5.357648458E0,7.641575066E-4,1.771749929E-3,-1.415883377E-2,1.428970288E-2
5.367605458E0,-6.647392875E-4,-5.404520780E-4,-1.287921518E-2,1.290767796E-2
5.377562458E0,1.350208418E-3,1.428462565E-5,-9.676497430E-3,9.770254312E-3
5.387519458E0,1.944508520E-3,-8.681230247E-4,-7.081538439E-3,7.394791250E-3
5.397476458E0,-4.166502040E-4,2.293661237E-4,-7.602985948E-3,7.617847566E-3
5.407432458E0,-5.632975372E-4,-1.161499880E-3,-1.154576987E-2,1.161771010E-2
5.417389458E0,8.614936378E-4,5.277432501E-4,-1.440653577E-2,1.444191667E-2
5.427346458E0,-6.720012752E-4,7.522292435E-4,-1.220968738E-2,1.225128159E-2
5.437303458E0,-1.452041208E-3,1.203102991E-3,-1.270690002E-2,1.284605731E-2
5.447260458E0,-1.367028570E-3,-4.786970094E-4,-6.764378399E-3,6.917711548E-3
5.457217458E0,-3.065577475E-4,-3.801602870E-4,-7.769456133E-3,7.784789535E-3
5.467174458E0,7.054922753E-4,-8.971178904E-4,-9.329274297E-3,9.398824329E-3
5.477131458E0,2.640012419E-3,-1.849464141E-3,-1.158790104E-2,1.202786904E-2
5.487088458E0,-1.117354725E-3,-1.240894198E-5,-1.144057512E-2,1.149501608E-2
5.497045458E0,-3.146780655E-4,3.950549290E-4,-1.203179732E-2,1.204239334E-2
5.507002458E0,1.071471488E-3,-1.376671717E-4,-9.314466268E-3,9.376901687E-3
5.516959458E0,-1.303535653E-3,-1.233557239E-3,-7.771432400E-3,7.975965785E-3
5.526916458E0,2.075355034E-3,-1.232782379E-4,-6.460981444E-3,6.787236349E-3
5.536873458E0,5.192699609E-4,4.197396338E-4,-6.887353957E-3,6.919643573E-3
5.546830458E0,-7.714356761E-4,1.374260522E-3,-8.961681277E-3,9.099199761E-3
5.556786458E0,6.166039384E-4,-4.398850724E-4,-1.290156320E-2,1.292377778E-2
5.566743458E0,2.273445483E-3,-1.535383984E-3,-1.689363271E-2,1.711492870E-2
5.576700458E0,-2.315238817E-4,5.338927731E-4,-1.396096125E-2,1.397308427E-2
5.586657458E0,3.651929786E-3,-2.512538806E-3,-9.917778894E-3,1.086332272E-2
5.596614458E0,-2.437920775E-3,7.314570248E-4,-7.767543197E-3,8.173935062E-3
5.606571458E0,1.126745832E-3,2.835704945E-3,-7.734589279E-3,8.314724891E-3
5.616528458E0,3.724673297E-5,-6.999075413E-4,-1.102652214E-2,1.104877588E-2
5.626485458E0,-4.036994651E-4,-4.651369527E-4,-1.035507582E-2,1.037337558E-2
5.636442458E0,-4.060964566E-4,1.977235079E-4,-1.161208749E-2,1.162086850E-2
5.646399458E0,6.780536496E-4,-2.307838760E-3,-1.161231287E-2,1.185882316E-2
5.656356458E0,6.338451640E-4,1.280505210E-3,-1.170339249E-2,1.179028622E-2
5.666313458E0,6.335451035E-4,-1.076787710E-3,-1.100726426E-2,1.107793833E-2
5.676270458E0,3.357692622E-3,-1.416873187E-3,-1.055186242E-2,1.116348646E-2
5.686227458E0,-7.764832117E-5,-3.329757601E-5,-1.028414443E-2,1.028449146E-2
5.696184458E0,-2.093128860E-3,1.211464405E-3,-1.072809286E-2,1.099730926E-2
5.706140458E0,5.031692563E-4,-1.772112213E-3,-1.053327695E-2,1.069315128E-2
5.716097458E0,9.311392205E-4,-6.155008450E-4,-1.072795317E-2,1.078586300E-2
5.726054458E0,-1.698018517E-3,1.399815083E-4,-1.038823836E-2,1.052702987E-2
5.736011458E0,5.061307456E-5,1.793005504E-3,-8.954126388E-3,9.132021123E-3
5.745968458E0,2.571125515E-4,1.879355870E-3,-8.229635656E-3,8.445412268E-3
5.755925458E0,6.515267305E-4,-7.952572778E-4,-1.063500158E-2,1.068457673E-2
5.765882458E0,-1.863168087E-3,9.961491451E-4,-9.543785825E-3,9.774843033E-3
5.775839458E0,-1.417008461E-4,-1.760222949E-3,-1.125060581E-2,1.138835348E-2
5.785796458E0,-2.522309544E-3,-2.768309787E-4,-8.559061214E-3,8.927273363E-3
5.795753458E0,4.953182070E-4,1.205484383E-3,-9.890642017E-3,9.976138142E-3
5.805710458E0,1.370046055E-3,8.319038898E-5,-1.042452827E-2,1.051450125E-2
5.815667458E0,-2.608738141E-4,2.807974815E-4,-9.893227369E-3,9.900648976E-3
5.825624458E0,-6.212262670E-4,7.926393300E-5,-9.865574539E-3,9.885432000E-3
5.835581458E0,-3.138975007E-4,4.587648436E-4,-1.009993255E-2,1.011521796E-2
5.845537458E0,-3.993361024E-4,5.737869069E-4,-9.878125042E-3,9.902830660E-3
5.855494458E0,-7.410197286E-4,1.416144893E-3,-9.842172265E-3,9.971104828E-3
5.865451458E0,-1.787550515E-3,7.882555947E-4,-1.105119847E-2,1.122255191E-2
5.875408458E0,5.216116551E-5,1.730658114E-4,-6.849795580E-3,6.852180095E-3
5.885365458E0,-7.747709751E-4,9.969538078E-4,-6.730997935E-3,6.848395444E-3
5.895322458E0,-3.088258905E-3,-1.688577235E-3,-7.975758985E-3,8.717876320E-3
5.905279458E0,-1.602697652E-3,-7.331250235E-4,-9.625425562E-3,9.785444769E-3
5.915236458E0,1.514798729E-3,-8.929148316E-4,-1.059694588E-2,1.074184221E-2
5.925193458E0,-6.922333268E-4,2.033407800E-3,-9.950553998E-3,1.017975732E-2
5.935150458E0,-6.197952898E-4,1.652007923E-4,-1.040728763E-2,1.042703569E-2
5.945107458E0,-9.144672658E-4,2.781515941E-4,-8.565880358E-3,8.619044321E-3
5.955064458E0,4.312518984E-3,-1.549310051E-3,-8.555760607E-3,9.705628325E-3
5.965021458E0,-4.732887028E-4,7.758755237E-5,-1.025437377E-2,1.026558345E-2
5.974978458E0,1.512224553E-4,6.906474009E-4,-1.271113940E-2,1.273078657E-2
5.984934458E0,-4.779807059E-4,9.645810351E-4,-9.387485683E-3,9.449008920E-3
5.994891458E0,-4.183257697E-4,-7.808553055E-4,-8.728353307E-3,8.773191147E-3
6.004848458E0,1.333948341E-3,-7.440084592E-4,-1.038092189E-2,1.049268821E-2
6.014805458E0,-2.642417327E-3,3.063427284E-4,-7.102303207E-3,7.584123287E-3
6.024762458E0,3.475300036E-5,3.178650513E-4,-8.548004553E-3,8.553983154E-3
6.034719458E0,6.973474519E-4,-2.728234977E-4,-9.926456958E-3,9.954660912E-3
6.044676458E0,-6.288026925E-4,2.001554705E-3,-1.116300747E-2,1.135844839E-2
6.054633458E0,-1.630157931E-4,-1.630729996E-3,-1.221895032E-2,1.232836572E-2
6.064590458E0,-6.040935405E-4,4.636142403E-4,-1.220769808E-2,1.223142508E-2
6.074547458E0,1.656663837E-3,-9.281532839E-4,-1.130488701E-2,1.146326629E-2
6.084504458E0,-2.938457765E-3,4.050163552E-4,-7.165594026E-3,7.755276271E-3
6.094460958E0,1.266939682E-3,-1.604072750E-3,-7.284637541E-3,7.565985041E-3
6.104417958E0,6.886246847E-4,-1.524277031E-4,-9.273959324E-3,9.300739739E-3
6.114374958E0,8.012764156E-4,-3.342362121E-3,-1.077731512E-2,1.131211518E-2
6.124330958E0,-4.569161683E-5,-2.041839994E-3,-9.172353894E-3,9.396982188E-3
6.134287958E0,-2.402056474E-3,-1.217325218E-3,-8.726540953E-3,9.132593990E-3
6.144244958E0,-1.261264086E-3,1.110052690E-4,-1.136922650E-2,1.143951137E-2
6.154201958E0,-1.490477007E-5,6.670728326E-4,-8.925776929E-3,8.950681655E-3
6.164158958E0,2.025828697E-3,1.846663654E-4,-6.091210991E-3,6.421910535E-3
6.174115958E0,1.093189698E-3,2.890620381E-4,-7.382046431E-3,7.468147701E-3
6.184072958E0,-1.270969864E-3,-8.332952857E-4,-6.974522024E-3,7.138186247E-3
6.194029958E0,1.460980857E-4,1.759026200E-3,-9.747404605E-3,9.905928243E-3
6.203986958E0,8.122525760E-4,-3.524627537E-4,-1.161376573E-2,1.164746920E-2
6.213943958E0,-1.769149443E-3,2.412697300E-3,-9.890966117E-3,1.033354773E-2
6.223900958E0,7.826870424E-4,4.042033106E-4,-9.588059038E-3,9.628439927E-3
6.233857958E0,3.978603054E-4,-8.520102128E-4,-8.626123890E-3,8.677224648E-3
6.243814958E0,2.943111118E-3,2.634432167E-5,-5.451586097E-3,6.195352133E-3
6.253771958E0,-8.391102310E-4,-8.945763111E-4,-6.006589159E-3,6.130537178E-3
6.263728958E0,2.037515398E-3,-3.460580483E-4,-8.629970253E-3,8.873985110E-3
6.273684958E0,1.040960546E-3,9.887181222E-4,-8.260322735E-3,8.384157326E-3
6.283641958E0,-3.068655496E-4,-4.853727296E-4,-1.220810600E-2,1.222160403E-2
6.293598958E0,-7.191229379E-4,1.563663594E-3,-9.469045326E-3,9.624188331E-3
6.303555958E0,1.318011433E-3,8.436283097E-4,-1.000614837E-2,1.012777705E-2
6.313512958E0,1.440250548E-3,-2.719694749E-4,-6.671337411E-3,6.830448879E-3
6.323469958E0,-3.555525327E-4,1.344336197E-4,-4.589514807E-3,4.605229219E-3
6.333426958E0,-3.385083983E-4,-2.458953299E-3,-6.029486656E-3,6.520410156E-3
6.343383958E0,-3.136529122E-4,-1.707459800E-3,-9.117055684E-3,9.280867495E-3
6.353340958E0,1.895705471E-3,5.940441042E-4,-1.238395460E-2,1.254228524E-2
6.363297958E0,-2.082656138E-4,1.687591895E-3,-9.514212608E-3,9.664966763E-3
6.373254958E0,-7.510179421E-4,2.281796187E-4,-1.278643869E-2,1.281050773E-2
6.383211958E0,9.817872196E-4,-5.852337927E-5,-1.040319540E-2,1.044958399E-2
6.393168958E0,-1.470185118E-3,4.241056740E-5,-8.489981294E-3,8.616439247E-3
6.403125958E0,1.134724822E-3,-8.760616183E-4,-6.148453802E-3,6.313364280E-3
6.413081958E0,-1.814092975E-4,-6.544869393E-4,-6.750328466E-3,6.784408367E-3
6.423038958E0,-2.368257847E-3,-6.911372766E-4,-7.704159245E-3,8.089523202E-3
6.432995958E0,-1.857975731E-4,-7.062032819E-5,-1.162539609E-2,1.162709517E-2
6.442952958E0,-1.158138039E-4,1.383895054E-3,-1.079148054E-2,1.088047015E-2
6.452909958E0,9.001821745E-4,-1.354632899E-3,-1.123196818E-2,1.134911747E-2
6.462866958E0,2.681777813E-3,-7.839649916E-4,-6.995802745E-3,7.533112862E-3
6.472823958E0,-6.881861482E-4,-1.995703205E-3,-7.869852707E-3,8.148068058E-3
6.482780958E0,-6.327079609E-4,-6.512273103E-5,-8.766351268E-3,8.789395593E-3
6.492737958E0,2.011810895E-3,-1.584189944E-3,-7.774589583E-3,8.185431207E-3
6.502694958E0,2.133075614E-3,-2.553594299E-3,-1.087854616E-2,1.137601081E-2
6.512651958E0,1.000368502E-5,-2.077421173E-3,-8.847618476E-3,9.088241386E-3
6.522608958E0,-1.091670594E-3,2.572564408E-4,-5.587724969E-3,5.699175018E-3
6.532565958E0,-3.012443194E-4,-4.711179063E-4,-3.426302224E-3,3.471634652E-3
6.542522958E0,-2.934071235E-4,5.709696561E-4,-8.045207709E-3,8.070778226E-3
6.552479958E0,-9.000750724E-4,2.702564001E-3,-8.249472827E-3,8.727415954E-3
6.562435958E0,-9.840591811E-4,9.999452159E-4,-1.113861986E-2,1.122662528E-2
6.572392958E0,-2.724434948E-3,3.095054068E-3,-1.065392420E-2,1.142401008E-2
6.582349958E0,1.436671009E-4,-1.088522375E-3,-9.583259001E-3,9.645951186E-3
6.592306958E0,-3.832432441E-3,9.264247492E-4,-4.971994087E-3,6.345591102E-3
6.602263958E0,-1.953426283E-3,1.125254668E-3,-6.867118180E-3,7.227681814E-3
6.612220958E0,-1.275631366E-4,3.329645842E-4,-6.677767262E-3,6.687279968E-3
6.622177958E0,3.401224967E-4,-8.330689743E-4,-8.850619197E-3,8.896243443E-3
6.632134958E0,1.775832614E-3,8.013127372E-4,-1.074971817E-2,1.092483979E-2
6.642091958E0,1.847289968E-3,-6.793318316E-4,-1.078508422E-2,1.096321183E-2
6.652048958E0,-9.894813411E-5,1.486350782E-3,-9.199438617E-3,9.319265005E-3
6.662005958E0,-8.575504180E-4,-3.483528271E-4,-7.912008092E-3,7.965966009E-3
6.671962958E0,1.680175774E-3,-2.641335130E-3,-7.549019530E-3,8.172352034E-3
6.681919958E0,1.568427193E-3,1.777736470E-4,-7.123466581E-3,7.296255441E-3
6.691876958E0,3.108266974E-3,-1.581776887E-3,-9.736027569E-3,1.034183613E-2
6.701832958E0,1.238875324E-3,-1.736409962E-3,-9.487599134E-3,9.724426408E-3
6.711789958E0,-3.076222492E-4,4.498288035E-6,-7.042018697E-3,7.048735986E-3
6.721746958E0,-1.183525892E-3,1.734832302E-3,-5.629235879E-3,6.008217142E-3
6.731703958E0,-1.901514130E-3,-7.075527683E-4,-6.075048819E-3,6.404889153E-3
6.741660958E0,8.717485471E-4,-1.436972059E-3,-5.642155185E-3,5.887168196E-3
6.751617958E0,9.300717502E-4,5.306676030E-5,-7.395580411E-3,7.454023018E-3
6.761574958E0,4.576855572E-4,-1.935304143E-3,-9.567989036E-3,9.772476267E-3
6.771531958E0,-4.328755895E-4,-2.814810723E-4,-8.567439392E-3,8.582984948E-3
6.781488958E0,-5.680467002E-4,9.787604213E-4,-7.091749460E-3,7.181473346E-3
6.791445958E0,-2.165677026E-3,-1.320612617E-3,-7.568987086E-3,7.982715088E-3
6.801402958E0,-3.053905675E-4,1.217852347E-3,-7.214078680E-3,7.322524082E-3
6.811359958E0,-6.598574109E-4,2.556517720E-4,-7.362416014E-3,7.396346341E-3
6.821316958E0,-8.725957014E-4,1.645945013E-3,-1.156141050E-2,1.171054102E-2
6.831273958E0,-1.589785097E-3,8.802860975E-4,-1.161414199E-2,1.175545041E-2
6.841230958E0,3.729115706E-4,6.600636989E-4,-6.261318922E-3,6.307048578E-3
6.851186958E0,-1.922467025E-3,-1.635048538E-3,-7.865607738E-3,8.260571910E-3
6.861143958E0,-1.484482083E-3,-2.245977521E-5,-7.067359984E-3,7.221618146E-3
6.871100958E0,-1.825366635E-3,9.365445003E-4,-8.631434292E-3,8.871907173E-3
6.881057958E0,-8.642899338E-4,3.181528300E-4,-8.818633854E-3,8.866595816E-3
6.891014958E0,-6.821297575E-4,-1.430212520E-3,-8.890539408E-3,9.030642271E-3
6.900971958E0,1.113137463E-3,-2.137998119E-3,-9.884543717E-3,1.017419852E-2
6.910928958E0,-1.731917495E-3,9.283646941E-4,-6.450662389E-3,6.743325921E-3
6.920885958E0,8.809683495E-4,1.956195571E-3,-3.380686045E-3,4.003978581E-3
6.930842958E0,1.059884671E-4,8.981209248E-4,-4.025436938E-3,4.125772327E-3
6.940799958E0,-7.867137901E-4,-5.932822824E-4,-5.868256092E-3,5.950406038E-3
6.950756958E0,-1.105371630E-4,7.255151868E-4,-8.288802579E-3,8.321228211E-3
6.960713958E0,1.526101260E-3,9.416136891E-5,-1.057466865E-2,1.068463703E-2
6.970670958E0,1.388682052E-3,-1.709331758E-3,-7.818562910E-3,8.122818407E-3
6.980627958E0,3.146346426E-4,-4.307255149E-4,-5.340004340E-3,5.366578591E-3
6.990584958E0,-1.329601044E-3,-1.679748297E-3,-4.462759942E-3,4.950315099E-3
7.000540958E0,-8.950100746E-4,-7.523670793E-4,-3.889387473E-3,4.061334039E-3
7.010497958E0,1.534059062E-3,1.044468023E-3,-6.590366364E-3,6.846691132E-3
7.020454958E0,-3.232790623E-3,9.785015136E-4,-7.357215509E-3,8.095493837E-3
7.030411958E0,9.837923571E-4,5.571888760E-4,-1.200283319E-2,1.205596580E-2
7.040368958E0,1.186587964E-3,-4.523694515E-4,-1.038358547E-2,1.046095007E-2
7.050325958E0,6.046873168E-4,-4.086941481E-4,-8.676765487E-3,8.707407017E-3
7.060282958E0,2.066466259E-4,9.058983997E-4,-6.976187229E-3,7.037793901E-3
7.070239958E0,-4.474257585E-4,-1.122098416E-3,-4.807041958E-3,4.956505528E-3
7.080196958E0,1.408368465E-3,1.573171467E-4,-5.209619179E-3,5.398924190E-3
7.090153958E0,-7.104425458E-4,1.965870149E-3,-1.126937568E-2,1.146159685E-2
7.100111625E0,-1.756900223E-3,2.291798592E-5,-1.003232040E-2,1.018502215E-2
7.110068625E0,-7.986947894E-4,-6.830859929E-4,-9.346291423E-3,9.405194480E-3
7.120025625E0,-1.946743345E-3,1.321985386E-3,-8.377250284E-3,8.701481330E-3
7.129982625E0,4.522607662E-3,1.253542490E-3,-3.737490624E-3,5.999515397E-3
7.139938625E0,1.620055060E-3,-2.641407773E-4,-5.892857909E-3,6.117198957E-3
7.149895625E0,-2.204244258E-3,-1.886271872E-3,-3.875514492E-3,4.841108024E-3
7.159852625E0,1.416499494E-3,8.377302438E-4,-5.559153855E-3,5.797624889E-3
7.169809625E0,3.176792525E-4,-1.772434451E-3,-6.246250123E-3,6.500621861E-3
7.179766625E0,-1.782407053E-4,-2.159867436E-4,-8.771071211E-3,8.775540451E-3
7.189723625E0,-3.168171505E-3,-7.369015366E-4,-1.007681899E-2,1.058879670E-2
7.199680625E0,-2.169715008E-4,-1.402314752E-3,-6.766630337E-3,6.913815836E-3
7.209637625E0,2.194254659E-3,-9.786058217E-4,-7.795410231E-3,8.157257108E-3
7.219594625E0,-1.509370049E-3,-7.776413113E-4,-4.525188357E-3,4.833244626E-3
7.229551625E0,-1.514962874E-3,-1.920935698E-3,-5.316680297E-3,5.852537556E-3
7.239508625E0,-1.057045534E-3,1.312238164E-3,-6.920119748E-3,7.122315044E-3
7.249465625E0,-6.280103698E-4,2.256062813E-3,-5.374953151E-3,5.862963228E-3
7.259422625E0,9.424703312E-4,-1.331610605E-3,-7.867371663E-3,8.034735467E-3
7.269379625E0,-4.761954769E-4,-2.117243595E-3,-3.641201183E-3,4.238847559E-3
7.279336625E0,-3.173645819E-4,3.008106723E-4,-5.094967782E-3,5.113697688E-3
7.289292625E0,5.297869211E-4,3.965586424E-3,-6.291260943E-3,7.455636399E-3
7.299249625E0,-9.135445580E-4,-5.340352654E-4,-4.907308146E-3,5.020102645E-3
7.309206625E0,7.541268133E-4,-4.940871149E-4,-8.625347167E-3,8.672337810E-3
7.319163625E0,8.613152895E-4,1.845858991E-3,-7.308600470E-3,7.587140455E-3
7.329120625E0,-2.365637105E-3,-7.382063195E-4,-8.749105036E-3,9.093295685E-3
7.339077625E0,-1.772510470E-3,-2.577418461E-3,-6.165694445E-3,6.913802665E-3
7.349034625E0,4.064879613E-4,5.368823186E-4,-5.992321298E-3,6.030040598E-3
7.358991625E0,2.051460557E-3,-2.822751179E-3,-6.213495508E-3,7.126285222E-3
7.368948625E0,1.894600457E-3,-4.482762888E-4,-5.764486268E-3,6.084386942E-3
7.378905625E0,-1.588186016E-3,2.186677419E-3,-1.008945704E-2,1.044514415E-2
7.388862625E0,3.934721462E-4,5.981018767E-4,-9.733660147E-3,9.759953178E-3
7.398819625E0,-6.318327505E-4,1.236422919E-3,-8.084189147E-3,8.202564746E-3
7.408776625E0,8.163942839E-4,-6.959671155E-4,-3.664938733E-3,3.818723055E-3
7.418733625E0,8.876186330E-4,2.098875120E-4,-2.263426781E-3,2.440291048E-3
7.428689625E0,-7.406380028E-4,-7.762815803E-4,-2.284733579E-3,2.524116730E-3
7.438646625E0,1.692265621E-3,-1.057536341E-3,-6.525576115E-3,6.823876440E-3
7.448603625E0,-1.640946837E-3,7.717898116E-4,-8.612696081E-3,8.801528267E-3
7.458560625E0,2.250511898E-4,-9.309882298E-4,-1.096232235E-2,1.100408554E-2
7.468517625E0,1.063946984E-3,1.633046195E-4,-1.004566438E-2,1.010316903E-2
7.478474625E0,1.075216453E-3,-6.753206253E-5,-4.547825083E-3,4.673688478E-3
7.488431625E0,-2.212102991E-4,-9.658159688E-4,-3.998415545E-3,4.119352055E-3
7.498388625E0,2.002047841E-3,-2.719412558E-3,-2.776037902E-3,4.371474196E-3
7.508345625E0,1.980742440E-3,-1.346819103E-3,-6.123632193E-3,6.575418887E-3
7.518302625E0,1.558083808E-3,9.859371930E-4,-7.965557277E-3,8.176172701E-3
7.528259625E0,-1.415601932E-3,6.365310401E-4,-7.994851097E-3,8.144123321E-3
7.538216625E0,-6.398919504E-4,-3.999378532E-5,-9.540786967E-3,9.562305013E-3
7.548173625E0,-5.482791457E-4,1.738583669E-4,-6.017956883E-3,6.045381857E-3
7.558130625E0,-3.296817886E-4,1.466717571E-3,-4.571083933E-3,4.811939197E-3
7.568087625E0,5.347802071E-4,1.814765856E-4,-4.213156179E-3,4.250836224E-3
7.578043625E0,8.702573832E-4,-2.138232812E-4,-6.037930027E-3,6.104069734E-3
7.588000625E0,2.074006246E-3,-1.204518601E-3,-6.795067340E-3,7.205921671E-3
7.597957625E0,3.547503147E-4,-8.944859728E-4,-1.006299071E-2,1.010889386E-2
7.607914625E0,2.398992889E-3,2.746414393E-4,-6.199544296E-3,6.653190533E-3
7.617871625E0,-2.159284195E-3,2.706581727E-4,-6.886431947E-3,7.222098659E-3
7.627828625E0,-1.376786968E-4,1.670615748E-4,-3.310339525E-3,3.317410551E-3
7.637785625E0,2.629648661E-4,1.072278246E-3,-1.840218902E-4,1.119283349E-3
7.647742625E0,9.005255997E-4,-2.098747529E-3,-5.636844784E-3,6.081916365E-3
7.657699625E0,-8.635014528E-4,4.259757698E-4,-9.062169120E-3,9.113177232E-3
7.667656625E0,1.500054030E-3,-8.222479373E-4,-1.251788437E-2,1.263422665E-2
7.677613625E0,1.012458233E-3,1.627443358E-3,-1.252859458E-2,1.267435702E-2
7.687570625E0,-6.325764116E-4,-2.681948245E-4,-6.637150422E-3,6.672619208E-3
7.697527625E0,-1.370804268E-3,2.229838632E-3,-6.700363010E-4,2.701894393E-3
7.707484625E0,-1.521416707E-4,1.650600694E-3,-3.027997911E-3,3.452014063E-3
7.717440625E0,-2.980257850E-4,1.158601604E-3,-6.503459066E-3,6.612575661E-3
7.727397625E0,1.008787425E-3,3.221025690E-4,-8.979400620E-3,9.041628041E-3
7.737354625E0,2.216048073E-3,2.059601247E-4,-1.061161049E-2,1.084248891E-2
7.747311625E0,1.037599519E-3,1.839010045E-3,-7.871484384E-3,8.149775280E-3
7.757268625E0,1.672256738E-3,1.690242440E-3,-5.124425516E-3,5.649167989E-3
7.767225625E0,-9.767895099E-4,8.063390851E-4,-5.147594959E-3,5.301135192E-3
7.777182625E0,2.695181873E-3,-8.050985634E-4,-3.037048504E-3,4.139547395E-3
7.787139625E0,2.013678895E-3,-4.018954933E-4,-8.624892682E-3,8.865957165E-3
7.797096625E0,7.262127474E-5,1.854264177E-3,-8.694153279E-3,8.889987105E-3
7.807053625E0,-9.657451883E-4,-1.553576440E-4,-1.058047079E-2,1.062558995E-2
7.817010625E0,1.145381597E-3,-2.541970462E-4,-9.143983945E-3,9.218945576E-3
7.826967625E0,-3.579728073E-4,-1.520263962E-3,-4.720738158E-3,4.972395378E-3
7.836924625E0,8.640540764E-4,-3.536846489E-4,-7.026271895E-3,7.088030687E-3
7.846881625E0,1.501082210E-3,-4.076305777E-5,-8.267836645E-3,8.403096585E-3
7.856838625E0,4.627844319E-4,-7.758485153E-4,-6.739366800E-3,6.799645227E-3
7.866794625E0,-3.438870190E-4,-4.330649972E-6,-8.954850957E-3,8.961452600E-3
7.876751625E0,2.976614051E-4,-1.629069448E-4,-6.274152547E-3,6.283321667E-3
7.886708625E0,-1.305295154E-3,-9.538661689E-4,-5.562823266E-3,5.792983583E-3
7.896665625E0,2.298057079E-4,-2.600252628E-5,-6.686642766E-3,6.690641096E-3
7.906622625E0,-1.037060050E-3,-7.186904550E-4,-4.393927753E-3,4.571499821E-3
7.916579625E0,-4.265892785E-4,1.635949127E-3,-4.854749888E-3,5.140710499E-3
7.926536625E0,1.928620040E-4,1.023155637E-3,-8.499551564E-3,8.563084725E-3
7.936493625E0,-7.135793567E-6,-5.628140643E-4,-8.708037436E-3,8.726209176E-3
7.946450625E0,5.465353606E-4,-1.047505066E-4,-5.923967808E-3,5.950047745E-3
7.956407625E0,-1.025813050E-3,1.045074314E-4,-7.090833038E-3,7.165411879E-3
7.966364625E0,-8.079664549E-4,-1.566093415E-3,-5.915580317E-3,6.172483201E-3
7.976321625E0,4.565651761E-4,-6.207544357E-4,-6.007220596E-3,6.056441787E-3
7.986278625E0,1.181477564E-3,-1.412246376E-3,-6.652770564E-3,6.902875143E-3
7.996235625E0,5.340448115E-5,-6.014350802E-4,-7.248051465E-3,7.273157927E-3
8.006191625E0,-7.402176270E-4,3.897938877E-4,-6.909828633E-3,6.960286858E-3
8.016148625E0,3.774601500E-4,1.889538951E-3,-5.691953003E-3,6.009256410E-3
8.026105625E0,1.376145519E-3,1.608813182E-4,-4.804586992E-3,5.000371531E-3
8.036062625E0,-2.047930611E-3,3.814073280E-4,-1.731570810E-3,2.708842707E-3
8.046019625E0,-9.672199376E-4,3.120116889E-5,-5.470650271E-3,5.555582985E-3
8.055976625E0,8.420575177E-4,1.881005242E-3,-6.329588592E-3,6.656645802E-3
8.065933625E0,2.056991681E-3,-1.392018981E-3,-9.603945538E-3,9.919914391E-3
8.075890625E0,-2.957231831E-3,7.683066651E-4,-7.761836052E-3,8.341559454E-3
8.085847625E0,-3.835530952E-4,3.774749115E-3,-5.945825949E-3,7.053275131E-3
8.095804250E0,1.600842690E-3,-7.661189884E-4,-5.770485848E-3,6.037229708E-3
8.105761250E0,5.587477935E-4,-7.069967687E-4,-4.111602902E-3,4.209194930E-3
8.115718250E0,9.722232935E-4,1.693092287E-3,-5.214901641E-3,5.568391038E-3
8.125675250E0,-1.772696734E-3,-9.152069688E-4,-4.662828520E-3,5.071688803E-3
8.135632250E0,-2.929113572E-3,4.665991291E-4,-4.605880007E-3,5.478279995E-3
8.145589250E0,3.857228439E-4,-1.250340603E-3,-6.758512929E-3,6.884012692E-3
8.155545250E0,-1.876321854E-3,-2.167198807E-3,-7.416838780E-3,7.951530158E-3
8.165502250E0,-2.171725500E-4,1.400903799E-3,-6.858641282E-3,7.003617323E-3
8.175459250E0,-4.351427779E-4,-9.339889511E-4,-3.863425925E-3,3.998467766E-3
8.185416250E0,-1.839427510E-3,4.479251802E-4,-4.419228062E-3,4.807671702E-3
8.195373250E0,1.014804933E-3,-4.741158336E-4,-6.719077006E-3,6.811799372E-3
8.205330250E0,-1.830782741E-3,1.983182505E-3,-7.514828816E-3,7.984825009E-3
8.215287250E0,1.659881673E-3,-2.199384384E-3,-6.758308038E-3,7.298439996E-3
8.225244250E0,1.904359902E-3,-2.629999071E-4,-6.968697533E-3,7.229004143E-3
8.235201250E0,4.776385613E-4,2.922477201E-3,-6.381526589E-3,7.035118563E-3
8.245158250E0,-3.008033382E-4,-6.165970117E-4,-9.097419679E-3,9.123251577E-3
8.255115250E0,-5.586135667E-4,-1.573910005E-3,-7.550472394E-3,7.732973244E-3
8.265072250E0,4.381550476E-3,-7.991967723E-4,-5.596511066E-3,7.152456652E-3
8.275029250E0,1.887896797E-4,-1.748811454E-3,-4.901062697E-3,5.207148798E-3
8.284986250E0,-2.487687161E-3,1.473346725E-3,-4.274686798E-3,5.160647751E-3
8.294943250E0,5.872189067E-4,-1.066755503E-3,-3.413392231E-3,3.624091592E-3
8.304899250E0,1.984579489E-3,-9.796703234E-4,-5.764165893E-3,6.174456910E-3
8.314856250E0,2.025508322E-3,-1.521441154E-3,-6.730465218E-3,7.191427480E-3
8.324813250E0,-5.076904781E-4,2.405056730E-4,-5.113925785E-3,5.144689450E-3
8.334770250E0,-2.238806337E-4,-5.306405947E-4,-7.855534554E-3,7.876618888E-3
8.344727250E0,-8.752674330E-5,3.460720181E-4,-6.472289562E-3,6.482126113E-3
8.354684250E0,-9.309477173E-5,4.762997851E-4,-4.108257592E-3,4.136823487E-3
8.364641250E0,-1.188186696E-3,5.982732400E-4,-2.807036042E-3,3.106311291E-3
8.374598250E0,-6.647035480E-4,-1.693850383E-3,-4.983155057E-3,5.304978251E-3
8.384555250E0,-2.340703504E-4,1.734970137E-3,-6.291033700E-3,6.530085399E-3
8.394512250E0,2.174845664E-3,-1.001549885E-3,-6.722943857E-3,7.136597925E-3
8.404469250E0,7.668324397E-4,-4.574665800E-4,-8.416181430E-3,8.463416422E-3
8.414426250E0,1.148781274E-3,3.621606156E-4,-6.754195318E-3,6.860758931E-3
8.424383250E0,2.439471427E-5,-1.089794561E-3,-5.664430559E-3,5.768363792E-3
8.434340250E0,2.595467959E-4,2.838810906E-4,-3.114419058E-3,3.138082071E-3
8.444297250E0,-2.744169906E-4,1.592459157E-4,-4.266502336E-3,4.278283082E-3
8.454253250E0,-1.149251591E-3,-4.136888310E-4,-4.977878183E-3,5.125542788E-3
8.464210250E0,-2.056057798E-3,1.421123743E-4,-6.918257102E-3,7.218715324E-3
8.474167250E0,2.009773860E-3,1.982539892E-3,-8.758170530E-3,9.201913194E-3
8.484124250E0,-3.258183133E-4,-1.631686464E-4,-5.986351520E-3,5.997431625E-3
8.494081250E0,1.608708641E-3,3.933098167E-3,-2.626046538E-3,4.995330330E-3
8.504038250E0,-6.565761287E-4,6.776498631E-4,-9.394660592E-4,1.331502169E-3
8.513995250E0,-7.150117308E-4,-1.898839138E-3,-4.029374570E-3,4.511395712E-3
8.523952250E0,7.571837050E-4,-8.426299319E-4,-4.626987502E-3,4.763650460E-3
8.533909250E0,-2.684129868E-4,-3.663329408E-4,-7.667409256E-3,7.680846962E-3
8.543866250E0,-2.392816823E-3,3.761565313E-4,-6.932375953E-3,7.343357708E-3
8.553823250E0,-2.064916771E-4,-7.308842614E-4,-3.128783777E-3,3.219645717E-3
8.563780250E0,3.791373456E-4,3.724638373E-4,-4.715761170E-3,4.745616698E-3
8.573737250E0,1.160857966E-3,-1.128861681E-3,-7.597994059E-3,7.768618515E-3
8.583694250E0,9.406145546E-4,3.310833126E-4,-5.116993561E-3,5.213251865E-3
8.593650250E0,4.339083098E-4,-5.447315052E-4,-6.489615887E-3,6.526876987E-3
8.603607250E0,-1.923521748E-3,-2.285107039E-3,-7.546626031E-3,8.116231549E-3
8.613564250E0,-1.121174544E-3,-1.609660685E-3,-7.577128708E-3,7.826935501E-3
8.623521250E0,1.691270154E-4,-1.144406386E-3,-4.279868677E-3,4.433457547E-3
8.633478250E0,2.131799702E-3,2.599963918E-4,-9.465182200E-3,9.705763348E-3
8.643435250E0,1.607157057E-3,1.783058047E-3,-3.790784627E-3,4.486902929E-3
8.653392250E0,9.843197186E-4,-6.323680282E-7,-6.471810862E-3,6.546237205E-3
8.663349250E0,3.364652861E-3,5.501089618E-4,-4.721313715E-3,5.823599569E-3
8.673306250E0,-3.579142503E-4,2.826284617E-5,-3.919998184E-3,3.936405360E-3
8.683263250E0,-2.266204683E-4,-2.122204751E-4,-7.209535688E-3,7.216217791E-3
8.693220250E0,1.474602497E-3,-7.313247770E-4,-6.305513903E-3,6.516808578E-3
8.703177250E0,4.319748841E-4,3.443257883E-4,-7.428303361E-3,7.448815568E-3
8.713134250E0,3.607316175E-4,-1.472704113E-3,-5.348943174E-3,5.559692238E-3
8.723091250E0,1.503760344E-3,-1.686822623E-3,-6.357481703E-3,6.747165282E-3
8.733048250E0,-2.005724236E-3,-1.825274900E-3,-7.078634575E-3,7.580344690E-3
8.743004250E0,1.420698944E-3,3.577182069E-4,-6.312709302E-3,6.480481968E-3
8.752961250E0,4.854961298E-4,-7.081879303E-4,-3.524934873E-3,3.628002549E-3
8.762918250E0,-2.000564709E-3,1.544580795E-3,-5.409121513E-3,5.970476073E-3
8.772875250E0,2.117427066E-4,5.065510049E-4,-5.309278145E-3,5.337589655E-3
8.782832250E0,-8.085141890E-4,1.278068870E-3,-4.902880639E-3,5.130827788E-3
8.792789250E0,5.149489734E-4,-1.128414646E-3,-3.106310964E-3,3.344795937E-3
8.802746250E0,6.252038293E-4,-1.329749823E-3,-3.415504470E-3,3.718169604E-3
8.812703250E0,1.863936894E-3,2.730532549E-3,-3.370933235E-3,4.721573850E-3
8.822660250E0,-1.935595064E-3,6.292983890E-4,-9.493272752E-3,9.709004699E-3
8.832617250E0,-1.913782675E-3,-1.140201464E-3,-6.191793829E-3,6.580344545E-3
8.842574250E0,1.516102348E-3,-7.377984002E-4,-6.186999381E-3,6.412633947E-3
8.852531250E0,2.933155745E-3,-2.431388944E-3,-5.329076201E-3,6.550886045E-3
8.862488250E0,-7.225654554E-4,3.127325326E-4,-6.227361038E-3,6.276936193E-3
8.872445250E0,2.044328488E-3,2.687624656E-3,-4.957525060E-3,5.998304758E-3
8.882402250E0,4.205991281E-4,-2.546356991E-4,-6.770072505E-3,6.787902820E-3
8.892359250E0,-2.104892395E-3,-1.555874012E-3,-5.029626191E-3,5.669960807E-3
8.902315250E0,-4.494715249E-4,-1.593691297E-3,-5.069307983E-3,5.332894151E-3
8.912272250E0,7.352524553E-4,7.779682055E-4,-7.009472698E-3,7.090736083E-3
8.922229250E0,-1.499139704E-3,9.060660377E-4,-4.900248721E-3,5.203922852E-3
8.932186250E0,1.850409666E-3,-2.995506860E-3,-6.203060970E-3,7.132674300E-3
8.942143250E0,-1.443121582E-3,1.291117631E-3,-3.446955234E-3,3.953616701E-3
8.952100250E0,-5.230770912E-4,-1.172915101E-3,-2.050582319E-3,2.419551059E-3
8.962057250E0,2.007991076E-3,1.453496516E-4,-3.602139652E-3,4.126568157E-3
8.972014250E0,7.525886758E-4,-1.117191277E-3,-4.955077544E-3,5.134909885E-3
8.981971250E0,2.992307302E-3,-1.926259138E-3,-6.960969418E-3,7.817894377E-3
8.991928250E0,9.493063553E-4,-2.371147275E-4,-6.380394101E-3,6.454985270E-3
9.001885250E0,-5.098395050E-4,5.178917199E-4,-3.901256248E-3,3.968368490E-3
9.011842250E0,1.008447609E-3,-1.016743481E-4,-3.434211016E-3,3.580657698E-3
9.021799250E0,7.314549293E-5,-1.371469349E-3,-2.707701176E-3,3.036103440E-3
9.031756250E0,1.649195212E-3,-1.485124230E-3,-5.011197180E-3,5.480651056E-3
9.041712250E0,2.239085501E-3,6.067892537E-4,-6.250366569E-3,6.666991774E-3
9.051669250E0,4.390312824E-4,-9.575048462E-4,-4.435298964E-3,4.558666570E-3
9.061626250E0,-1.598286792E-3,4.731444642E-4,-6.756244227E-3,6.958823350E-3
9.071583250E0,-8.747207467E-4,-1.086422242E-3,-3.844603896E-3,4.089795691E-3
9.081540250E0,-1.448631985E-3,7.383758202E-4,-5.745569244E-3,5.971205860E-3
9.091497250E0,-5.877596559E-4,-6.968071684E-4,-6.292985752E-3,6.358668990E-3
9.101453875E0,-3.089266829E-4,-4.440732300E-4,-4.176039249E-3,4.210931077E-3
9.111410875E0,-2.425154671E-4,1.021444798E-3,-4.228983074E-3,4.357345645E-3
9.121367875E0,-2.367984271E-3,-9.269239381E-4,-5.758969113E-3,6.295416010E-3
9.131324875E0,-2.284704242E-4,-2.812263556E-3,-4.960639402E-3,5.706922842E-3
9.141281875E0,1.005904749E-3,-9.424583986E-4,-3.186441958E-3,3.471812862E-3
9.151238875E0,-1.784527558E-3,-1.296755858E-3,-6.416784599E-3,6.785369478E-3
9.161195875E0,-2.137396485E-3,3.501428291E-4,-5.673229694E-3,6.072610551E-3
9.171152875E0,1.262070145E-4,3.198534250E-3,-5.574926734E-3,6.428557976E-3
9.181109875E0,5.192895187E-4,1.619979739E-4,-6.604503840E-3,6.626867731E-3
9.191065875E0,2.308854600E-4,1.312986948E-3,-3.304669634E-3,3.563437134E-3
9.201022875E0,-3.676232882E-5,4.884731025E-4,-2.437809482E-3,2.486538259E-3
9.210979875E0,3.077934030E-3,-1.766414382E-3,-2.763386816E-3,4.497799946E-3
9.220936875E0,-1.239582663E-3,1.561738551E-3,-4.376463592E-3,4.809264606E-3
9.230893875E0,3.677852219E-4,2.139832824E-3,-5.466891453E-3,5.882265944E-3
9.240850875E0,-1.014395268E-3,-6.927046925E-4,-4.417872056E-3,4.585458653E-3
9.250807875E0,5.960910348E-4,-6.729839370E-4,-5.667768419E-4,1.062764268E-3
9.260764875E0,-1.890236279E-3,-1.896706410E-3,-2.269336954E-3,3.510039687E-3
9.270721875E0,5.388709251E-4,-3.452854231E-3,-3.182038665E-3,4.726304506E-3
9.280678875E0,-8.795285830E-4,5.184514448E-4,-4.384987056E-3,4.502274304E-3
9.290635875E0,1.905847457E-3,-9.330483153E-4,-6.951894611E-3,7.268539907E-3
9.300592875E0,-2.185300458E-3,-9.903060272E-4,-8.812645450E-3,9.133398270E-3
9.310549875E0,1.049626386E-3,1.763121225E-3,-4.549236968E-3,4.990578022E-3
9.320506875E0,-4.167101579E-4,-1.572487876E-3,-3.650421277E-3,3.996491083E-3
9.330463875E0,-1.715112710E-3,-4.647122696E-4,-1.618087292E-3,2.403284333E-3
9.340419875E0,-1.766511705E-3,1.526799984E-3,-2.078015357E-3,3.125672667E-3
9.350376875E0,1.053343760E-3,2.246340737E-4,-3.327865154E-3,3.497810747E-3
9.360333875E0,3.060608869E-4,-2.816328779E-4,-4.390200600E-3,4.409858462E-3
9.370290875E0,-4.096266348E-4,3.405679017E-4,-5.040576681E-3,5.068648119E-3
9.380247875E0,3.760060063E-4,-9.619845077E-4,-4.446160048E-3,4.564551882E-3
9.390204875E0,-2.440799028E-3,1.339296810E-3,-4.514347762E-3,5.303824239E-3
9.400161875E0,4.892107099E-4,-1.326315105E-4,-3.614731133E-3,3.650095807E-3
9.410118875E0,6.920819869E-4,1.382255927E-3,-1.658391207E-3,2.267128210E-3
9.420075875E0,-3.854329698E-4,3.329711035E-4,-3.020597622E-3,3.063239841E-3
9.430032875E0,6.248387508E-4,5.189534277E-4,-5.068700761E-3,5.133367659E-3
9.439989875E0,-9.996895678E-4,1.269166358E-3,-6.105467677E-3,6.315607495E-3
9.449946875E0,2.213688334E-3,-1.372837462E-3,-5.706928670E-3,6.273287303E-3
9.459903875E0,-1.358143287E-3,-1.698872074E-4,-1.937756315E-3,2.372406876E-3
9.469860875E0,1.055587782E-4,-2.748984843E-4,-3.145147115E-3,3.158902057E-3
9.479817875E0,-5.228794180E-6,6.050104275E-4,-1.937670633E-3,2.029934098E-3
9.489773875E0,-2.161124721E-4,-1.500498503E-3,-1.276604831E-3,1.981898144E-3
9.499730875E0,-6.685834378E-4,-9.305821732E-4,-5.244981498E-3,5.368688658E-3
9.509687875E0,1.754030818E-4,-2.159178257E-5,-4.257775843E-3,4.261441960E-3
9.519644875E0,-8.118308615E-4,-4.354463890E-4,-4.259373993E-3,4.357860681E-3
9.529601875E0,1.829207875E-3,-6.629070267E-4,-3.774948418E-3,4.246843856E-3
9.539558875E0,-7.041613571E-6,1.617291942E-3,-3.247642890E-3,3.628066586E-3
9.549515875E0,2.515398199E-3,7.518995553E-4,-3.163205460E-3,4.110772412E-3
9.559472875E0,3.956967033E-3,9.487075731E-4,-3.643641248E-3,5.462028534E-3
9.569429875E0,1.729383483E-3,9.404085577E-4,-4.343744367E-4,2.015891028E-3
9.579386875E0,4.029022995E-3,-3.602793440E-4,-5.471743643E-3,6.804616521E-3
9.589343875E0,-1.206043991E-3,1.535021700E-3,-5.888495594E-3,6.203645226E-3
9.599300875E0,-2.000198700E-3,-5.773976445E-4,-5.728706717E-3,6.095265665E-3
9.609257875E0,1.076858374E-3,1.103013754E-3,-3.815496340E-3,4.115127656E-3
9.619214875E0,2.962858416E-4,6.247097626E-4,-3.220278770E-3,3.293667096E-3
9.629171875E0,1.388932229E-3,5.741016939E-4,-3.317570314E-3,3.642114534E-3
9.639127875E0,1.926403493E-4,4.396121949E-4,-4.737833515E-3,4.762083116E-3
9.649084875E0,2.294734586E-4,-2.615395933E-4,-2.820568159E-3,2.841947531E-3
9.659041875E0,-1.635804540E-3,1.072704792E-3,-3.234956414E-3,3.780409377E-3
9.668998875E0,1.494404743E-3,-7.324274629E-4,-4.606820643E-3,4.898213140E-3
9.678955875E0,2.142351819E-3,-3.166557290E-3,-1.765759662E-3,4.211254394E-3
9.688912875E0,-5.062667187E-4,7.181502879E-4,-3.752252087E-3,3.853756810E-3
9.698869875E0,-1.736647217E-3,2.062514424E-3,-3.437733278E-3,4.368972350E-3
9.708826875E0,-2.986907493E-4,8.851271123E-4,-3.948790953E-3,4.057784636E-3
9.718783875E0,-1.338655129E-3,1.649986953E-3,-5.496088415E-3,5.892490337E-3
9.728740875E0,9.914446855E-4,-3.688875586E-4,-1.760229468E-3,2.053642709E-3
9.738697875E0,-2.033639932E-3,-5.904622376E-4,-1.861963421E-3,2.819795171E-3
9.748654875E0,-1.361465082E-3,-1.617122442E-3,-1.862665638E-3,2.817480335E-3
9.758611875E0,-1.711670775E-3,2.068765461E-4,-3.685066476E-3,4.068455442E-3
9.768568875E0,-8.038197411E-4,2.040192485E-3,-3.778716549E-3,4.368891199E-3
9.778525875E0,-6.972932024E-4,1.351232640E-3,-4.311615601E-3,4.571878886E-3
9.788482875E0,1.548809232E-3,1.022089273E-4,-5.717767403E-3,5.924704277E-3
9.798438875E0,2.105942462E-3,-1.798197627E-4,-2.964058891E-3,3.640463419E-3
9.808395875E0,-5.570651265E-4,5.975887179E-4,-8.493382484E-4,1.178477531E-3
9.818352875E0,2.147108782E-3,3.737722524E-3,-1.715397462E-3,4.639313984E-3
9.828309875E0,1.004755963E-3,5.987752229E-5,-4.480145872E-3,4.591821740E-3
9.838266875E0,1.759802690E-4,2.089206129E-3,-6.315864623E-3,6.654765002E-3
9.848223875E0,1.627767342E-3,4.090378061E-4,-5.716621876E-3,5.957911053E-3
9.858180875E0,4.546447890E-4,2.843965776E-3,-5.597312003E-3,6.294818892E-3
9.868137875E0,-1.248391345E-4,-2.875648439E-3,-2.951107919E-3,4.122375129E-3
9.878094875E0,3.966077929E-4,1.081542112E-3,-3.597192466E-3,3.777145049E-3
9.888051875E0,8.855490596E-4,-7.085017860E-4,-2.503596246E-3,2.748484324E-3
9.898008875E0,-1.132328063E-3,7.828678936E-4,-1.769363880E-3,2.241806754E-3
9.907965875E0,-3.078970127E-3,1.842035912E-3,-4.819221795E-3,6.008165448E-3
9.917922875E0,1.486220281E-3,-8.402997628E-4,-3.082841635E-3,3.524041282E-3
9.927879875E0,-3.100964241E-3,4.702238366E-4,-1.858558506E-3,3.645727554E-3
9.937835875E0,-1.778704929E-3,-1.388129778E-3,-2.061225474E-3,3.056034352E-3
9.947792875E0,1.142028952E-3,2.062749118E-4,-1.909933984E-3,2.234866280E-3
9.957749875E0,3.220359795E-3,9.021591395E-4,-1.825246960E-3,3.810004565E-3
9.967706875E0,-2.016692888E-3,1.094252802E-3,-5.798820406E-3,6.236245465E-3
9.977663875E0,-2.318695188E-3,6.274003536E-4,-5.130367354E-3,5.664860789E-3
9.987620875E0,4.724188475E-4,2.992926165E-4,-3.101702780E-3,3.151716321E-3
9.997577875E0,-1.827188535E-4,-4.841014743E-6,-2.760019153E-3,2.766064956E-3
1.000753488E1,2.154087182E-3,-1.317241229E-3,-9.384304285E-4,2.693671790E-3
1.001749188E1,-2.065389417E-4,-4.517138004E-4,2.038983628E-3,2.098608569E-3
1.002744888E1,1.880189870E-3,-1.213549636E-3,-1.967912540E-3,2.980016179E-3
1.003740588E1,-1.554488903E-3,4.136422649E-4,-4.453174770E-3,4.734796849E-3
1.004736288E1,-7.801742759E-4,-9.991712868E-4,-4.562085494E-3,4.734938143E-3
1.005731988E1,-7.426238153E-4,2.511823550E-4,-4.667013884E-3,4.732399106E-3
1.006727688E1,9.185168892E-6,9.196568280E-4,-4.640744999E-3,4.731000655E-3
1.007723388E1,-1.350891311E-3,3.069359809E-5,-3.381336108E-3,3.641329881E-3
1.008719088E1,-9.400558192E-4,-6.190687418E-4,1.214783639E-3,1.656094906E-3
1.009714688E1,-8.758734912E-4,1.082158647E-3,-6.071358919E-3,6.228934165E-3
1.010710471E1,8.483162383E-4,9.849052876E-4,-2.985073254E-3,3.255816517E-3
1.011706171E1,-8.446553256E-4,7.703434676E-5,-4.502011463E-3,4.581209897E-3
1.012701871E1,1.571319648E-3,-7.536010817E-4,-2.400413156E-3,2.966301290E-3
1.013697571E1,-1.008792315E-4,1.231115311E-4,-2.419320866E-3,2.424550788E-3
1.014693271E1,7.176117506E-4,-1.265406609E-4,-2.563335001E-3,2.664895025E-3
1.015688971E1,-7.686984027E-4,-2.911239862E-4,-3.752702847E-3,3.841670088E-3
1.016684671E1,-5.312047433E-4,-1.945756376E-3,-2.637220547E-3,3.320102192E-3
1.017680371E1,-1.514380565E-4,1.302501187E-3,-3.534706309E-3,3.770091712E-3
1.018676071E1,1.929776510E-3,9.539145976E-4,-5.370106548E-3,5.785502120E-3
1.019671771E1,-3.969125450E-3,-2.879174426E-4,-5.094468594E-3,6.464554396E-3
1.020667471E1,-9.508436779E-4,-2.540057525E-3,-5.514040589E-3,6.144968637E-3
1.021663171E1,3.288051812E-4,-2.427405678E-3,-1.471893862E-3,2.857775833E-3
1.022658871E1,1.054087421E-3,-1.363437623E-4,3.833919764E-4,1.129902350E-3
1.023654571E1,2.575359540E-4,-3.624456003E-4,-1.946076751E-3,1.996223009E-3
1.024650171E1,2.774378518E-4,1.210881397E-3,-2.082463354E-3,2.424842086E-3
1.025645871E1,4.209822509E-4,-1.406734809E-4,-2.893928438E-3,2.927769952E-3
1.026641571E1,-2.936371602E-3,1.217760146E-4,-3.219997510E-3,4.359528822E-3
1.027637271E1,-2.315855119E-3,2.951482311E-4,-1.897206530E-3,3.008270272E-3
1.028632971E1,-1.524080290E-3,-3.270637244E-4,-2.526856959E-3,2.968972465E-3
1.029628671E1,1.558416989E-4,8.982559666E-4,-2.426635474E-4,9.434172003E-4
1.030624371E1,1.761196181E-4,2.275472507E-4,1.121291891E-3,1.157623158E-3
1.031620071E1,-2.006074646E-3,-7.271952927E-4,-1.921104267E-3,2.871200113E-3
1.032615771E1,2.054614015E-6,-6.385184824E-4,-2.781741321E-3,2.854083890E-3
1.033611471E1,7.227060269E-4,-1.574086957E-3,-2.130333334E-3,2.745609926E-3
1.034607171E1,3.153999336E-3,1.747000962E-3,-4.881078377E-3,6.068331756E-3
1.035602871E1,1.534797251E-3,-2.338578925E-4,-4.223544151E-3,4.499846365E-3
1.036598571E1,-6.324753631E-4,-4.267860204E-4,-1.351715997E-3,1.552194423E-3
1.037594271E1,7.276010001E-4,5.228975788E-4,-5.144178867E-4,1.033175133E-3
1.038589971E1,-9.517823346E-4,2.373168245E-4,1.755598933E-4,9.965089883E-4
1.039585571E1,2.282642527E-4,-1.706524752E-3,-3.284951672E-3,3.708805574E-3
1.040581271E1,3.438896965E-5,8.056424558E-4,-4.531236365E-3,4.602428203E-3
1.041576971E1,-7.304709870E-4,5.510440096E-4,-4.864664748E-3,4.949969745E-3
1.042572671E1,-5.526156165E-4,-1.163866371E-3,-3.587162122E-3,3.811522142E-3
1.043568371E1,-6.152000278E-4,-1.197688282E-3,-4.467602819E-3,4.666090788E-3
1.044564071E1,-5.560391583E-5,-7.356498390E-4,-2.091631293E-3,2.217925596E-3
1.045559771E1,-5.959859118E-5,1.030292362E-3,2.721901983E-4,1.067305883E-3
1.046555471E1,-7.246526657E-4,-1.860519871E-3,-1.253534108E-3,2.357541821E-3
1.047551171E1,1.526517444E-3,-3.026984632E-3,-2.541970462E-3,4.237275693E-3
1.048546871E1,-3.010687884E-3,-1.921294257E-3,-2.671562135E-3,4.460140962E-3
1.049542571E1,-1.529703848E-3,-2.514647320E-3,-3.943488002E-3,4.920827433E-3
1.050538271E1,-5.363752134E-4,5.869111046E-4,-5.260035396E-3,5.319787155E-3
1.051533971E1,1.271378482E-3,1.005027443E-3,-2.019768581E-3,2.589584624E-3
1.052529671E1,-7.509540301E-4,-1.533119939E-3,6.709489971E-4,1.834274042E-3
1.053525371E1,5.646476056E-4,5.667824298E-4,8.958205581E-5,8.050429715E-4
1.054521071E1,8.596629486E-4,9.697005153E-4,-1.319423318E-4,1.302592896E-3
1.055516671E1,-1.850951230E-4,4.951246083E-4,-2.615340054E-3,2.668222663E-3
1.056512371E1,-9.251865558E-4,-6.336756051E-4,-7.424257696E-3,7.508469702E-3
1.057508071E1,-7.800443564E-4,9.738085791E-4,-7.669534534E-3,7.770362432E-3
1.058503771E1,2.225537319E-4,1.163585111E-4,-4.703640938E-3,4.710340491E-3
1.059499471E1,-4.235290689E-4,-1.072210260E-3,-9.320713580E-4,1.482487346E-3
1.060495171E1,7.383859484E-4,1.998142339E-3,-1.172527671E-3,2.431585441E-3
1.061490871E1,-2.716532908E-3,6.838729605E-4,-8.036568761E-5,2.802443918E-3
1.062486571E1,-1.159777865E-3,-1.688488759E-3,-2.326238900E-4,2.061599588E-3
1.063482271E1,-5.674909335E-4,-3.800773993E-4,-3.203911707E-3,3.275905221E-3
1.064477971E1,2.180201933E-3,-7.346151397E-4,-6.093867123E-3,6.513689921E-3
1.065473671E1,1.326925121E-3,5.058851093E-4,-6.213443354E-3,6.373658944E-3
1.066469371E1,2.987257438E-3,3.540189937E-4,-3.378082067E-3,4.523325646E-3
1.067465071E1,3.116953420E-3,8.813245222E-4,-5.649849772E-4,3.288060151E-3
1.068460771E1,-9.121531621E-4,2.976174466E-3,1.830942929E-3,3.611369526E-3
1.069456471E1,3.943938063E-4,-9.969957173E-4,1.445317641E-3,1.799580512E-3
1.070452071E1,7.516501937E-4,-1.164606772E-3,-2.007683739E-3,2.439688698E-3
1.071447771E1,-1.266493346E-3,-7.704589516E-4,-3.560572863E-3,3.856849945E-3
1.072443471E1,1.980590867E-3,5.638236180E-4,-3.209285438E-3,3.813154898E-3
1.073439171E1,-1.482850173E-3,1.189665869E-3,-2.471856773E-3,3.118369032E-3
1.074434871E1,-1.304203179E-3,2.708277665E-3,2.511428669E-3,3.917012612E-3
1.075430571E1,4.790495150E-4,-8.457107469E-4,2.763098106E-3,2.929065764E-3
1.076426271E1,8.087236201E-4,5.501536652E-4,3.502797335E-4,1.038941211E-3
1.077421971E1,1.565327635E-3,1.007685438E-3,-3.206638619E-3,3.707858112E-3
1.078417671E1,1.160389045E-3,7.705856115E-5,-2.286849543E-3,2.565564576E-3
1.079413371E1,2.394497860E-3,-9.929994121E-4,-2.952106297E-3,3.928689276E-3
1.080409071E1,3.181037027E-3,1.366613433E-4,-1.490524039E-3,3.515584561E-3
1.081404771E1,3.266610438E-4,-3.038253635E-4,-2.430086955E-3,2.470696238E-3
1.082400471E1,-2.421399578E-3,-2.374657430E-3,-4.313513637E-5,3.391759789E-3
1.083396171E1,-1.625380595E-3,-1.504602842E-3,-2.032516524E-3,3.006129607E-3
1.084391871E1,-1.860606251E-3,-1.769382507E-4,-3.210945055E-3,3.715283423E-3
1.085387471E1,-2.474464942E-3,9.786067531E-4,-3.986990079E-3,4.793405660E-3
1.086383171E1,-2.889054827E-3,5.719410256E-4,-3.802141175E-3,4.809369173E-3
1.087378871E1,-1.824589213E-3,1.509374008E-3,-1.406095922E-3,2.753986462E-3
1.088374571E1,9.586649830E-4,-1.810638234E-3,-3.212809563E-3,3.810458588E-3
1.089370271E1,3.756990191E-4,-9.472416714E-4,3.891065717E-5,1.019769864E-3
1.090365971E1,2.126495354E-3,-8.967826143E-4,-2.852423117E-3,3.669130576E-3
1.091361671E1,-6.395461969E-5,8.526481688E-4,-2.675322816E-3,2.808638685E-3
1.092357371E1,-1.686795149E-3,5.941875279E-4,-2.916673198E-3,3.421303734E-3
1.093353071E1,9.750342579E-4,-1.872698776E-3,-1.606665552E-3,2.653123952E-3
1.094348771E1,8.208382642E-4,-3.691366874E-3,-1.188794151E-3,3.963987435E-3
1.095344471E1,-3.600073978E-4,-7.040984929E-4,-2.314247191E-3,2.445628769E-3
1.096340171E1,2.063984284E-4,7.650814950E-5,-1.694459468E-3,1.708697369E-3
1.097335871E1,-3.887875937E-5,8.466942236E-4,-2.936825156E-3,3.056688513E-3
1.098331571E1,2.033927012E-5,-9.807664901E-4,-3.735562786E-3,3.862220336E-3
1.099327271E1,-2.972816583E-5,1.916752197E-3,-2.956321463E-3,3.523444244E-3
1.100322971E1,-1.472050790E-4,-3.545191139E-4,-1.183686778E-3,1.244374351E-3
1.101318571E1,4.725125618E-4,-2.732455730E-3,3.974325955E-4,2.801345232E-3
1.102314271E1,1.928105485E-4,-5.318261683E-4,7.886849344E-4,9.705868877E-4
1.103309971E1,8.101313142E-4,2.464495599E-3,-3.076894209E-3,4.024590573E-3
1.104305671E1,-6.738639204E-4,5.781613290E-4,-4.151061177E-3,4.244958422E-3
1.105301371E1,-1.323409029E-3,-4.365025088E-4,-7.127676159E-3,7.262624411E-3
1.106297071E1,1.765474794E-3,-5.653100088E-4,-6.909279153E-3,7.153643482E-3
1.107292771E1,1.147621428E-3,-1.909407787E-3,-1.814650372E-3,2.873295844E-3
1.108288471E1,2.934740623E-4,-9.877597913E-4,8.515156806E-4,1.336740582E-3
1.109284171E1,-7.821766194E-4,2.269083634E-4,7.220860571E-4,1.088437386E-3
1.110279846E1,1.928961137E-4,1.848271117E-3,-5.294289440E-4,1.932255169E-3
1.111275546E1,-1.509673893E-5,-9.326012805E-4,-5.595028400E-3,5.672240815E-3
1.112271246E1,-3.687100019E-3,1.360746101E-3,-5.209110677E-3,6.525424933E-3
1.113266946E1,-6.170081906E-4,-1.742998138E-4,-6.688229740E-3,6.718891023E-3
1.114262646E1,1.269847271E-3,-5.034217611E-4,-4.236241803E-3,4.451032484E-3
1.115258346E1,1.051734434E-3,4.308149219E-4,-1.871716231E-4,1.151859381E-3
1.116254046E1,3.209493589E-3,5.404436961E-4,-2.543851733E-4,3.264604157E-3
1.117249646E1,-7.021571510E-4,4.259273410E-4,-1.331899315E-3,1.564734658E-3
1.118245346E1,-1.692082733E-4,-6.053708494E-4,-2.132352442E-3,2.223068204E-3
1.119241046E1,-6.544361822E-4,-4.056338221E-4,-3.630381078E-3,3.711130863E-3
1.120236746E1,-1.427497948E-3,-9.874375537E-4,-6.528923288E-3,6.755710371E-3
1.121232446E1,-1.551601337E-3,1.310870051E-3,-8.574556559E-4,2.204785070E-3
1.122228146E1,-5.936080124E-4,-7.832748815E-4,1.205317676E-5,9.828709435E-4
1.123223846E1,-1.808009343E-3,-8.642347530E-4,-1.328848302E-3,2.404503546E-3
1.124219546E1,-6.908727810E-4,-2.032024786E-3,-4.477504641E-3,4.965327556E-3
1.125215246E1,-5.597516429E-5,-8.474504575E-4,-4.834899679E-3,4.908926604E-3
1.126210946E1,-1.425677445E-3,2.050272189E-3,-5.861070007E-3,6.370895844E-3
1.127206646E1,-2.506388118E-3,1.141540706E-4,-5.169181153E-3,5.745906921E-3
1.128202346E1,9.015864925E-4,6.062770262E-4,-2.692455426E-3,2.903402531E-3
1.129198046E1,1.200393075E-3,2.047846094E-3,1.894839108E-3,3.037273844E-3
1.130193746E1,-1.111914171E-4,8.690152317E-4,1.300813630E-3,1.568332587E-3
1.131189446E1,-4.661907442E-4,-1.585620455E-3,-7.548797876E-4,1.816967125E-3
1.132185046E1,-5.715305451E-4,7.885899395E-4,-2.378022298E-3,2.569729812E-3
1.133180746E1,-7.606151048E-4,6.418498233E-4,-1.789996400E-3,2.048070713E-3
1.134176446E1,-3.967835801E-4,4.808418453E-4,-3.346400335E-3,3.403974338E-3
1.135172146E1,-7.808114169E-4,-4.637818784E-4,-1.209745184E-3,1.512694123E-3
1.136167846E1,-9.763897397E-4,-1.651458442E-4,-1.733718440E-3,1.996594526E-3
1.137163546E1,-1.012342516E-3,-2.123101614E-3,2.713762224E-4,2.367708362E-3
1.138159246E1,-1.403711154E-3,9.638834745E-4,-1.023115590E-3,1.986515006E-3
1.139154946E1,8.586441400E-4,7.521621883E-4,-1.805018634E-3,2.135675533E-3
1.140150646E1,-2.853183309E-3,2.191447653E-3,-2.557361498E-3,4.413977304E-3
1.141146346E1,2.246320946E-4,-4.328787327E-6,-3.874028102E-3,3.880537598E-3
1.142142046E1,1.264560968E-3,-1.662702300E-3,-3.031402826E-3,3.681453038E-3
1.143137746E1,-6.062793545E-5,2.157069743E-3,-1.630846411E-3,2.704863331E-3
1.144133446E1,-3.877243726E-4,2.136991359E-3,1.720948145E-3,2.771051204E-3
1.145129146E1,-1.922237803E-3,1.944445074E-3,1.093506813E-3,2.944761784E-3
1.146124846E1,-2.340123756E-4,-2.856366336E-6,2.420600504E-4,3.366942511E-4
1.147120546E1,1.000895398E-3,1.558288932E-3,-1.064753160E-3,2.136294756E-3
1.148116146E1,-2.627382986E-3,1.841122285E-3,-4.939345643E-3,5.889822408E-3
1.149111846E1,1.257369993E-3,1.525972039E-5,-4.407245666E-3,4.583124100E-3
1.150107546E1,-2.506181132E-3,-6.579225883E-4,-3.529749811E-3,4.378691554E-3
1.151103246E1,-4.883040674E-4,1.256091520E-3,-3.235470504E-3,3.504921704E-3
1.152098946E1,2.525837626E-4,5.040839314E-4,-2.944052219E-3,2.997556111E-3
1.153094646E1,-1.872086199E-3,-5.792900920E-4,-2.721026540E-4,1.978464961E-3
1.154090346E1,6.785257719E-4,8.230097592E-4,-1.390732825E-3,1.752677973E-3
1.155086046E1,1.130996738E-3,-1.716314815E-3,-3.292229027E-3,3.881193390E-3
1.156081746E1,-2.617608523E-3,-1.636724919E-4,-5.367094651E-3,5.973639431E-3
1.157077446E1,-4.046747927E-5,-5.663428456E-4,-2.593412995E-3,2.654839506E-3
1.158073146E1,-3.142169444E-4,-6.107129157E-4,-2.187291160E-3,2.292584824E-3
1.159068846E1,-1.579751144E-3,7.432382554E-4,-1.157712191E-3,2.094830375E-3
1.160064546E1,2.731631976E-4,4.010470584E-4,-1.999936998E-3,2.057961339E-3
1.161060246E1,-2.621426480E-3,-9.584957734E-4,-1.641741022E-3,3.238194639E-3
1.162055946E1,-8.055445505E-4,-1.487058587E-3,-5.590099841E-3,5.840330599E-3
1.163051646E1,-2.960817656E-4,1.921787858E-3,-4.615116864E-3,5.008017238E-3
1.164047246E1,-1.911470084E-3,-1.661852002E-4,-1.169744879E-3,2.247140068E-3
1.165042946E1,-2.374069300E-4,-1.840780489E-3,2.931300551E-4,1.879031689E-3
1.166038646E1,-1.063844189E-3,-1.610950567E-3,1.678377390E-3,2.558100242E-3
1.167034346E1,-6.020520814E-4,2.010641620E-4,-1.032721251E-3,1.212190863E-3
1.168030046E1,2.388129244E-3,-1.586299390E-3,-4.038086161E-3,4.952337517E-3
1.169025746E1,-1.763206208E-3,5.972264335E-4,-5.382183939E-3,5.695039903E-3
1.170021446E1,-5.802653031E-4,-8.967760950E-4,-3.614077345E-3,3.768616489E-3
1.171017146E1,1.052252483E-3,1.051326282E-3,-4.163011909E-6,1.487460779E-3
1.172012846E1,-6.821062416E-4,-2.520175651E-3,1.520063728E-3,3.021117007E-3
1.173008546E1,-6.315063220E-4,1.461249776E-3,2.689458430E-3,3.125258036E-3
1.174004246E1,-2.126808278E-3,-2.279780805E-3,-1.817166805E-3,3.608712952E-3
1.174999946E1,1.106802141E-3,-1.021703705E-3,-2.123164013E-3,2.603212413E-3
1.175995646E1,7.198138628E-4,-7.499288768E-4,-2.165921032E-4,1.061808578E-3
1.176991346E1,-1.762252185E-3,-7.608477026E-4,-4.893001169E-4,1.980867636E-3
1.177987046E1,-7.108745631E-4,9.971866384E-4,-3.812864423E-3,4.004704601E-3
1.178982746E1,-9.891749360E-4,2.024101093E-3,2.294562757E-3,3.215660202E-3
1.179978346E1,-1.248483197E-3,2.560717985E-4,3.066489473E-3,3.320789175E-3
1.180974046E1,-7.653856883E-4,-2.885442227E-4,-7.053464651E-4,1.080086411E-3
1.181969746E1,-1.788076595E-3,9.240480140E-4,-1.536734402E-3,2.532318161E-3
1.182965446E1,2.239415189E-4,1.651090570E-3,-1.610238105E-3,2.317135436E-3
1.183961146E1,-4.791397369E-4,-1.870539039E-3,-1.433281228E-3,2.404742453E-3
1.184956846E1,1.674824976E-3,-1.994054765E-4,-1.084672287E-3,2.005321724E-3
1.185952546E1,-8.950753836E-4,-1.268538646E-3,-1.613298431E-3,2.238991306E-3
1.186948246E1,-4.792388063E-5,-1.309284940E-3,-1.650849357E-3,2.107564318E-3
1.187943946E1,-1.011924935E-3,2.294071019E-3,-6.648153067E-4,2.593980205E-3
1.188939646E1,-2.330988646E-3,1.645591110E-3,-2.202792093E-3,3.604687389E-3
1.189935346E1,1.498805359E-4,-1.051807776E-3,-2.299781889E-3,2.533329925E-3
1.190931046E1,2.071384806E-4,-1.037159935E-3,-2.182070166E-3,2.424878819E-3
1.191926746E1,-2.020738786E-3,3.006726503E-3,-1.976234838E-3,4.126656473E-3
1.192922446E1,3.534692805E-4,-2.537807450E-4,-1.475825906E-3,1.538638133E-3
1.193918146E1,-6.203248631E-5,-2.935966477E-4,-1.807296649E-3,1.832039355E-3
1.194913846E1,-4.183540586E-3,-1.398009248E-3,-3.221701831E-3,5.462216069E-3
1.195909446E1,-4.381756298E-6,4.421044141E-4,-8.728932589E-4,9.784774674E-4
1.196905146E1,-6.142456550E-4,7.401118055E-4,-3.316076472E-3,3.452741864E-3
1.197900846E1,9.500766755E-4,8.765989915E-4,-1.324098557E-3,1.850488711E-3
1.198896546E1,-1.269668108E-3,3.732619807E-4,-2.452213317E-3,2.786526828E-3
1.199892246E1,-1.912928419E-4,4.780078307E-4,-1.909460872E-3,1.977656507E-3
1.200887946E1,-3.124666400E-4,3.408547491E-4,-9.922683239E-4,1.094720872E-3
1.201883646E1,4.079838982E-4,-9.009912610E-4,-5.815308541E-4,1.147350970E-3
1.202879346E1,1.256467076E-3,1.280540600E-4,-1.510707662E-3,1.969097507E-3
1.203875046E1,3.990083933E-4,-2.425378188E-4,-4.845913500E-4,6.729495285E-4
1.204870746E1,-1.690773992E-3,-9.839618579E-4,-3.458809108E-3,3.973695770E-3
1.205866446E1,3.124884097E-4,1.038297080E-3,-1.952247694E-3,2.233154919E-3
1.206862146E1,-5.367937265E-4,-1.074388623E-3,-1.084323972E-3,1.618090509E-3
1.207857846E1,9.934417903E-6,7.079644129E-4,-8.400827646E-4,1.098658889E-3
1.208853546E1,-1.919332426E-4,-1.148525625E-3,2.257440239E-3,2.540075966E-3
1.209849246E1,4.010953708E-4,4.796562716E-4,-2.395130694E-3,2.475398690E-3
1.210844933E1,1.499915612E-3,4.370454699E-4,-6.628759205E-3,6.810374747E-3
1.211840533E1,1.141823828E-3,1.819416881E-3,-5.410768092E-3,5.821550548E-3
1.212836233E1,-3.343662247E-4,8.122092113E-4,-6.858196110E-3,6.914212786E-3
1.213831933E1,-3.909274004E-3,-6.712349132E-4,-4.960196093E-3,6.351104221E-3
1.214827633E1,-1.606172184E-3,1.167411916E-3,-1.412332058E-3,2.436661960E-3
1.215823333E1,-3.389229532E-4,6.335144863E-4,-3.565495834E-3,3.637165093E-3
1.216819033E1,1.706917421E-3,-1.744422130E-3,-3.971893340E-3,4.661814277E-3
1.217814733E1,6.869467907E-4,-6.196880713E-4,-4.321873188E-3,4.419784729E-3
1.218810433E1,1.319713891E-3,-3.003748134E-4,-8.200816810E-4,1.582530804E-3
1.219806133E1,1.277608564E-3,-3.058863804E-4,2.340575680E-3,2.684053769E-3
1.220801833E1,-4.734197864E-4,4.592398182E-4,-1.116739586E-3,1.296971398E-3
1.221797533E1,1.045794692E-3,-5.188770592E-4,-4.139598459E-4,1.238661654E-3
1.222793233E1,-5.997725530E-4,-8.831974119E-4,-2.711735666E-3,2.914322409E-3
1.223788933E1,-2.485118574E-3,1.219473779E-3,-4.772363231E-3,5.517099005E-3
1.224784633E1,5.634020781E-4,6.136046723E-4,-1.993620768E-3,2.160661094E-3
1.225780333E1,-7.393214619E-4,2.933442593E-4,-2.899175510E-3,3.006304328E-3
1.226776033E1,3.222146770E-4,6.243754178E-4,3.876984119E-4,8.024817874E-4
1.227771633E1,-3.519161837E-4,1.938687637E-4,-1.509580761E-3,1.562134492E-3
1.228767333E1,1.003100304E-3,-7.526185364E-4,-1.554854214E-3,1.997552630E-3
1.229763033E1,-1.345249126E-3,-1.250907779E-3,6.353221834E-4,1.943733459E-3
1.230758733E1,9.096494177E-4,-2.599266358E-3,-3.059281036E-3,4.116169107E-3
1.231754433E1,-2.086192602E-3,1.102131791E-3,-3.858698532E-3,4.522880545E-3
1.232750133E1,3.870851360E-4,-1.611362211E-3,-3.799309954E-3,4.145006539E-3
1.233745833E1,-7.498734631E-4,-1.376911998E-3,-2.442231402E-3,2.902187292E-3
1.234741533E1,5.253695417E-5,-6.107203662E-4,7.676761597E-4,9.823778212E-4
1.235737233E1,-2.870422322E-3,6.449325010E-4,-4.481133074E-4,2.975914612E-3
1.236732933E1,-5.135246320E-4,2.932853997E-3,6.600283086E-4,3.049750397E-3
1.237728633E1,3.208196955E-3,3.403555602E-4,-2.712979913E-3,4.215285235E-3
1.238724333E1,3.857788397E-4,-6.604604423E-4,-3.270380199E-3,3.358633644E-3
1.239720033E1,1.264402177E-3,1.086837612E-3,-4.310503602E-3,4.621728050E-3
1.240715733E1,-1.682918170E-3,-3.533481620E-3,-2.520859241E-3,4.655366499E-3
1.241711433E1,3.228009911E-3,-1.595132053E-4,-2.162750810E-3,3.888828039E-3
1.242707133E1,-1.320935437E-3,-2.676378936E-4,1.858890057E-3,2.296077680E-3
1.243702733E1,-1.182570355E-3,9.508710355E-4,2.009551972E-3,2.518119834E-3
1.244698433E1,-1.183710992E-4,1.823855564E-3,-2.069877461E-3,2.761313734E-3
1.245694133E1,-1.987265190E-3,4.439074546E-4,-2.637239173E-3,3.331862425E-3
1.246689833E1,4.945347318E-4,-2.908585593E-4,-1.960264519E-3,2.042498540E-3
1.247685533E1,-7.529568393E-5,3.334842622E-4,2.014748752E-4,3.968290797E-4
1.248681233E1,2.122344682E-3,-1.486520283E-3,-2.505362034E-3,3.604293054E-3
1.249676933E1,2.423208673E-3,7.688896731E-4,9.151715785E-4,2.701975318E-3
1.250672633E1,2.364352811E-3,-1.008770429E-3,-1.309100538E-3,2.884705568E-3
1.251668333E1,-5.176967243E-4,2.324394882E-4,-5.998089910E-5,5.706450054E-4
1.252664033E1,-6.402021972E-4,1.238315366E-3,-3.068020567E-3,3.369871511E-3
1.253659733E1,-1.238334691E-3,9.390013292E-4,-2.369023860E-3,2.833279081E-3
1.254655433E1,4.999106750E-4,-6.610257551E-4,-1.256622374E-3,1.505312434E-3
1.255651133E1,3.442950547E-4,2.617547289E-4,-1.456199214E-3,1.519069048E-3
1.256646833E1,1.800511498E-3,-4.407875240E-4,-4.400324076E-3,4.774828507E-3
1.257642533E1,-1.619887422E-3,6.047831848E-4,2.519581467E-4,1.747363977E-3
1.258638233E1,-4.763259785E-4,-4.546223208E-4,-1.666316763E-3,1.791697364E-3
1.259633833E1,-3.528973320E-4,9.560799226E-4,4.000887275E-4,1.094849914E-3
1.260629533E1,2.047942486E-3,-5.185129121E-4,-5.685035139E-4,2.187720345E-3
1.261625233E1,-2.934913849E-3,6.961580366E-4,-1.229569316E-3,3.257329584E-3
1.262620933E1,4.592849873E-4,2.295918763E-3,-2.641310915E-3,3.529689649E-3
1.263616633E1,1.667412580E-3,6.098309532E-4,-4.229089245E-3,4.586649578E-3
1.264612333E1,5.741850473E-4,-7.592998445E-4,-1.226374879E-3,1.552488347E-3
1.265608033E1,2.898862353E-3,-1.030098647E-3,2.361126244E-4,3.085491101E-3
1.266603733E1,5.225236528E-4,-7.041273639E-4,3.460999578E-4,9.426619187E-4
1.267599433E1,2.780175768E-3,-6.127273664E-4,2.307385206E-3,3.664537981E-3