"Time (s)","Gyroscope x (rad/s)","Gyroscope y (rad/s)","Gyroscope z (rad/s)","Absolute (rad/s)"
5.112625000E-3,-1.458746614E-3,1.182981767E-3,3.210838884E-3,3.719794871E-3
1.506962500E-2,-2.100400161E-5,-2.457926981E-3,6.945108064E-3,7.367249977E-3
2.502662500E-2,-1.353383646E-3,1.476094127E-3,6.828195415E-3,7.115810129E-3
3.498262500E-2,-2.713538939E-3,-3.987336531E-4,3.528289497E-3,4.468904662E-3
4.493962500E-2,1.265756320E-3,2.524098381E-4,-1.345028635E-3,1.864122265E-3
5.489662500E-2,-1.904580160E-3,-8.783396333E-4,2.386407461E-3,3.177081470E-3
6.485362500E-2,-1.110425568E-3,2.180834301E-3,2.560845111E-3,3.542176008E-3
7.481062500E-2,1.088946941E-3,-1.203762367E-4,6.370629650E-3,6.464148669E-3
8.476762500E-2,-1.566224732E-3,3.512697294E-4,3.130095545E-3,3.517662357E-3
9.472462500E-2,1.344282413E-3,-1.833927818E-3,-1.717905980E-3,2.849839890E-3
1.046806250E-1,1.874517766E-3,-3.601349890E-4,-2.429236425E-3,3.089450384E-3
1.146376250E-1,-9.817392565E-4,1.712357625E-4,3.342282958E-3,3.487691074E-3
1.245946250E-1,-1.955390908E-3,1.075112261E-3,9.098173119E-3,9.367826540E-3
1.345516250E-1,7.353822002E-4,1.325569116E-3,5.729540251E-3,5.926681361E-3
1.445086250E-1,-1.006325241E-3,-1.538127661E-3,7.872465067E-4,1.999571018E-3
1.544656250E-1,-1.635460299E-3,-8.202409372E-4,-9.196233004E-4,2.047738411E-3
1.644226250E-1,1.783239655E-3,2.139329910E-3,1.559246797E-3,3.191853178E-3
1.743786250E-1,-1.064028824E-3,-1.022981480E-3,3.081478644E-3,3.416746856E-3
1.843356250E-1,-1.322888071E-3,-2.698395401E-4,7.829895243E-3,7.945445597E-3
1.942926250E-1,-1.722103450E-3,5.297102034E-4,1.179246698E-3,2.153336009E-3
2.042496250E-1,-5.737484898E-4,-1.347019337E-3,5.317851901E-7,1.464120455E-3
2.142066250E-1,-8.276733570E-4,4.042126238E-5,-7.839514874E-4,1.140726522E-3
2.241636250E-1,-1.157106366E-3,-1.198214479E-3,1.718088053E-3,2.392998044E-3
2.341206250E-1,-5.128143821E-4,-1.193895005E-3,7.038834970E-3,7.157762333E-3
2.440766250E-1,4.262161674E-4,7.717842236E-4,6.688362453E-3,6.746221417E-3
2.540336250E-1,-9.441282600E-7,-7.956894115E-4,3.414304927E-3,3.505795297E-3
2.639906250E-1,3.644415410E-4,1.526320353E-3,-9.535457939E-4,1.836224670E-3
2.739476250E-1,2.053611912E-3,3.442261368E-5,-3.774375655E-4,2.088292584E-3
2.839046250E-1,-7.919755299E-4,3.447529860E-3,3.694269340E-3,5.114715372E-3
2.938616250E-1,-1.850260189E-3,1.011306420E-3,8.944060653E-3,9.189255923E-3
3.038186250E-1,-1.039593946E-3,1.267769374E-3,5.400191527E-3,5.643586031E-3
3.137746250E-1,1.202083193E-3,2.442987636E-3,1.838845201E-3,3.285505176E-3
3.237316250E-1,-2.061620820E-3,1.564410515E-3,5.344287492E-4,2.642588646E-3
3.336886250E-1,1.472212956E-3,-1.619600691E-3,-1.571198460E-3,2.694286916E-3
3.436456250E-1,-7.949359715E-4,1.506683417E-3,7.960520685E-3,8.140755965E-3
3.536026250E-1,6.790636107E-4,1.668566838E-3,6.828544196E-3,7.062170949E-3
3.635596250E-1,5.828076974E-5,-1.967111602E-4,5.825597327E-3,5.829208878E-3
3.735166250E-1,-1.741269138E-3,-8.498383686E-4,1.741698943E-4,1.945399346E-3
3.834726250E-1,2.797289751E-3,-1.511101611E-3,-1.094293781E-3,3.362400469E-3
3.934296250E-1,1.527587185E-3,-9.619332850E-4,1.559797674E-3,2.385750833E-3
4.033866250E-1,1.450621756E-3,-2.146773972E-3,5.425375886E-3,6.012291200E-3
4.133436250E-1,-5.049964413E-3,-5.258182064E-4,5.288903601E-3,7.331515987E-3
4.233006250E-1,1.812735456E-3,4.321215674E-4,1.621731091E-3,2.470374590E-3
4.332576250E-1,8.223927580E-6,4.126317799E-5,-2.113552066E-3,2.113970817E-3
4.432146250E-1,-1.152115408E-3,-1.892724074E-3,1.159472857E-3,2.500830190E-3
4.531706250E-1,2.317109611E-4,1.848470420E-3,3.306063823E-3,3.794811045E-3
4.631278333E-1,-1.628773287E-3,5.427226424E-4,6.809452549E-3,7.022541869E-3
4.730848333E-1,-1.698357286E-3,-2.526874654E-3,4.866361618E-3,5.740295148E-3
4.830418333E-1,-1.239761012E-3,8.729165420E-4,-2.455762587E-4,1.536000766E-3
4.929988333E-1,2.840636298E-3,-2.287205309E-3,-4.592272453E-3,5.864255194E-3
5.029558333E-1,-4.729547072E-5,-2.578821033E-3,2.522894647E-3,3.607984504E-3
5.129128333E-1,-1.400189474E-3,1.252641901E-3,7.945058867E-3,8.164165769E-3
5.228688333E-1,-1.602217089E-4,-1.419041306E-3,6.022788119E-3,6.189775920E-3
5.328258333E-1,-1.031849883E-3,-1.647928730E-3,3.439787775E-3,3.951268558E-3
5.427828333E-1,7.005365333E-4,7.739495486E-4,5.595795810E-4,1.184431782E-3
5.527398333E-1,-3.520234022E-4,-1.588905230E-3,-5.787387490E-4,1.727274977E-3
5.626968333E-1,-3.016896080E-4,-3.303448670E-3,4.075667355E-3,5.254983741E-3
5.726538333E-1,-2.000552835E-3,3.400780261E-4,6.781489588E-3,7.078592074E-3
5.826108333E-1,6.418357370E-4,6.018672138E-4,3.319646232E-3,3.434275522E-3
5.925678333E-1,3.945968347E-4,-8.243722841E-4,2.511526458E-3,2.672650646E-3
6.025238333E-1,9.426753968E-4,3.071501851E-6,-1.630862243E-4,9.566835707E-4
6.124808333E-1,-8.241471369E-5,2.630877309E-3,2.380016726E-3,3.548631738E-3
6.224378333E-1,-1.887238934E-3,1.064140350E-3,5.859702360E-3,6.247413643E-3
6.323948333E-1,-1.728825038E-3,4.627509043E-4,4.459845833E-3,4.805538396E-3
6.423518333E-1,-4.310666118E-4,-4.914598539E-4,2.013199963E-3,2.116677893E-3
6.523088333E-1,2.307577990E-3,8.455095813E-4,-4.841173068E-4,2.504829774E-3
6.622658333E-1,-1.372039551E-4,-3.105681390E-4,2.547625452E-3,2.570150373E-3
6.722218333E-1,1.062756637E-4,-4.346361384E-4,3.278641962E-3,3.309032517E-3
6.821788333E-1,-8.290265687E-4,7.227743044E-4,5.546589382E-3,5.654585884E-3
6.921358333E-1,1.893958077E-3,-1.310016960E-3,4.356182180E-3,4.927427810E-3
7.020928333E-1,-9.058231954E-4,1.316125505E-3,2.689576708E-3,3.128342192E-3
7.120498333E-1,-1.830462483E-3,-2.378867939E-4,9.243949316E-4,2.064385869E-3
7.220068333E-1,-8.778496413E-4,-8.208528161E-4,4.474227317E-4,1.282422099E-3
7.319638333E-1,7.679413538E-4,2.996613272E-3,6.836839486E-3,7.504118814E-3
7.419198333E-1,3.189324634E-4,1.302529126E-4,9.983364493E-3,9.989306799E-3
7.518768333E-1,-2.040549414E-3,-2.493336797E-4,2.946740016E-3,3.592949474E-3
7.618338333E-1,1.919038361E-3,-2.538054250E-3,-6.264233962E-4,3.242966833E-3
7.717908333E-1,-1.540708588E-3,-6.080130115E-4,-1.033919863E-3,1.952550399E-3
7.817478333E-1,1.545895007E-3,-3.227880225E-4,1.427906100E-3,2.129060664E-3
7.917048333E-1,-3.684936091E-4,2.611854114E-3,7.920443080E-3,8.348112843E-3
8.016618333E-1,-1.770647708E-3,-2.600718290E-5,5.571002141E-3,5.845676567E-3
8.116178333E-1,-9.665354155E-4,-7.091034204E-4,1.805375796E-3,2.167117933E-3
8.215748333E-1,1.128040953E-3,-8.310768753E-4,-2.450621920E-3,2.822890886E-3
8.315318333E-1,-1.393432496E-3,-6.243418902E-4,-6.461804733E-4,1.658012702E-3
8.414888333E-1,2.063283464E-4,-1.812111586E-3,3.002882469E-3,3.513349244E-3
8.514458333E-1,1.237287186E-3,-1.930532977E-3,5.849835463E-3,6.283184869E-3
8.614028333E-1,-6.101476029E-4,-1.596039161E-3,5.304419436E-3,5.572834705E-3
8.713598333E-1,1.897152397E-3,-5.159322172E-4,1.556020696E-3,2.507304065E-3
8.813158333E-1,-1.980942674E-3,-7.545510307E-4,3.538695164E-4,2.149117207E-3
8.912728333E-1,1.132182078E-3,4.594083875E-4,1.586730126E-3,2.002649450E-3
9.012298333E-1,-8.526718011E-4,2.460241318E-3,4.940715153E-3,5.584845814E-3
9.111868333E-1,-7.388037629E-4,5.994820967E-4,2.946157474E-3,3.095973780E-3
9.211438333E-1,-1.996614737E-3,1.413078047E-3,2.062254585E-3,3.199398999E-3
9.311008333E-1,-1.151453005E-3,-2.045430243E-3,1.513444819E-3,2.792873810E-3
9.410578333E-1,2.916259225E-3,1.473138109E-3,3.003748134E-4,3.280995091E-3
9.510138333E-1,-5.940133706E-4,2.089068294E-3,6.686966866E-3,7.030830967E-3
9.609708333E-1,1.441973378E-3,2.392362803E-4,2.800083719E-3,3.158637373E-3
9.709278333E-1,-3.130543046E-4,-1.048456877E-3,2.944183070E-3,3.140935971E-3
9.808848333E-1,1.777793397E-3,-1.885754988E-3,-9.200633503E-4,2.750115962E-3
9.908418333E-1,-2.431955654E-3,4.078047350E-4,-2.818096429E-3,3.744646911E-3
1.000798833E0,-1.565507846E-4,-2.009933814E-4,1.749491319E-3,1.767944106E-3
1.010755833E0,-2.006096765E-3,1.264498569E-3,5.292251240E-3,5.799250301E-3
1.020711833E0,-1.837518765E-3,1.628019847E-3,4.363873508E-3,5.007026645E-3
1.030668833E0,-8.546793833E-5,2.262817696E-3,2.209444530E-3,3.163746802E-3
1.040625833E0,1.321746502E-3,-1.337243244E-3,-5.192300305E-4,1.950598148E-3
1.050582833E0,-4.093387164E-3,9.382525459E-4,1.009407453E-3,4.319148032E-3
1.060539833E0,-5.820093211E-4,1.395250671E-3,6.547184661E-3,6.719455802E-3
1.070496833E0,-1.306529157E-4,-5.452334881E-5,6.124114152E-3,6.125750332E-3
1.080453833E0,2.435036469E-3,-7.918104529E-6,1.966120675E-3,3.129711778E-3
1.090409833E0,4.087900743E-4,2.807285637E-5,-5.889697932E-4,7.174836774E-4
1.100366833E0,8.040032117E-4,-3.674058244E-4,1.583434641E-5,8.841147723E-4
1.110323833E0,-7.054097950E-4,-7.234392688E-4,3.137807362E-3,3.296483337E-3
1.120280833E0,4.778327420E-4,-7.543321699E-4,5.199093372E-3,5.275216871E-3
1.130237833E0,7.210584590E-4,7.437141612E-4,5.291721318E-3,5.392156393E-3
1.140194833E0,-3.356838133E-4,1.137595624E-3,5.587865133E-3,5.712358897E-3
1.150151833E0,-2.039133105E-4,-1.671523787E-3,-1.947598299E-3,2.574628428E-3
1.160107833E0,-2.739543561E-4,-1.159397885E-3,-1.765438356E-3,2.129795068E-3
1.170064833E0,9.830340277E-4,-1.191003248E-3,3.499647602E-3,3.825229141E-3
1.180021833E0,-6.596038584E-4,1.399986446E-3,7.944197394E-3,8.093535169E-3
1.189978833E0,-2.528497484E-3,1.538414508E-4,5.752382334E-3,6.285449008E-3
1.199935833E0,5.967220059E-4,-4.978338256E-4,1.726215705E-3,1.893075892E-3
1.209892833E0,1.440475229E-3,4.014149308E-4,-4.418080207E-3,4.664282962E-3
1.219849833E0,-1.777688740E-3,1.440580003E-3,2.436364070E-3,3.342352148E-3
1.229805833E0,-4.020072520E-4,-2.286426723E-3,4.565428477E-3,5.121766704E-3
1.239762833E0,1.621196279E-3,2.928450704E-4,4.952918272E-3,5.219715991E-3
1.249719833E0,1.925146207E-4,9.147282690E-4,5.037840921E-3,5.123829704E-3
1.259676833E0,-5.584966857E-4,-8.211201057E-4,-1.565999817E-3,1.854322573E-3
1.269633833E0,-3.059961600E-3,1.254024915E-3,-2.963724546E-4,3.320207842E-3
1.279590833E0,2.119620331E-3,7.251203060E-4,1.668241341E-3,2.793137837E-3
1.289547833E0,1.910913270E-3,9.784232825E-4,3.918945789E-3,4.468449143E-3
1.299503833E0,1.886678510E-3,2.367793582E-3,4.175940529E-3,5.157953232E-3
1.309460833E0,-2.197255380E-4,-6.020003930E-4,2.262609545E-3,2.351613433E-3
1.319417833E0,-2.151981462E-4,-1.639109105E-4,7.294281386E-4,7.779732888E-4
1.329374833E0,-5.744387163E-4,-6.853323430E-4,1.204668544E-3,1.500295491E-3
1.339331833E0,4.258445697E-4,-2.011694014E-4,3.445984796E-3,3.478020117E-3
1.349288833E0,-6.828717887E-4,1.103587449E-3,6.146729458E-3,6.282237035E-3
1.359245833E0,7.618931122E-4,4.756143317E-4,5.321415607E-3,5.396679921E-3
1.369201833E0,5.971187493E-4,-1.257450320E-3,1.749301329E-3,2.235573136E-3
1.379158833E0,7.526474074E-4,1.104240306E-3,-2.676073462E-3,2.991186043E-3
1.389115833E0,-1.617241651E-3,-2.227704972E-4,-1.368294470E-3,2.130100234E-3
1.399072833E0,4.845251096E-4,-4.939921200E-5,3.759622108E-3,3.791037228E-3
1.409029833E0,-3.115224652E-3,1.979731023E-4,6.450529676E-3,7.166111294E-3
1.418986833E0,2.974092960E-3,1.260675490E-4,2.828363795E-3,4.106186031E-3
1.428943833E0,-1.557658077E-3,1.744693145E-4,4.348019138E-5,1.568001516E-3
1.438899833E0,-9.238696657E-5,1.161969267E-3,1.251489855E-3,1.710244072E-3
1.448856833E0,4.532319959E-3,3.150983714E-3,3.938004375E-3,6.780744873E-3
1.458813833E0,1.737066079E-3,-4.599969834E-4,4.874104634E-3,5.194794680E-3
1.468770208E0,1.759769046E-3,-8.389120921E-4,3.962471150E-3,4.416077242E-3
1.478727208E0,1.006627223E-3,2.199606970E-4,-8.153868839E-5,1.033600325E-3
1.488684208E0,-2.189823426E-4,-1.675794832E-3,-9.035235271E-4,1.916401928E-3
1.498641208E0,-7.295103278E-4,1.442234032E-3,2.445401158E-3,2.931247370E-3
1.508597208E0,5.022309488E-4,2.709580585E-4,3.601363860E-3,3.646296182E-3
1.518554208E0,2.018901054E-3,3.591121174E-3,5.819244310E-3,7.129917047E-3
1.528511208E0,-1.087799435E-3,-7.573589683E-4,7.357355207E-4,1.515983831E-3
1.538468208E0,9.597570170E-5,-7.269987836E-4,-1.288000494E-3,1.482121399E-3
1.548425208E0,-1.810502727E-3,-1.588585787E-3,-5.705435760E-4,2.475286831E-3
1.558382208E0,-3.416654887E-3,5.760313943E-4,3.601831384E-3,4.997852749E-3
1.568339208E0,-2.861845540E-3,1.951167360E-4,7.209081668E-3,7.758807185E-3
1.578295208E0,1.340090064E-3,1.020963304E-3,5.631957669E-3,5.878533374E-3
1.588252208E0,-6.467909552E-4,1.633481123E-3,3.147178330E-3,3.604348839E-3
1.598209208E0,-7.458606269E-4,-1.961104572E-4,-1.785773784E-4,7.916168684E-4
1.608166208E0,9.386787424E-4,-2.842172980E-4,9.659989737E-4,1.376608612E-3
1.618123208E0,2.252948703E-3,9.160693735E-4,4.074440338E-3,4.745105375E-3
1.628080208E0,7.476818282E-4,2.063496038E-3,1.733588520E-3,2.796850581E-3
1.638037208E0,9.463535971E-4,1.125263982E-3,3.386346158E-3,3.691767119E-3
1.647993208E0,-5.951510975E-4,-1.129581593E-3,2.387361601E-3,2.707333525E-3
1.657950208E0,2.786320401E-4,-5.362294614E-4,-4.691586830E-3,4.730345107E-3
1.667907208E0,1.052384498E-3,1.437624916E-3,-6.489916705E-4,1.896172123E-3
1.677864208E0,-5.602312740E-5,-1.171740703E-3,2.805927303E-3,3.041273236E-3
1.687821208E0,1.989772078E-3,-8.432725444E-4,5.146645475E-3,5.581958541E-3
1.697778208E0,5.311586428E-4,3.610095009E-4,3.352740314E-3,3.413696673E-3
1.707735208E0,3.140781773E-4,1.224745065E-4,8.089561015E-4,8.763875173E-4
1.717691208E0,1.968433848E-3,3.794692457E-4,-7.420689799E-4,2.137614346E-3
1.727648208E0,-1.760255313E-3,1.698575914E-3,2.371217590E-3,3.406806681E-3
1.737605208E0,7.857267046E-4,2.351682633E-4,2.831678372E-3,2.948062579E-3
1.747562208E0,-5.518004764E-4,-5.350196734E-4,4.417222925E-3,4.483590992E-3
1.757519208E0,-1.272984315E-3,-8.047977462E-4,9.473902173E-4,1.779251725E-3
1.767476208E0,4.976942437E-4,5.979752168E-4,-7.754084654E-4,1.098422600E-3
1.777433208E0,-1.422444941E-3,2.752617002E-5,-1.037591137E-4,1.426489836E-3
1.787389208E0,-2.284103306E-3,3.919592127E-4,3.603777383E-3,4.284620329E-3
1.797346208E0,-1.280079596E-4,1.284650527E-3,6.658156868E-3,6.782165281E-3
1.807303208E0,2.825980540E-3,2.984907478E-4,4.373197909E-3,5.215373687E-3
1.817260208E0,9.388647159E-4,7.829200476E-4,2.189405728E-3,2.507574166E-3
1.827217208E0,-5.301353522E-4,2.564936876E-4,-4.981732927E-4,7.713683510E-4
1.837174208E0,8.017114596E-4,1.032272354E-3,3.977138549E-4,1.366200493E-3
1.847131208E0,-1.420135377E-3,-1.254407689E-3,3.770091571E-3,4.219468402E-3
1.857087208E0,-9.900350124E-4,-6.554629654E-4,4.291538149E-3,4.452763267E-3
1.867044208E0,-1.791536692E-3,-4.516039044E-4,4.340889864E-3,4.717719217E-3
1.877001208E0,1.330220839E-3,-4.508057609E-4,-1.887444872E-3,2.352692386E-3
1.886958208E0,3.532614792E-4,-2.133883536E-3,-6.281356327E-4,2.252289278E-3
1.896915208E0,-6.121343467E-4,1.386282966E-3,5.348530598E-3,5.559070829E-3
1.906872208E0,-4.994007759E-4,1.515819691E-3,6.187941413E-3,6.390440470E-3
1.916829208E0,-3.238983918E-4,-1.292144880E-4,3.310928587E-3,3.329242355E-3
1.926785208E0,2.178594470E-3,4.590395838E-5,1.900042407E-4,2.187346029E-3
1.936742208E0,2.423605183E-3,-2.592756413E-3,-3.501936095E-3,4.985960721E-3
1.946699208E0,-2.381970640E-3,1.252628863E-3,8.205082268E-4,2.813555926E-3
1.956656208E0,-4.743481986E-4,1.218505204E-4,5.764133763E-3,5.784902056E-3
1.966613208E0,1.777487341E-4,-1.137782820E-3,4.967182875E-3,5.098926364E-3
1.976570208E0,2.435288625E-4,-8.965004236E-4,1.996426377E-3,2.201984922E-3
1.986527208E0,8.830364677E-4,-2.863388509E-4,-1.187995076E-5,9.283773339E-4
1.996483208E0,-7.966191042E-4,-1.609046012E-4,2.257665619E-3,2.399488766E-3
2.006440208E0,7.660350529E-4,2.334085293E-3,3.308283165E-3,4.120619050E-3
2.016397208E0,1.006784849E-3,6.432440132E-4,4.848388955E-3,4.993421077E-3
2.026354208E0,3.647964913E-4,-8.772835135E-4,3.873787820E-3,3.988600622E-3
2.036311208E0,2.204766497E-5,-2.022975124E-3,-4.984717816E-5,2.023709266E-3
2.046268208E0,7.126550190E-4,-2.288976684E-4,8.045458235E-4,1.098892761E-3
2.056225208E0,-4.199873656E-4,-8.055940270E-5,-8.135908283E-4,9.191350502E-4
2.066181208E0,8.869450539E-6,-1.009367406E-3,5.453621503E-3,5.546249970E-3
2.076138208E0,7.968988502E-4,-6.109587848E-4,4.563859198E-3,4.673021420E-3
2.086095208E0,7.291147485E-4,5.698269233E-4,1.659573056E-3,1.900129934E-3
2.096052208E0,8.446959546E-4,1.003118232E-4,-3.076859051E-3,3.192277453E-3
2.106009208E0,-6.735352799E-4,-1.450579613E-3,-1.428578515E-3,2.144450410E-3
2.115966208E0,1.150996424E-3,-6.825244054E-4,3.440212458E-3,3.691299783E-3
2.125923208E0,-5.994958337E-5,9.166570380E-4,4.659923725E-3,4.749604531E-3
2.135879208E0,-1.853845315E-4,-5.384944379E-4,3.814636730E-3,3.856915486E-3
2.145836208E0,-1.276460127E-3,1.072338782E-3,2.882762346E-3,3.330102050E-3
2.155793208E0,1.141690183E-3,3.631385043E-4,-2.558342181E-3,2.824967392E-3
2.165750208E0,-9.452501545E-4,7.336074486E-4,-8.284770884E-4,1.455352888E-3
2.175707208E0,-1.422488480E-3,-2.102659084E-3,3.839511424E-3,4.602879172E-3
2.185664208E0,1.848733518E-5,-1.423669979E-3,1.432252582E-3,2.019535949E-3
2.195621208E0,1.136748586E-3,1.342790201E-4,3.343869001E-3,3.534358230E-3
2.205577208E0,-7.261037827E-4,-2.539403737E-3,-1.969005913E-3,3.294356132E-3
2.215534208E0,-1.206804533E-3,-5.649365485E-4,-3.484725021E-4,1.377303005E-3
2.225491208E0,-7.778489962E-4,-2.986816689E-4,2.501085401E-3,2.636226087E-3
2.235448208E0,-1.397033921E-3,7.176399231E-5,5.573840812E-3,5.746699509E-3
2.245405208E0,-1.121664420E-3,-8.850805461E-4,6.203958765E-3,6.366364975E-3
2.255362208E0,1.875455491E-4,-7.932018489E-4,1.852619927E-3,2.023991873E-3
2.265319208E0,2.868346870E-3,7.268423215E-4,-1.708965749E-3,3.417056841E-3
2.275275208E0,5.577881820E-4,5.377577618E-4,1.943954267E-4,7.988120231E-4
2.285232208E0,1.333149849E-4,-1.267679967E-3,4.133817274E-3,4.325879175E-3
2.295189208E0,-1.978571992E-3,-7.446352392E-4,3.395055886E-3,3.999454118E-3
2.305146208E0,-1.976482570E-3,1.511590555E-3,3.800606355E-4,2.517108548E-3
2.315103208E0,8.587188204E-4,-5.576862022E-4,-2.064188709E-3,2.304188999E-3
2.325060208E0,9.584476938E-4,1.370443963E-3,7.749665529E-4,1.843179805E-3
2.335017208E0,1.430359902E-3,-1.816826873E-3,1.271113753E-3,2.638658657E-3
2.344973208E0,-3.216782352E-4,-1.017925330E-3,6.465245970E-3,6.552789811E-3
2.354930208E0,2.987033222E-3,1.015397720E-3,4.985060543E-3,5.899510879E-3
2.364887208E0,-1.962498296E-3,-1.967559569E-3,9.119436145E-4,2.924778859E-3
2.374844208E0,-9.228001582E-4,-2.468500286E-3,1.247134060E-4,2.638296274E-3
2.384801208E0,-2.909149975E-3,-8.644163609E-4,1.803534105E-4,3.040213245E-3
2.394758208E0,8.520323317E-4,2.378663048E-4,2.475466114E-3,2.628777654E-3
2.404715208E0,-6.586026866E-4,-1.020543277E-5,3.358017188E-3,3.422008340E-3
2.414671208E0,1.078044530E-3,2.891337499E-4,1.888485160E-3,2.193662356E-3
2.424628208E0,-7.199735846E-4,-8.432706818E-4,1.067002770E-3,1.538818480E-3
2.434585208E0,3.905646736E-4,1.489392482E-3,8.187959902E-4,1.743920182E-3
2.444542208E0,-6.718885852E-4,-1.332686283E-3,1.581409015E-3,2.174474987E-3
2.454499208E0,6.948456867E-4,-1.715915278E-3,2.493541688E-3,3.105628103E-3
2.464456833E0,9.824719746E-4,-2.546994947E-3,3.322154749E-3,4.299900768E-3
2.474413833E0,2.204596531E-3,-1.402962953E-4,-1.235579140E-3,2.531123214E-3
2.484369833E0,1.934363157E-3,-2.509091049E-3,2.005761489E-4,3.174512484E-3
2.494326833E0,1.095467480E-3,-1.314130612E-3,4.780776799E-4,1.776385806E-3
2.504283833E0,2.083668951E-4,7.637050003E-4,4.698747303E-3,4.764964670E-3
2.514240833E0,3.236817429E-4,2.740036696E-3,5.891044158E-3,6.505149671E-3
2.524197833E0,-7.614968345E-4,1.123809256E-3,1.054976601E-3,1.719244107E-3
2.534154833E0,8.758145268E-4,1.315822825E-3,-1.134940889E-3,1.945901234E-3
2.544111833E0,1.944786170E-3,-4.249224439E-4,-1.153082121E-3,2.300510967E-3
2.554067833E0,2.206556965E-4,1.302669756E-3,3.931159154E-3,4.147246041E-3
2.564024833E0,-8.520346601E-4,8.552297950E-4,5.518426653E-3,5.648930323E-3
2.573981833E0,-2.144738100E-4,-3.314744681E-4,5.005768035E-3,5.021313369E-3
2.583938833E0,-1.449760981E-3,-2.445671707E-3,2.949551214E-3,4.096702255E-3
2.593895833E0,8.727819077E-4,1.794062555E-4,-1.485144254E-3,1.731931961E-3
2.603852833E0,3.296606010E-3,1.440932043E-3,-1.206342131E-4,3.599784570E-3
2.613809833E0,3.865698818E-4,-1.102653332E-3,3.930566832E-3,4.100565360E-3
2.623765833E0,-1.683541108E-3,4.650764167E-4,4.771009088E-3,5.080662796E-3
2.633722833E0,1.884828322E-3,1.952983439E-6,1.662301365E-3,2.513131004E-3
2.643679833E0,2.194150817E-3,-2.709783614E-3,-5.191601813E-4,3.525159902E-3
2.653636833E0,-2.032818273E-3,8.316878229E-4,-1.216109376E-3,2.510572998E-3
2.663593833E0,1.104739378E-3,3.140792251E-4,2.331079450E-3,2.598658549E-3
2.673550833E0,7.002052153E-4,-1.293936744E-3,6.244861055E-3,6.415828025E-3
2.683507833E0,-2.754876390E-3,9.453846142E-4,4.042011686E-3,4.982063273E-3
2.693463833E0,-2.355257748E-4,-4.037721083E-4,-7.567387074E-4,8.894705039E-4
2.703420833E0,-4.697054392E-4,-6.798747927E-4,-1.649588346E-3,1.844991774E-3
2.713377833E0,-1.682775444E-3,-1.534749754E-3,3.927899525E-4,2.311162900E-3
2.723334833E0,-1.746790484E-3,1.657940447E-4,4.140859470E-3,4.497274931E-3
2.733291833E0,4.924531095E-5,3.144273534E-3,5.574173294E-3,6.400022584E-3
2.743248833E0,9.308534209E-4,-4.436727613E-4,5.320590455E-3,5.419595594E-3
2.753205833E0,-2.014070051E-3,-3.840178251E-4,4.858877510E-4,2.107139000E-3
2.763161833E0,-1.773703028E-3,-5.504749715E-4,-1.280104276E-3,2.255595727E-3
2.773118833E0,3.151014447E-3,-1.921470277E-3,-2.997945994E-4,3.702812022E-3
2.783075833E0,-1.285653911E-3,-1.242734492E-3,5.512887146E-3,5.795620733E-3
2.793032833E0,2.864882583E-3,1.029208302E-3,5.443378817E-3,6.236761571E-3
2.802989833E0,9.999189060E-4,-4.000458866E-4,4.016190302E-3,4.158083581E-3
2.812946833E0,8.960557170E-4,-1.541743055E-3,-1.500281040E-3,2.330392820E-3
2.822903833E0,1.789839822E-3,-1.206206158E-3,-1.069447957E-3,2.408771225E-3
2.832859833E0,-7.233852521E-4,-1.647225581E-3,1.933265943E-3,2.640862652E-3
2.842816833E0,1.717655454E-3,1.471658237E-3,4.117923323E-3,4.698234852E-3
2.852773833E0,2.923315624E-4,1.217592508E-3,3.670778591E-3,3.878479692E-3
2.862730833E0,-1.797383069E-3,1.518633217E-4,2.730699722E-3,3.272670062E-3
2.872687833E0,1.880176133E-3,-1.996746287E-4,2.170104068E-3,2.878243199E-3
2.882644833E0,1.396540320E-4,-2.914045006E-3,1.579781063E-3,3.317660283E-3
2.892601833E0,1.452466240E-4,-4.213266075E-4,2.460222226E-3,2.500261205E-3
2.902557833E0,-2.185241319E-4,-1.856070012E-4,5.884166807E-3,5.891147746E-3
2.912514833E0,-1.957568340E-3,1.139049418E-3,2.540035173E-3,3.403128864E-3
2.922471833E0,-5.838307552E-4,-4.497841001E-4,-5.902787670E-4,9.442420824E-4
2.932428833E0,3.549334360E-4,-2.329443581E-3,-1.711735968E-3,2.912443161E-3
2.942385833E0,-1.454062061E-3,-1.554528251E-3,2.913758624E-3,3.608440644E-3
2.952342833E0,1.801918610E-3,9.531043470E-4,5.258138757E-3,5.639445164E-3
2.962299833E0,-7.341215387E-4,-3.332458436E-4,3.295905422E-3,3.393078216E-3
2.972255833E0,-2.614047145E-3,2.473238856E-4,6.159665063E-4,2.697003211E-3
2.982212833E0,-6.379411789E-4,2.326834947E-3,3.136927262E-5,2.412905686E-3
2.992169833E0,-1.333825174E-3,2.005668357E-4,1.129657030E-3,1.759386727E-3
3.002126833E0,-1.447903807E-3,-6.939843297E-4,3.564318642E-3,3.909271936E-3
3.012083833E0,-1.315811067E-3,-2.324581146E-4,5.985132419E-3,6.132471411E-3
3.022040833E0,1.461675391E-3,2.136602998E-4,4.060517065E-3,4.320873119E-3
3.031997833E0,8.089346229E-4,7.300470024E-4,2.239672467E-4,1.112432100E-3
3.041953833E0,-1.852668589E-3,1.127257943E-3,-6.371331401E-4,2.260316352E-3
3.051910833E0,1.109299250E-3,-1.584905200E-3,2.137348056E-3,2.882832987E-3
3.061867833E0,4.371325485E-4,-4.349723458E-4,4.813374486E-3,4.852716739E-3
3.071824833E0,-1.023078687E-3,-1.106001437E-4,3.073798027E-3,3.241474464E-3
3.081781833E0,9.285988053E-4,-1.024597324E-3,1.189546660E-3,1.824038561E-3
3.091738833E0,-6.655694451E-4,-7.641399279E-4,1.911274157E-4,1.031223644E-3
3.101694833E0,-7.861375343E-5,-2.079430036E-3,5.048792809E-4,2.141287577E-3
3.111651833E0,-2.389172325E-3,-1.082608476E-3,3.724907525E-3,4.555778921E-3
3.121608833E0,-3.317506751E-3,1.385691576E-3,5.613239016E-3,6.665916624E-3
3.131565833E0,-3.406251781E-4,-1.488658600E-3,1.136731822E-3,1.903756595E-3
3.141522833E0,9.656884358E-4,-4.198392853E-4,6.714267656E-4,1.248852706E-3
3.151479833E0,8.056324441E-4,-3.609834239E-4,-8.497708477E-4,1.225342059E-3
3.161436833E0,-7.249645423E-4,1.112766564E-3,2.864290029E-3,3.157210855E-3
3.171392833E0,-1.645353157E-3,1.144457608E-3,4.994818941E-3,5.381931482E-3
3.181349833E0,-1.150901197E-3,-8.548544720E-4,3.679400776E-3,3.948840311E-3
3.191306833E0,1.321577700E-3,-8.600018919E-5,-7.955092005E-4,1.544926709E-3
3.201263833E0,-2.894483041E-4,-5.634529516E-4,6.388695911E-4,8.996743321E-4
3.211220833E0,1.969711157E-3,1.161476597E-3,7.019862533E-4,2.391981318E-3
3.221177833E0,-1.104748342E-3,-1.033917069E-3,2.600237262E-3,3.008436009E-3
3.231134833E0,-1.390771940E-3,7.972726598E-4,4.629299510E-3,4.899010537E-3
3.241090833E0,-2.884236630E-3,1.010594890E-3,1.850543544E-3,3.572762849E-3
3.251047833E0,-1.169457100E-4,1.162927598E-3,1.997017302E-3,2.313904708E-3
3.261004833E0,-2.931052586E-4,-1.246551052E-3,4.389830865E-4,1.353700989E-3
3.270961833E0,6.927970098E-4,-5.125831813E-4,1.942603849E-3,2.125186798E-3
3.280918833E0,-3.718341468E-4,2.154208720E-3,1.376448665E-3,2.583309267E-3
3.290875833E0,1.959230751E-3,1.564319246E-3,3.569827881E-3,4.362264427E-3
3.300832833E0,-9.027704364E-4,-1.279613003E-3,1.628383994E-3,2.259211883E-3
3.310788833E0,6.903324975E-4,-1.501188613E-3,-8.097402751E-4,1.840055848E-3
3.320745833E0,-3.099308815E-4,-3.158757463E-4,-9.102746844E-4,1.012143586E-3
3.330702833E0,1.653617714E-3,2.343337983E-4,2.568878699E-3,3.064066194E-3
3.340659833E0,-1.973065548E-3,-5.809068680E-4,5.376814865E-3,5.756785434E-3
3.350616833E0,-4.723742604E-4,1.181040891E-3,3.382107243E-3,3.613397906E-3
3.360573833E0,-2.052902710E-5,-1.088648103E-3,8.737896569E-4,1.396096164E-3
3.370530833E0,2.734777518E-3,9.113857523E-4,-1.544626895E-3,3.270398188E-3
3.380486833E0,-1.420794753E-3,-2.361111343E-3,-4.685642198E-4,2.795184597E-3
3.390443833E0,-5.193145480E-4,7.092468441E-4,4.985855427E-3,5.062753502E-3
3.400400833E0,2.016815124E-4,-1.130593941E-3,5.155128427E-3,5.281502361E-3
3.410357833E0,1.526604174E-3,-1.578804106E-3,2.592101693E-3,3.397371616E-3
3.420314833E0,2.008685144E-3,4.952317104E-4,-5.069218576E-3,5.475129900E-3
3.430271833E0,-8.198581636E-4,1.023069955E-3,-2.055852208E-3,2.438312499E-3
3.440228833E0,1.633206150E-3,-1.465991139E-3,2.619032748E-3,3.416990618E-3
3.450184833E0,-2.698159311E-3,-9.579490870E-5,4.781519063E-3,5.491098695E-3
3.460141833E0,-2.248660661E-3,2.251356840E-3,4.759781994E-3,5.725435094E-3
3.470098333E0,-2.499583643E-4,-1.460556872E-3,1.530699432E-3,2.130433362E-3
3.480055333E0,9.987824596E-4,4.984745756E-4,-8.714469150E-4,1.416143718E-3
3.490012333E0,1.282941666E-3,-3.129905090E-4,-3.707725555E-4,1.371632118E-3
3.499969333E0,-1.362629817E-3,-6.027380005E-4,1.840802841E-3,2.368250032E-3
3.509926333E0,-2.912400523E-4,1.648698002E-3,5.035530776E-3,5.306561605E-3
3.519882333E0,6.560682086E-4,-1.609669067E-3,4.244085867E-3,4.586253901E-3
3.529839333E0,2.557565225E-3,1.344354823E-4,-7.783696055E-4,2.676765216E-3
3.539796333E0,5.979273701E-4,-8.374005556E-4,2.067666035E-3,2.309545337E-3
3.549753333E0,-6.180719938E-4,-2.069910988E-3,3.898589406E-3,4.457077949E-3
3.559710333E0,2.099573612E-3,3.394708037E-4,2.964531071E-3,3.648546869E-3
3.569667333E0,2.448181389E-3,-6.115445867E-4,2.728737891E-4,2.538117215E-3
3.579624333E0,-2.150595188E-3,-1.508466899E-3,1.667155884E-4,2.632171373E-3
3.589580333E0,-1.033665496E-3,1.519814134E-3,-1.916941255E-3,2.655741541E-3
3.599537333E0,-1.329841209E-3,6.127385423E-4,1.585045364E-3,2.157844982E-3
3.609494333E0,-1.868124818E-4,2.109434456E-3,3.871103283E-3,4.412488329E-3
3.619451333E0,-9.623328224E-4,1.133861952E-3,5.546493921E-3,5.742414319E-3
3.629408333E0,1.004944206E-3,-3.066416830E-4,2.856168430E-3,3.043294281E-3
3.639365333E0,-1.244127750E-3,-7.820567116E-4,-1.803519670E-3,2.326402751E-3
3.649322333E0,1.515439828E-3,-1.810835674E-3,-4.048564471E-3,4.686849474E-3
3.659278333E0,4.698502598E-4,1.028329134E-3,2.138661221E-3,2.419109731E-3
3.669235333E0,-1.080109505E-3,1.091712154E-3,3.702202812E-3,4.008089025E-3
3.679192333E0,6.083800690E-4,-1.613347791E-3,2.194956876E-3,2.791209969E-3
3.689149333E0,8.573855739E-4,1.323319972E-3,1.339550130E-3,2.068980503E-3
3.699106333E0,6.533162668E-4,-2.233742736E-3,-2.260171343E-3,3.244195317E-3
3.709063333E0,-1.901187701E-3,-3.804489970E-4,-6.729271263E-4,2.052336968E-3
3.719020333E0,2.747740597E-3,-8.639926091E-4,1.549297478E-3,3.270609162E-3
3.728976333E0,1.637734938E-3,2.984767780E-4,5.365075078E-3,5.617409964E-3
3.738933333E0,-1.446800539E-3,7.171332836E-4,2.276790328E-3,2.791287543E-3
3.748890333E0,-1.994080143E-3,-8.203098550E-4,4.338822328E-4,2.199435761E-3
3.758847333E0,7.786687929E-4,-1.810524613E-3,1.125755254E-3,2.269724511E-3
3.768804333E0,1.441529486E-3,-1.798709854E-4,-8.801375516E-4,1.698529641E-3
3.778761333E0,-1.269991277E-3,2.266382799E-4,2.788246609E-3,3.072224261E-3
3.788718333E0,1.585450023E-3,3.390237689E-4,4.632218741E-3,4.907752984E-3
3.798674333E0,6.663219538E-4,-1.632012427E-3,1.225326210E-3,2.146828784E-3
3.808631333E0,-1.499893260E-3,-6.820624694E-4,-3.611189313E-4,1.686800488E-3
3.818588333E0,1.487473492E-4,-2.714787610E-3,8.050552569E-4,2.835544305E-3
3.828545333E0,-7.700432325E-4,-2.578699961E-3,2.166463528E-3,3.454884121E-3
3.838502333E0,-2.517538378E-4,2.997294068E-4,4.126187414E-3,4.144712329E-3
3.848459333E0,-8.879828965E-4,-5.908319727E-4,3.542955033E-3,3.700017083E-3
3.858415333E0,6.811900530E-4,4.367344081E-5,4.266719334E-4,8.049696867E-4
3.868372333E0,2.157113981E-3,-5.683209747E-4,-4.050101619E-3,4.623792013E-3
3.878329333E0,5.803088425E-4,1.966636628E-3,-5.236552097E-4,2.116278044E-3
3.888286333E0,1.196830650E-3,-7.055792958E-4,3.683872521E-3,3.937151572E-3
3.898243333E0,-5.815366749E-4,1.027388498E-3,6.043282337E-3,6.157513576E-3
3.908200333E0,1.823297702E-3,-2.301030792E-3,2.599814907E-3,3.921504146E-3
3.918157333E0,-4.850875121E-4,6.083846092E-4,-2.338733990E-3,2.464775528E-3
3.928114333E0,2.025474329E-3,1.164991409E-4,-3.321174067E-3,3.891826754E-3
3.938070333E0,-3.783828579E-4,-1.256603748E-3,2.542207483E-3,2.860951844E-3
3.948027333E0,-1.544109546E-4,-2.531250939E-4,4.088438582E-3,4.099176148E-3
3.957984333E0,-4.942149390E-4,2.835572697E-3,2.812973224E-3,4.024616663E-3
3.967941333E0,-4.255054519E-4,1.363378018E-3,2.833479084E-3,3.173083395E-3
3.977898333E0,-3.101079259E-3,-1.460034400E-3,-3.186603310E-3,4.680046332E-3
3.987855333E0,2.236161847E-3,-7.561612874E-4,7.197214290E-4,2.467832781E-3
3.997811333E0,-1.721054316E-3,4.620465916E-3,2.514021005E-3,5.534531132E-3
4.007768333E0,2.831353340E-3,4.150681198E-4,3.585677128E-3,4.587583650E-3
4.017725333E0,1.963501796E-3,-2.548403107E-3,2.543693408E-3,4.101228335E-3
4.027682333E0,-2.516201464E-3,-6.666136906E-4,1.308519393E-3,2.913394348E-3
4.037639333E0,-4.268663470E-4,1.644073054E-4,-1.712894533E-3,1.772921973E-3
4.047596333E0,-3.134156577E-4,-2.390621230E-4,1.708734781E-3,1.753611879E-3
4.057553333E0,-2.045446308E-4,8.275369182E-4,2.821942791E-3,2.947883474E-3
4.067509333E0,1.823186176E-3,-1.622305252E-3,4.839021713E-3,5.419595307E-3
4.077466333E0,-3.179048654E-4,9.614853188E-4,2.233936451E-3,2.452751433E-3
4.087423333E0,3.239279380E-3,-9.988676757E-4,-2.275593579E-3,4.082767893E-3
4.097380333E0,2.400391502E-3,-8.469037712E-4,-1.495076809E-3,2.952012877E-3
4.107337333E0,4.368429072E-4,1.157658175E-3,2.356919460E-3,2.661967978E-3
4.117294333E0,-2.137783449E-4,-6.690295413E-4,5.907298066E-3,5.948905122E-3
4.127251333E0,-2.132852096E-3,8.058287203E-4,2.380207181E-3,3.296028552E-3
4.137207333E0,-1.972188940E-3,1.047123224E-4,1.566575840E-3,2.520843857E-3
4.147164333E0,4.435656592E-5,-2.541670576E-3,-2.157588955E-3,3.334253578E-3
4.157121333E0,1.886195736E-3,-1.334646717E-3,1.254407689E-4,2.314033621E-3
4.167078333E0,5.378372734E-4,6.115911528E-4,3.037074581E-3,3.144381446E-3
4.177035333E0,-2.815504093E-3,1.447452232E-4,2.248738427E-3,3.606222260E-3
4.186992333E0,1.985376468E-3,-1.101081260E-3,1.356846187E-3,2.644831041E-3
4.196949333E0,7.682173164E-4,7.401658222E-4,-1.032494940E-3,1.484604018E-3
4.206905333E0,9.943196783E-4,-1.433506608E-3,1.090843696E-3,2.057559911E-3
4.216862333E0,3.382628784E-4,-1.356471330E-3,2.029486466E-3,2.464396794E-3
4.226819333E0,3.043768229E-3,-8.043982089E-4,2.833229024E-3,4.235418304E-3
4.236776333E0,-8.797373157E-4,1.394776627E-4,9.011179209E-4,1.267045883E-3
4.246733333E0,-6.901202723E-4,2.081454732E-3,4.750122316E-4,2.243737153E-3
4.256690333E0,1.772496616E-4,-6.816070527E-4,-1.771162730E-3,1.906049063E-3
4.266647333E0,9.535610443E-4,-1.311711036E-3,6.648306735E-4,1.752673481E-3
4.276603333E0,8.915643557E-4,-1.102223992E-3,3.914769739E-3,4.163556994E-3
4.286560333E0,1.112074126E-3,1.352678053E-3,5.997894332E-3,6.248294423E-3
4.296517333E0,1.277199248E-3,-2.129073255E-3,-4.550446756E-4,2.524134802E-3
4.306474333E0,1.348305726E-3,-1.998578198E-3,-4.524354823E-3,5.126600210E-3
4.316431333E0,-1.492452575E-4,3.074305132E-4,2.382788341E-3,2.407170112E-3
4.326388333E0,1.996288775E-4,1.353900880E-4,3.560438287E-3,3.568599579E-3
4.336345333E0,-9.804473957E-4,-1.477254555E-3,4.084995948E-3,4.453173027E-3
4.346301333E0,-1.435315353E-3,2.977428958E-4,3.442641348E-3,3.741732278E-3
4.356258333E0,-1.036467962E-3,3.491770476E-4,2.256752457E-3,2.507812214E-3
4.366215333E0,-8.527098689E-4,-1.095321961E-3,4.712818190E-5,1.388907982E-3
4.376172333E0,7.182445843E-4,-8.415859193E-4,-5.821557716E-5,1.107940069E-3
4.386129333E0,1.017850125E-3,-4.682103172E-4,2.192421816E-3,2.462103409E-3
4.396086333E0,-6.911307573E-4,2.713722177E-3,3.545875661E-3,4.518316499E-3
4.406043333E0,3.914443078E-4,4.226043820E-4,4.556013271E-3,4.592284838E-3
4.415999333E0,-7.092054002E-4,3.721825778E-4,1.848950051E-4,8.219965534E-4
4.425956333E0,9.627271793E-4,2.214480191E-4,-1.228977460E-3,1.576790552E-3
4.435913333E0,-3.309776075E-3,-6.138999015E-5,3.274348564E-3,4.656151299E-3
4.445870333E0,-1.897767885E-3,-1.438244246E-3,6.742583588E-3,7.150699469E-3
4.455827333E0,-1.794055570E-3,2.260121517E-3,1.869558357E-3,3.438318355E-3
4.465785000E0,-4.534202162E-4,1.274485141E-3,7.457043976E-4,1.544660906E-3
4.475742000E0,1.783433836E-4,-1.093083993E-4,-9.909425862E-4,1.012779294E-3
4.485698000E0,-2.188407816E-3,1.882202923E-3,3.548415378E-3,4.574174057E-3
4.495655000E0,-1.334162895E-3,-4.286365584E-4,3.323880024E-3,3.607200902E-3
4.505612000E0,-9.842235595E-4,-2.374211326E-4,4.240806215E-3,4.359988780E-3
4.515569000E0,-8.531010244E-4,2.126379870E-3,2.528893296E-3,3.412414689E-3
4.525526000E0,5.634344416E-4,-1.482265070E-4,9.476393461E-5,5.902623744E-4
4.535483000E0,2.050621901E-3,1.091897488E-3,3.087422810E-4,2.343632245E-3
4.545440000E0,-9.347816231E-4,6.556725129E-4,2.542069182E-3,2.786725471E-3
4.555396000E0,5.591452355E-4,-2.956860699E-3,3.737841267E-3,4.798658763E-3
4.565353000E0,1.885133097E-3,-1.346979290E-3,5.664904136E-3,6.120393686E-3
4.575310000E0,8.518152172E-4,-1.934103668E-3,2.126710489E-3,2.998206742E-3
4.585267000E0,-4.440790508E-4,-1.168178394E-3,-4.297366366E-3,4.475399943E-3
4.595224000E0,-2.151217777E-3,1.308890060E-4,7.374584675E-5,2.156457351E-3
4.605181000E0,1.068011392E-3,-1.224925742E-3,7.896032184E-4,1.806810629E-3
4.615138000E0,-3.321260447E-4,-2.091294155E-4,7.113048341E-3,7.123868298E-3
4.625094000E0,9.672302986E-4,1.456677914E-3,3.887960222E-3,4.263059896E-3
4.635051000E0,-7.563622203E-4,1.181037165E-3,1.854859293E-4,1.414686405E-3
4.645008000E0,-3.403765149E-4,8.750399575E-4,-1.896040980E-3,2.115779406E-3
4.654965000E0,-6.601575296E-4,8.024582639E-4,-3.698705696E-4,1.102973920E-3
4.664922000E0,6.921956665E-4,7.513258606E-4,2.165192738E-3,2.394093771E-3
4.674879000E0,-3.984189825E-4,-1.494873315E-3,3.539233934E-3,3.862584725E-3
4.684836000E0,-1.234385301E-3,-3.439653665E-5,1.781015191E-3,2.167234483E-3
4.694792000E0,5.425923737E-4,-1.483101398E-3,-1.156666782E-3,1.957517378E-3
4.704749000E0,1.217437326E-3,-1.603094861E-4,-2.502362244E-3,2.787412702E-3
4.714706000E0,9.104793426E-4,-5.444232374E-5,-1.841140911E-4,9.305023366E-4
4.724663000E0,-4.549233709E-4,-4.136536270E-3,3.383456729E-3,5.363363406E-3
4.734620000E0,-1.392023405E-4,2.090279013E-4,2.270970494E-3,2.284814421E-3
4.744577000E0,-1.642360585E-4,-3.366535529E-4,2.299466170E-3,2.329775476E-3
4.754533000E0,-7.208227180E-4,3.687599674E-4,2.613323741E-4,8.508019241E-4
4.764490000E0,7.966464036E-4,-2.064837143E-3,-7.466739044E-4,2.335748239E-3
4.774447000E0,4.482503282E-4,1.486027613E-4,2.649672329E-3,2.691426126E-3
4.784404000E0,-1.494525699E-3,5.289018154E-4,5.552250892E-3,5.774152246E-3
4.794361000E0,-9.207460098E-4,8.103158325E-4,3.341061994E-3,3.559084182E-3
4.804318000E0,1.715517254E-3,1.096380875E-4,5.183778703E-4,1.795476420E-3
4.814275000E0,1.760037732E-3,1.301939599E-3,1.040489413E-3,2.423921978E-3
4.824231000E0,2.481612610E-4,3.506578505E-4,-2.442193218E-4,4.941538391E-4
4.834188000E0,1.622265554E-3,8.446443826E-5,2.934646327E-3,3.354255332E-3
4.844145000E0,-1.099485089E-3,5.968566984E-4,2.584441099E-3,2.871313493E-3
4.854102000E0,6.983014755E-4,-6.211884320E-4,2.290444914E-3,2.473790194E-3
4.864059000E0,-5.046483129E-4,1.195354387E-3,-8.033495396E-4,1.526077493E-3
4.874016000E0,-4.029797390E-3,8.662110195E-4,-3.157402389E-4,4.133918291E-3
4.883973000E0,6.374705117E-5,-1.533829607E-3,2.660076134E-3,3.071270419E-3
4.893929000E0,-7.535937475E-4,5.433000624E-4,3.774274141E-3,3.886929866E-3
4.903886000E0,-2.136573195E-3,1.156359911E-3,2.891702577E-3,3.776778662E-3
4.913843000E0,7.034069276E-4,-1.033617184E-3,-1.224195585E-3,1.749800165E-3
4.923800000E0,-3.378889523E-4,2.747932449E-4,-3.874306567E-4,5.829088997E-4
4.933757000E0,-7.292818045E-4,-1.592640765E-3,-5.592713133E-4,1.838787905E-3
4.943714000E0,-7.583101979E-4,2.233684063E-4,2.980868332E-3,3.083910474E-3
4.953671000E0,7.907877443E-4,7.492406294E-4,3.428679891E-3,3.597575930E-3
4.963627000E0,-2.152804285E-3,7.210113108E-4,1.542096958E-3,2.744537598E-3
4.973584000E0,3.073684871E-3,-1.999383792E-3,-2.261297777E-3,4.307962613E-3
4.983541000E0,3.695111955E-4,-2.123487182E-3,-8.889706805E-4,2.331524224E-3
4.993498000E0,3.611963475E-4,5.319649354E-4,1.633575186E-3,1.755567539E-3
5.003455000E0,3.990132827E-4,8.845673874E-4,6.138046272E-3,6.214280578E-3
5.013412000E0,1.063270494E-3,1.013372093E-4,3.721045330E-3,3.871303621E-3
5.023369000E0,7.306417101E-4,1.639220864E-4,-9.426828474E-4,1.203893147E-3
5.033325000E0,-3.006545827E-3,-2.062404528E-4,-1.835172530E-3,3.528414821E-3
5.043282000E0,1.004174934E-3,-2.263266593E-3,5.773850717E-4,2.542462682E-3
5.053239000E0,-2.064521657E-3,-7.754843682E-5,3.190476913E-3,3.800974397E-3
5.063196000E0,1.356575172E-3,-1.563592814E-3,5.362284835E-3,5.747975065E-3
5.073153000E0,-1.773668686E-3,1.523857936E-4,4.400984384E-3,4.747397770E-3
5.083110000E0,5.981426220E-4,-2.242861316E-3,-1.755178906E-3,2.910129631E-3
5.093067000E0,1.056712819E-3,1.141477376E-3,1.085615251E-3,1.896885093E-3
5.103023000E0,9.089073283E-4,4.882039502E-4,1.256856136E-3,1.626082094E-3
5.112980000E0,-2.125418745E-3,-8.663581684E-4,2.821295522E-3,3.636989104E-3
5.122937000E0,-1.551241148E-3,1.029280014E-3,5.648241378E-3,5.947133521E-3
5.132894000E0,9.018265409E-4,-7.082242519E-5,1.165259629E-3,1.475173525E-3
5.142851000E0,5.513544893E-4,1.911900938E-3,-9.253215976E-4,2.194442304E-3
5.152808000E0,3.295318456E-4,-1.164830290E-3,2.253343351E-3,2.557924373E-3
5.162765000E0,-4.827321973E-4,2.333498560E-3,5.977241322E-3,6.434722972E-3
5.172721000E0,-4.024153575E-3,1.499442384E-3,4.225937650E-3,6.025005268E-3
5.182678000E0,6.909732474E-4,-1.433496363E-3,6.900960580E-5,1.592833381E-3
5.192635000E0,-4.166405415E-4,-1.499495469E-3,-3.294351278E-3,3.643463509E-3
5.202592000E0,3.191907890E-4,-3.804350272E-4,2.061077394E-4,5.376745948E-4
5.212549000E0,-1.974630868E-4,1.099281944E-3,4.143462982E-3,4.291351529E-3
5.222506000E0,-1.472051954E-3,1.635110006E-3,5.347745027E-3,5.782637682E-3
5.232463000E0,-1.017950359E-3,-2.637660131E-3,3.235673066E-3,4.296865612E-3
5.242419000E0,2.421255922E-3,1.738979481E-3,5.850284360E-4,3.037892056E-3
5.252376000E0,5.260828184E-4,-1.588389277E-3,1.236158423E-3,2.080344028E-3
5.262333000E0,3.093015403E-4,-9.396430105E-4,1.144343987E-4,9.958371662E-4
5.272290000E0,-1.836101292E-4,9.335130453E-4,1.593564171E-3,1.855964993E-3
5.282247000E0,5.796519108E-4,-1.119252294E-3,3.341663163E-3,3.571475148E-3
5.292204000E0,-3.409225959E-3,-5.332231522E-4,2.325444948E-3,4.161110762E-3
5.302161000E0,1.090760343E-4,1.971214078E-3,1.103586517E-3,2.261743957E-3
5.312117000E0,6.667788839E-4,-3.834487870E-4,-1.432285644E-4,7.823947047E-4
5.322074000E0,2.014870988E-3,-2.168298699E-3,7.316195406E-4,3.049014841E-3
5.332031000E0,2.626578324E-3,-2.552837133E-3,2.413850278E-3,4.386634733E-3
5.341988000E0,1.519502141E-3,3.494760022E-4,2.452732064E-3,2.906357653E-3
5.351945000E0,1.206714078E-3,-2.962193452E-3,1.521815546E-3,3.542128099E-3
5.361902000E0,-2.090811962E-3,6.549116224E-4,-1.402868424E-3,2.601623283E-3
5.371859000E0,5.733000580E-4,-3.065476194E-4,9.631710127E-4,1.162042512E-3
5.381815000E0,-2.840340137E-3,4.513887689E-4,3.905698191E-3,4.850336306E-3
5.391772000E0,-1.428135438E-4,-4.819286987E-4,4.489442799E-3,4.517493512E-3
5.401729000E0,1.806087792E-3,-1.945335418E-3,1.006294042E-3,2.838822062E-3
5.411686000E0,1.411216916E-3,-1.672869548E-4,-1.668575685E-3,2.191726015E-3
5.421643000E0,2.404912375E-4,-4.748813808E-4,-5.945228040E-4,7.980010812E-4
5.431600000E0,-2.973041264E-3,-1.229280606E-3,1.621189527E-3,3.602549188E-3
5.441557000E0,-6.835213862E-4,-1.400521956E-3,3.534670919E-3,3.862973174E-3
5.451513000E0,5.487123271E-4,-4.575448111E-4,3.926822450E-3,3.991286387E-3
5.461470000E0,2.691225382E-3,-1.341980882E-3,1.463131513E-3,3.344302703E-3
5.471426375E0,-3.145141527E-3,-1.276914030E-3,-1.947518438E-3,3.913470676E-3
5.481383375E0,-1.436723629E-3,8.682617918E-4,-6.646737456E-4,1.805503950E-3
5.491340375E0,-2.606258495E-3,7.187938318E-4,3.789184615E-3,4.654800529E-3
5.501297375E0,1.566382241E-3,-6.415490061E-4,4.782011732E-3,5.072748236E-3
5.511254375E0,1.244785497E-3,-1.908387057E-3,2.107228618E-3,3.103521314E-3
5.521210375E0,-8.061148692E-4,-1.830622554E-3,6.416905671E-4,2.100658683E-3
5.531167375E0,1.316537033E-3,1.020728610E-3,-4.262551665E-4,1.719549395E-3
5.541124375E0,-1.655120868E-4,1.100890338E-3,1.869655680E-3,2.175997737E-3
5.551081375E0,7.365681813E-4,-5.480898544E-4,5.192005541E-3,5.272556943E-3
5.561038375E0,-1.462137559E-3,2.613615245E-3,4.607707728E-3,5.495434596E-3
5.570995375E0,-8.950249758E-4,4.787063226E-4,1.309853513E-3,1.657089519E-3
5.580952375E0,-6.385624874E-4,-6.763068959E-4,-2.629227936E-3,2.788905271E-3
5.590908375E0,1.882080804E-3,1.139333472E-3,-2.656141296E-4,2.216045978E-3
5.600865375E0,1.072746236E-3,-5.909223109E-4,2.839897759E-3,3.092732279E-3
5.610822375E0,1.236456446E-4,-9.840158746E-4,3.501318395E-3,3.639066637E-3
5.620779375E0,2.799856244E-3,1.718559302E-3,8.815671317E-4,3.401441116E-3
5.630736375E0,-1.393200364E-5,1.914892346E-5,-1.070580911E-3,1.070842784E-3
5.640693375E0,7.858152967E-4,-1.554246992E-3,-2.377660014E-3,2.947279514E-3
5.650650375E0,1.140156295E-3,-1.409021206E-3,2.409036737E-3,3.014756232E-3
5.660606375E0,-3.488170914E-4,-1.034314744E-3,1.707826275E-3,2.026857405E-3
5.670563375E0,-1.878173789E-4,-2.404622734E-3,5.051780958E-3,5.598033289E-3
5.680520375E0,1.014333451E-3,-6.272289902E-4,1.817105804E-3,2.173513758E-3
5.690477375E0,-9.800072294E-4,-8.516181260E-4,3.754603676E-4,1.351531757E-3
5.700434375E0,1.466106274E-3,-9.640036151E-4,-1.409923192E-3,2.250922918E-3
5.710391375E0,-1.859595301E-3,-9.920028970E-4,8.177775890E-4,2.260735415E-3
5.720348375E0,-2.157869283E-3,1.705513336E-3,2.573333681E-3,3.766592865E-3
5.730304375E0,-2.154783811E-3,-1.201414503E-3,2.248344012E-3,3.337894677E-3
5.740261375E0,1.619714429E-3,9.693279862E-4,1.535149291E-3,2.433054648E-3
5.750218375E0,-9.685917757E-4,1.310861669E-3,9.763026610E-4,1.899919796E-3
5.760175375E0,-2.806972479E-4,-2.012764104E-3,1.916131936E-3,2.793129406E-3
5.770132375E0,-1.905962825E-3,5.386685953E-4,3.309131600E-3,3.856580103E-3
5.780089375E0,1.779319369E-3,-1.008361578E-3,2.396732569E-3,3.150729677E-3
5.790046375E0,-2.119722776E-3,1.584551297E-3,2.684437670E-3,3.769646278E-3
5.800002375E0,5.045561120E-4,1.195464283E-4,-2.111649141E-3,2.174380443E-3
5.809959375E0,1.466949703E-3,-4.808288068E-4,-1.624224707E-3,2.240813172E-3
5.819916375E0,9.034248069E-4,-1.637440175E-3,9.427964687E-4,2.094338055E-3
5.829873375E0,-5.087356549E-4,-2.395799384E-4,3.643673379E-3,3.686809760E-3
5.839830375E0,8.350952994E-4,7.121078670E-5,4.686531611E-4,9.602556538E-4
5.849787375E0,-2.877146937E-3,5.355337635E-4,2.312744502E-3,3.730088208E-3
5.859744375E0,1.431314973E-3,7.294304669E-5,-3.281491343E-3,3.580805590E-3
5.869700375E0,-5.961767165E-4,3.312742338E-4,1.005998347E-3,1.215401978E-3
5.879657375E0,-7.897884352E-4,7.774122059E-5,3.777816426E-3,3.860272842E-3
5.889614375E0,-1.899949624E-3,5.895392969E-4,7.634785958E-3,7.889697192E-3
5.899571375E0,2.798132598E-3,-3.449646756E-4,1.506851986E-3,3.196740461E-3
5.909528375E0,8.974369266E-4,-1.342936419E-3,-2.328371163E-3,2.833757847E-3
5.919485375E0,-1.547078602E-3,-1.967120916E-4,1.762776636E-3,2.353620470E-3
5.929442375E0,1.141911140E-3,-1.547671854E-5,3.224261105E-3,3.420535083E-3
5.939398375E0,-3.121118061E-5,7.683411241E-7,2.776583657E-3,2.776759178E-3
5.949355375E0,4.723352613E-4,1.290074550E-3,2.770508174E-3,3.092427604E-3
5.959312375E0,6.217386108E-4,1.252789982E-3,-1.349135768E-3,1.943247014E-3
5.969269375E0,-1.232033595E-3,-1.305390149E-3,-1.496607438E-3,2.337046008E-3
5.979226375E0,-5.838202778E-4,-1.923776232E-3,5.234000273E-4,2.077428385E-3
5.989183375E0,-6.251966115E-4,2.191201784E-3,1.540645491E-3,2.750604404E-3
5.999140375E0,-9.586242959E-4,-1.377167180E-3,5.432055797E-3,5.685312671E-3
6.009096375E0,6.815347588E-4,-4.756785929E-4,1.710087527E-3,1.901357173E-3
6.019053375E0,1.188334310E-3,-1.220298000E-3,-1.536039636E-3,2.293617972E-3
6.029010375E0,-1.713637728E-3,-6.318958476E-4,7.552439347E-4,1.976421015E-3
6.038967375E0,-1.970632933E-3,-7.109912112E-4,1.928633079E-3,2.847547754E-3
6.048924375E0,8.856633212E-5,-1.023316756E-3,4.309831653E-3,4.430538348E-3
6.058881375E0,2.512854990E-4,-3.316933289E-4,2.113256138E-3,2.153837591E-3
6.068838375E0,5.807225825E-4,-1.740576699E-4,-1.076727640E-3,1.235668726E-3
6.078794375E0,-2.189497463E-3,-2.329087816E-3,-5.968259647E-4,3.251884135E-3
6.088751375E0,-6.174945738E-4,8.889846504E-4,-1.832216512E-3,2.128053243E-3
6.098708375E0,1.281605684E-3,-1.978707500E-3,5.247530993E-3,5.752771334E-3
6.108665375E0,-1.299967407E-3,1.021652482E-3,4.594091792E-3,4.882557572E-3
6.118622375E0,-9.202006040E-4,-1.555488445E-3,3.452845849E-4,1.839982309E-3
6.128579375E0,-3.177000908E-3,4.416471347E-4,-5.965395831E-4,3.262552135E-3
6.138535375E0,6.273458712E-5,-1.545604318E-3,2.897605300E-4,1.573781911E-3
6.148492375E0,-4.210588057E-3,-4.792213440E-5,1.725295559E-3,4.550603595E-3
6.158449375E0,-2.699086908E-4,-1.425042748E-3,5.322427489E-3,5.516505407E-3
6.168406375E0,-1.303579193E-4,-1.005576923E-3,1.911418047E-3,2.163722969E-3
6.178363375E0,-6.265048869E-4,1.509779133E-3,3.052651882E-4,1.662867475E-3
6.188320375E0,-1.910865074E-3,-2.223424613E-3,-2.049518283E-3,3.577086459E-3
6.198277375E0,7.245991728E-4,-1.700113527E-3,1.656003762E-3,2.481487140E-3
6.208233375E0,-2.138915937E-3,3.562538885E-3,3.688844852E-3,5.556457598E-3
6.218190375E0,3.959456459E-3,-8.500525728E-4,5.178882740E-3,6.574246060E-3
6.228147375E0,2.180183074E-4,-8.491994813E-4,2.754941117E-3,2.891084969E-3
6.238104375E0,-1.940473798E-3,1.451771706E-3,3.652870655E-4,2.450819105E-3
6.248061375E0,-1.688043820E-3,-3.050798550E-4,-1.550523564E-3,2.312290851E-3
6.258018375E0,-2.015878912E-3,1.798821613E-4,6.058379076E-4,2.112620399E-3
6.267975375E0,2.116635442E-4,1.356881112E-3,4.959023558E-3,5.145662489E-3
6.277931375E0,3.283100668E-4,-1.053811982E-3,3.260991536E-3,3.442727551E-3
6.287888375E0,2.619037405E-4,1.322910190E-3,-4.565198906E-4,1.423760988E-3
6.297845375E0,1.582299010E-3,-1.007622108E-3,-2.221396659E-3,2.907503325E-3
6.307802375E0,-5.458691157E-4,-1.629863866E-3,7.102694362E-4,1.859815040E-3
6.317759375E0,-1.575713512E-3,1.461001113E-3,3.902600612E-3,4.455074507E-3
6.327716375E0,1.196942758E-4,1.420462504E-3,6.077048369E-3,6.241999465E-3
6.337673375E0,1.918659545E-3,1.954082400E-4,1.275635324E-3,2.312289842E-3
6.347630375E0,8.031574544E-5,3.740862012E-4,6.742486730E-4,7.752434314E-4
6.357586375E0,3.249211237E-3,-1.966292039E-4,-1.502352767E-3,3.585122110E-3
6.367543375E0,-2.019554377E-3,-9.970683604E-4,2.106758766E-3,3.084019730E-3
6.377500375E0,-5.257872399E-4,1.734269783E-3,3.784550354E-3,4.196065453E-3
6.387457375E0,1.279384014E-3,-1.377888024E-3,3.944490105E-3,4.369714070E-3
6.397414375E0,-1.119058812E-3,-1.137937419E-3,2.352451906E-3,2.842749402E-3
6.407371375E0,8.320035413E-4,-7.112761959E-4,-2.678399906E-3,2.893435635E-3
6.417328375E0,-1.990148332E-3,6.282944232E-4,-1.435236540E-3,2.532853764E-3
6.427284375E0,1.870887936E-3,-9.926324710E-4,2.842095215E-3,3.544438757E-3
6.437241375E0,-1.841558609E-3,-1.095164567E-3,7.397165988E-3,7.701219916E-3
6.447198375E0,-2.080115024E-3,-6.633158773E-5,3.251705319E-3,3.860682048E-3
6.457155375E0,1.441649278E-3,4.287501797E-4,-1.255428419E-3,1.959152845E-3
6.467112333E0,3.153315047E-4,-4.565399140E-4,-2.602904569E-3,2.661385889E-3
6.477069333E0,-1.028499566E-3,1.065722667E-3,1.276522409E-3,1.955271240E-3
6.487025333E0,-3.226949368E-3,2.751215361E-3,4.722753074E-3,6.347187155E-3
6.496982333E0,5.360969808E-4,3.780731931E-4,3.672136459E-3,3.730271503E-3
6.506939333E0,1.106090378E-3,8.006636053E-4,1.372928265E-3,1.936344534E-3
6.516896333E0,-1.463942463E-4,-5.112094805E-4,-2.218876965E-3,2.281705808E-3
6.526853333E0,-9.133600397E-4,4.430990666E-4,-3.504051128E-3,3.648141672E-3
6.536810333E0,-1.162898145E-3,1.018342562E-3,1.110141631E-3,1.903094351E-3
6.546767333E0,2.772290260E-3,2.869311720E-5,3.229905386E-3,4.256607261E-3
6.556724333E0,1.442573732E-3,-1.119928434E-3,3.991037142E-3,4.389035900E-3
6.566680333E0,2.074223012E-4,2.199791372E-3,2.945120446E-3,3.681825707E-3
6.576637333E0,-7.209556643E-4,-7.422026247E-4,-2.102102619E-3,2.342963343E-3
6.586594333E0,-1.006863080E-3,1.721493900E-4,-2.218980808E-3,2.442802591E-3
6.596551333E0,1.211550203E-3,-6.510335952E-4,2.578170970E-3,2.922099278E-3
6.606508333E0,1.634631772E-3,1.664131880E-3,4.172288813E-3,4.780099359E-3
6.616465333E0,-8.200037992E-4,1.316056587E-3,1.479566097E-3,2.143251503E-3
6.626421333E0,-9.968292434E-4,-9.499685839E-4,-3.249580041E-4,1.414816792E-3
6.636378333E0,-1.726002665E-3,-1.475143246E-3,-1.392353326E-3,2.663415210E-3
6.646335333E0,4.510803847E-4,5.224281922E-4,1.137202606E-3,1.330276098E-3
6.656292333E0,2.682010410E-3,1.655870117E-3,2.848816104E-3,4.248627882E-3
6.666249333E0,-1.715498511E-4,1.684967428E-4,3.440984525E-3,3.449376031E-3
6.676206333E0,-8.812823799E-4,-1.148637384E-4,2.385331318E-4,9.201903968E-4
6.686163333E0,-3.205558751E-4,1.746229827E-5,-8.611530066E-4,9.190459736E-4
6.696119333E0,-1.288082218E-3,-2.285107039E-3,1.981238835E-3,3.287275057E-3
6.706076333E0,-1.519424142E-3,3.534043208E-4,2.750410698E-3,3.162009385E-3
6.716033333E0,-9.899877477E-4,2.148641273E-3,6.712129340E-3,7.116840263E-3
6.725990333E0,-4.343611654E-4,3.052940592E-4,1.794686541E-3,1.871569893E-3
6.735947333E0,-9.853160009E-6,6.989091635E-4,6.932029501E-4,9.844294965E-4
6.745904333E0,-3.511622548E-3,-9.144376963E-5,-3.202219727E-3,4.753321582E-3
6.755861333E0,-1.713988837E-3,7.676919922E-4,-3.281361423E-4,1.906510439E-3
6.765817333E0,2.536261454E-4,-2.119755372E-4,6.706610322E-3,6.714751065E-3
6.775774333E0,4.048936535E-4,5.161333829E-4,4.815766588E-3,4.860240773E-3
6.785731333E0,1.218087273E-4,2.056033351E-3,-2.557751723E-4,2.075459333E-3
6.795688333E0,-1.386484364E-4,1.111676916E-3,-3.145571100E-3,3.339111633E-3
6.805645333E0,-2.029611263E-3,1.140250824E-3,-1.440615393E-3,2.737675389E-3
6.815602333E0,5.430022720E-4,2.472363412E-3,3.124841489E-3,4.021450813E-3
6.825559333E0,-1.897632144E-3,2.826994285E-3,1.916038804E-3,3.906930911E-3
6.835516333E0,-6.004064344E-4,8.573206142E-4,3.266794607E-3,3.430369299E-3
6.845472333E0,-1.820141915E-3,-8.567236364E-5,-9.759748355E-4,2.067071171E-3
6.855429333E0,7.684505545E-4,2.401986159E-3,8.142022416E-4,2.650090386E-3
6.865386333E0,4.228539765E-4,-1.674775966E-3,5.206996575E-4,1.804108687E-3
6.875343333E0,3.466876224E-4,6.629470736E-4,1.510862727E-3,1.685941075E-3
6.885300333E0,-1.592138782E-3,-4.434781149E-4,7.411409169E-4,1.811316813E-3
6.895257333E0,1.795934630E-3,3.512091935E-4,7.752291858E-4,1.987387577E-3
6.905214333E0,-1.155992504E-5,-2.726828679E-4,-1.293614972E-3,1.322092763E-3
6.915170333E0,1.411100617E-3,4.080217332E-4,-1.094410662E-3,1.831780932E-3
6.925127333E0,7.357099093E-5,1.097938046E-3,1.315281726E-3,1.714889694E-3
6.935084333E0,3.036682028E-4,6.297538057E-4,4.625591449E-3,4.678130021E-3
6.945041333E0,2.002340276E-3,3.404403105E-4,1.848578453E-3,2.746362773E-3
6.954998333E0,-1.748189330E-3,-2.164263278E-4,-2.730194479E-3,3.249148840E-3
6.964955333E0,-2.898678649E-4,-3.272529691E-3,1.500141807E-4,3.288765455E-3
6.974912333E0,-1.322908094E-3,4.492374137E-4,4.569529556E-3,4.778336577E-3
6.984868333E0,-1.537942793E-3,1.338972710E-3,1.735360362E-3,2.677609295E-3
6.994825333E0,4.948481219E-4,-1.050681807E-3,4.400385544E-3,4.551065793E-3
7.004782333E0,-5.644226912E-4,1.047906466E-3,1.149781980E-3,1.654895627E-3
7.014739333E0,-4.536351189E-4,1.114218496E-3,8.480455726E-4,1.471886195E-3
7.024696333E0,1.915311441E-3,-6.554685533E-4,-2.581923734E-3,3.280912542E-3
7.034653333E0,-6.889938377E-4,1.000485383E-3,-7.840236649E-4,1.445813479E-3
7.044610333E0,-1.623742282E-3,2.915598452E-4,2.698992379E-3,3.163242957E-3
7.054566333E0,2.042631619E-3,1.720611937E-3,5.461223423E-3,6.079293598E-3
7.064523333E0,1.723113935E-3,5.562854931E-4,4.226239398E-4,1.859351010E-3
7.074480333E0,4.052883014E-5,-2.187568694E-3,-2.666642889E-3,3.449359894E-3
7.084437333E0,-1.372960396E-4,1.402370632E-3,-2.860124223E-4,1.437809687E-3
7.094394333E0,-2.233470092E-3,-1.000599936E-3,3.466914408E-3,4.243711158E-3
7.104351333E0,-1.182137406E-3,4.288433120E-4,4.475205205E-3,4.648528484E-3
7.114308333E0,2.956507960E-4,2.874294296E-4,2.788092941E-3,2.818419294E-3
7.124264333E0,-5.327505060E-4,1.713214442E-4,1.278129406E-3,1.395273779E-3
7.134221333E0,-7.173074409E-4,1.052561216E-3,-5.216351710E-4,1.376415028E-3
7.144178333E0,-1.471142517E-3,-1.510807313E-3,-6.372500211E-4,2.202926833E-3
7.154135333E0,1.303072437E-3,4.668561742E-4,1.965191215E-3,2.403732301E-3
7.164092333E0,-6.784090074E-4,2.149479464E-3,3.881237470E-3,4.488263032E-3
7.174049333E0,-1.135407365E-3,2.028234303E-5,9.131445549E-4,1.457187097E-3
7.184006333E0,5.941407289E-4,-8.187964559E-4,-1.419443171E-3,1.743057589E-3
7.193962333E0,-1.272735186E-3,-4.097344354E-4,1.540926285E-3,2.040144842E-3
7.203919333E0,8.643359179E-4,-3.259126097E-4,1.593316905E-3,1.841725921E-3
7.213876333E0,2.570623299E-3,1.399016939E-3,4.426120780E-3,5.306213123E-3
7.223833333E0,-8.108338807E-5,9.779892862E-4,2.922337502E-3,3.082708880E-3
7.233790333E0,-8.360896027E-4,8.035525680E-4,-1.522814855E-4,1.169586339E-3
7.243747333E0,-9.152130224E-5,-1.572269946E-3,-4.093175754E-3,4.385715071E-3
7.253704333E0,7.790660602E-4,-1.301426440E-3,-2.452402376E-3,2.883562401E-3
7.263660333E0,8.579274872E-4,-1.260166988E-3,2.912339754E-3,3.287215122E-3
7.273617333E0,7.306283806E-4,-1.015422866E-3,3.488647752E-3,3.706152258E-3
7.283574333E0,-3.367394442E-3,-1.559447497E-3,2.128466032E-3,4.278035703E-3
7.293531333E0,-2.919760300E-4,1.360442489E-3,-8.350997232E-4,1.622789363E-3
7.303488333E0,-1.133729587E-3,-2.260085195E-3,5.296431482E-5,2.529057747E-3
7.313445333E0,2.443557605E-7,-8.305003867E-4,3.136105835E-3,3.244208804E-3
7.323402333E0,-6.145413499E-4,1.028347760E-3,5.295946263E-3,5.429752021E-3
7.333358333E0,-9.064238984E-4,1.467237249E-3,1.795221120E-3,2.489419269E-3
7.343315333E0,-8.353416342E-4,-1.872962341E-3,-2.544789109E-3,3.268292396E-3
7.353272333E0,2.415579045E-3,-1.825025305E-3,-2.672620583E-3,4.038395755E-3
7.363229333E0,4.309505457E-4,-1.883703284E-3,5.638133734E-4,2.012943605E-3
7.373186333E0,6.769539323E-5,1.877034083E-4,5.640863907E-3,5.644391982E-3
7.383143333E0,2.647201763E-4,2.230172046E-3,5.555600859E-3,5.992365562E-3
7.393100333E0,-1.655418891E-3,5.901977420E-4,1.431163400E-3,2.266489303E-3
7.403056333E0,3.800767008E-4,7.836055011E-5,1.212433912E-3,1.273025791E-3
7.413013333E0,-1.262028469E-3,-4.420205951E-4,-2.148475498E-3,2.530621471E-3
7.422970333E0,-1.797907054E-3,-7.879454643E-4,2.129626460E-3,2.896314329E-3
7.432927333E0,-9.289176669E-4,-1.213251613E-3,2.974913456E-3,3.344394949E-3
7.442884333E0,-3.359829308E-3,-1.283064485E-4,6.479718722E-3,7.300114400E-3
7.452841333E0,7.851144765E-4,7.273666561E-4,2.030908130E-3,2.295659998E-3
7.462798333E0,5.233646370E-4,1.490035094E-3,-2.863933332E-4,1.605034662E-3
7.472754208E0,-3.173953155E-4,-1.103884540E-3,-1.819971949E-4,1.162937592E-3
7.482711208E0,4.393509589E-4,-1.534902491E-3,-4.266104661E-4,1.652559049E-3
7.492668208E0,-3.529393580E-4,1.520808786E-3,2.726039849E-3,3.141451705E-3
7.502625208E0,-9.313129121E-4,4.575625062E-4,4.229360260E-3,4.354789937E-3
7.512582208E0,-1.106548938E-3,3.134859726E-4,3.195228055E-5,1.150541158E-3
7.522539208E0,-3.508713562E-3,-8.939914405E-4,-1.441190951E-3,3.897091597E-3
7.532496208E0,-6.628597621E-4,-8.588377386E-4,-1.693237573E-5,1.085021673E-3
7.542452208E0,-2.073026495E-3,-3.567973152E-3,2.257414628E-3,4.703593527E-3
7.552409208E0,8.766539395E-6,1.138898544E-3,1.304269303E-3,1.731555705E-3
7.562366208E0,-7.272390649E-4,-1.419234090E-3,5.450244062E-4,1.685275545E-3
7.572323208E0,4.014085280E-4,-2.547082491E-3,-1.221450511E-3,2.853191086E-3
7.582280208E0,1.996422652E-4,-5.887141451E-4,1.346297562E-3,1.482888568E-3
7.592237208E0,-1.454979647E-3,-6.670113653E-4,5.329054780E-3,5.564233531E-3
7.602194208E0,-2.462450648E-4,2.377620898E-3,3.912820481E-3,4.585180682E-3
7.612150208E0,-1.660839189E-4,2.203450538E-3,4.944529384E-3,5.415823942E-3
7.622107208E0,-1.127475407E-3,-1.160844229E-3,-3.729660762E-3,4.065603217E-3
7.632064208E0,6.975887809E-4,-3.099637106E-4,-1.662515104E-3,1.829388991E-3
7.642021208E0,2.747316612E-4,-1.548733562E-3,-4.072119482E-4,1.624769123E-3
7.651978208E0,3.185146488E-5,1.978623681E-3,4.821105395E-3,5.211431992E-3
7.661935208E0,-3.825195599E-4,-2.019575797E-3,5.810385104E-3,6.163244492E-3
7.671892208E0,6.784838042E-4,4.779370502E-4,2.958671656E-3,3.072865448E-3
7.681848208E0,-2.736350056E-3,-8.724853396E-4,5.896552466E-4,2.931984926E-3
7.691805208E0,-5.424382398E-4,2.971747890E-4,6.921868771E-4,9.282643870E-4
7.701762208E0,-1.035298454E-3,1.230023801E-3,1.092992257E-3,1.944076520E-3
7.711719208E0,-2.313881880E-3,-5.199396983E-4,5.176684354E-3,5.694071262E-3
7.721676208E0,-4.258193076E-4,-1.148134470E-4,2.955041360E-3,2.987770682E-3
7.731633208E0,3.869774519E-4,1.229816116E-3,-1.661548391E-3,2.103079239E-3
7.741590208E0,4.143698607E-5,1.654308289E-5,2.882917877E-3,2.883263114E-3
7.751547208E0,-1.856864197E-3,2.413920127E-3,-1.559501514E-3,3.421549356E-3
7.761503208E0,-8.944189176E-4,9.337812662E-5,3.114943393E-3,3.242156229E-3
7.771460208E0,-1.637474634E-5,-2.140365541E-5,6.641767919E-3,6.641822592E-3
7.781417208E0,4.395877477E-5,1.260419376E-3,1.137080137E-3,1.698099118E-3
7.791374208E0,3.752559423E-4,-1.928715967E-3,5.929963663E-4,2.052414917E-3
7.801331208E0,-7.817300502E-5,-1.498847269E-3,-7.866024971E-4,1.694519885E-3
7.811288208E0,8.113228250E-4,-6.668763235E-4,3.665462136E-4,1.112351061E-3
7.821244208E0,-3.218009835E-3,2.425387502E-4,3.982836846E-3,5.126148816E-3
7.831201208E0,-9.593828581E-4,-2.111695707E-3,4.022517707E-3,4.643309480E-3
7.841158208E0,1.252279617E-5,-1.079018228E-3,2.006719355E-3,2.278455557E-3
7.851115208E0,3.109779209E-3,-1.514178701E-3,-1.847140491E-3,3.921146753E-3
7.861072208E0,-1.729065087E-3,-2.386845648E-3,1.253793947E-3,3.202920150E-3
7.871029208E0,-4.091022536E-3,-1.793513075E-4,3.695646301E-3,5.516016123E-3
7.880986208E0,-7.319408469E-4,-7.810136303E-4,5.569446832E-3,5.671371766E-3
7.890943208E0,-1.882426441E-3,-6.622169167E-5,1.483358443E-3,2.397554355E-3
7.900899208E0,-8.283210918E-4,9.909924120E-4,1.816303935E-3,2.228708544E-3
7.910856208E0,6.121826591E-4,4.442455247E-4,1.888461411E-4,7.796053869E-4
7.920813208E0,5.430412712E-4,-8.525205776E-4,8.827154525E-4,1.341965621E-3
7.930770208E0,-2.195220906E-3,-2.436835319E-3,3.423104994E-3,4.740760382E-3
7.940727208E0,-2.323870547E-3,8.888170123E-5,3.387620207E-3,4.109044286E-3
7.950684208E0,-1.372855739E-3,-1.293298788E-3,5.276515149E-4,1.958512384E-3
7.960641208E0,-1.921177027E-3,2.381866798E-4,1.561841462E-3,2.487368653E-3
7.970597208E0,-1.070030616E-3,4.296675324E-4,-1.453922130E-3,1.855658715E-3
7.980554208E0,7.572632167E-4,-8.456194773E-4,2.154191490E-3,2.434966295E-3
7.990511208E0,5.753693404E-4,-1.064797863E-3,3.066590521E-3,3.296789619E-3
8.000468208E0,-6.509446539E-4,1.344177872E-5,3.379744943E-3,3.441886911E-3
8.010425208E0,1.676125568E-3,1.270454377E-3,4.955418408E-4,2.160789893E-3
8.020382208E0,9.609963745E-4,4.504192621E-4,-2.271196805E-3,2.506935673E-3
8.030339208E0,-7.279803976E-4,2.603053115E-3,2.510827035E-4,2.714568751E-3
8.040295208E0,-2.255415544E-3,4.932666197E-4,2.063935623E-3,3.096779212E-3
8.050252208E0,-8.244990604E-4,-1.818444580E-4,3.622684628E-3,3.719772845E-3
8.060209208E0,-4.045189125E-4,1.528632827E-3,-1.669940539E-4,1.590044303E-3
8.070166208E0,6.221296499E-4,1.490549184E-3,-3.165979637E-3,3.554181936E-3
8.080123208E0,-1.073090010E-3,5.116919056E-4,9.071081877E-6,1.188878909E-3
8.090080208E0,5.224097986E-4,-3.556990996E-4,2.168628853E-3,2.258845933E-3
8.100037208E0,6.790377665E-5,9.881146252E-4,5.497663748E-3,5.586169360E-3
8.109993208E0,-2.279938897E-3,2.242729999E-3,6.999686826E-3,7.695685472E-3
8.119950208E0,9.295461350E-4,-1.520419493E-3,3.579151817E-4,1.817645381E-3
8.129907208E0,-7.020449266E-5,1.437819563E-3,-2.261037473E-3,2.680400011E-3
8.139864208E0,-1.622827724E-3,1.415275969E-3,-2.870952711E-3,3.588724753E-3
8.149821208E0,-6.102938205E-4,7.449584082E-4,3.133144230E-3,3.277806331E-3
8.159778208E0,1.474627177E-3,-9.049046785E-4,2.568770666E-3,3.097089040E-3
8.169735208E0,-8.519102121E-4,1.199258491E-3,3.602609504E-3,3.891370861E-3
8.179691208E0,-1.789378002E-4,-2.140738070E-4,1.304685604E-3,1.334185465E-3
8.189648208E0,1.569693675E-3,-8.114203811E-4,-2.484992146E-3,3.049184684E-3
8.199605208E0,-1.038740622E-3,-7.590372115E-5,2.245960757E-3,2.475698523E-3
8.209562208E0,-1.287213527E-3,-7.864348590E-4,3.088585101E-3,3.437260010E-3
8.219519208E0,9.032244561E-4,2.085771412E-4,4.522712901E-3,4.616735950E-3
8.229476208E0,2.784215147E-3,-3.084167838E-5,2.530402504E-3,3.762411730E-3
8.239433208E0,-7.902281359E-4,-1.480459236E-3,-1.536674798E-3,2.275431715E-3
8.249390208E0,1.612742082E-3,1.549879089E-4,-1.813923009E-4,1.630294894E-3
8.259346208E0,6.749752210E-4,-5.038809031E-4,4.006396048E-4,9.327376944E-4
8.269303208E0,1.674459549E-3,6.713727489E-4,3.379651811E-3,3.831005418E-3
8.279260208E0,-1.871601562E-3,1.674802974E-3,3.524095751E-3,4.327482903E-3
8.289217208E0,-2.511026803E-3,2.966169268E-4,7.706535980E-4,2.643320672E-3
8.299174208E0,-1.843753038E-3,-3.441423178E-4,1.519400161E-3,2.413801162E-3
8.309131208E0,1.153634628E-3,-5.172751844E-5,-6.465488113E-4,1.323470422E-3
8.319088208E0,-2.542527393E-3,6.862357259E-5,7.124287076E-4,2.641346134E-3
8.329044208E0,-1.407754258E-3,5.618408322E-4,4.881873261E-3,5.111763268E-3
8.339001208E0,7.550501032E-4,-8.812872693E-4,4.766976926E-3,4.906203922E-3
8.348958208E0,2.179308562E-3,2.710623667E-4,-7.617454976E-4,2.324460543E-3
8.358915208E0,9.947607759E-5,8.722990751E-4,-1.871902961E-3,2.067564234E-3
8.368872208E0,-5.660479655E-4,1.253929920E-3,2.870387863E-3,3.183060953E-3
8.378829208E0,-1.430521952E-3,1.247496344E-3,4.358545411E-3,4.753899272E-3
8.388786208E0,-9.420982096E-4,1.526707783E-4,2.994740847E-3,3.143140173E-3
8.398742208E0,-2.703572391E-4,-3.399244510E-3,6.942194887E-4,3.479927725E-3
8.408699208E0,-1.108339056E-4,-8.524637669E-4,-2.090381458E-3,2.260237437E-3
8.418656208E0,1.147137722E-3,-1.851634122E-3,7.592532784E-4,2.306716154E-3
8.428613208E0,-6.465011975E-4,7.486762479E-4,2.520401962E-3,2.707564583E-3
8.438570208E0,-1.097709173E-4,7.431441918E-4,5.536046345E-3,5.586781012E-3
8.448527208E0,1.640020637E-4,1.048608683E-3,1.950899605E-3,2.220920105E-3
8.458484208E0,5.075326189E-4,-1.293821260E-4,-3.277436132E-3,3.319023454E-3
8.468440958E0,-6.802373100E-4,3.795474768E-4,-1.723481808E-3,1.891340431E-3
8.478397958E0,4.157912917E-4,1.413085498E-3,8.874218911E-4,1.719654220E-3
8.488354958E0,1.070129918E-3,2.514151856E-4,3.383070696E-3,3.557183573E-3
8.498311958E0,1.768596820E-3,-1.212807372E-3,3.521137871E-3,4.122771924E-3
8.508268958E0,-5.214554258E-4,3.190422431E-4,9.852759540E-4,1.159513872E-3
8.518225958E0,1.132682897E-3,1.156207174E-3,-2.810679842E-3,3.243409741E-3
8.528182958E0,8.373383898E-4,5.471417680E-4,-1.901743002E-3,2.148749902E-3
8.538138958E0,1.020148862E-3,2.481332980E-3,1.757785678E-3,3.207417583E-3
8.548095958E0,-7.388691884E-4,-7.370393723E-5,3.938648850E-3,4.008031276E-3
8.558052958E0,3.112264676E-4,1.505937427E-3,2.972186077E-3,3.346430864E-3
8.568009958E0,-5.114240339E-4,1.640161499E-3,-2.564862370E-6,1.718048563E-3
8.577966958E0,6.983146304E-4,-1.008835621E-3,-2.218449954E-3,2.535135663E-3
8.587923958E0,-1.815709518E-3,-1.054642722E-3,2.124835737E-4,2.110502688E-3
8.597880958E0,-1.267022453E-4,6.149439141E-4,3.029162996E-3,3.093547790E-3
8.607837958E0,4.857894965E-6,9.243097156E-5,3.707203083E-3,3.708358367E-3
8.617793958E0,-5.117835244E-4,3.944616765E-4,1.961607486E-4,6.752787790E-4
8.627750958E0,2.581363078E-4,-9.514996782E-4,-2.792971209E-3,2.961870045E-3
8.637707958E0,9.682801901E-4,-5.520135164E-5,-9.288638830E-4,1.342907975E-3
8.647664958E0,-4.192267079E-4,6.731739268E-4,1.736428123E-3,1.908951753E-3
8.657621958E0,2.036879305E-4,2.056956291E-4,2.721969038E-3,2.737318927E-3
8.667578958E0,1.108630095E-3,5.537709221E-4,1.697185449E-3,2.101466481E-3
8.677535958E0,-7.960549556E-5,1.661114395E-3,2.898909617E-3,3.342052518E-3
8.687491958E0,-6.210262654E-4,-2.872543409E-4,-1.340044197E-3,1.504628568E-3
8.697448958E0,-4.879200133E-4,-1.767977141E-3,-5.782796070E-4,1.923074729E-3
8.707405958E0,8.870701422E-4,-7.834061980E-4,1.725620590E-3,2.092459111E-3
8.717362958E0,-5.363626406E-4,1.723232679E-3,4.242701456E-3,4.610610740E-3
8.727319958E0,8.847001591E-4,-1.276551746E-3,1.677811146E-3,2.286335271E-3
8.737276958E0,2.530695638E-4,1.225827262E-3,-1.296088099E-3,1.801816040E-3
8.747233958E0,6.781100528E-4,5.536451936E-4,-3.367760917E-3,3.479679560E-3
8.757189958E0,-1.111343736E-3,-1.055908389E-3,2.743699588E-4,1.557339494E-3
8.767146958E0,-2.950849012E-4,-4.966445267E-4,4.837696441E-3,4.872067091E-3
8.777103958E0,-2.803312382E-4,8.221156895E-5,2.750240266E-3,2.765712542E-3
8.787060958E0,-8.249474922E-4,3.413371742E-4,1.234368421E-3,1.523389258E-3
8.797017958E0,-1.407113159E-4,4.277937114E-4,-7.907222025E-4,9.099718323E-4
8.806974958E0,1.076885965E-3,-5.759513006E-4,-4.655499943E-4,1.306958331E-3
8.816931958E0,-4.671998322E-4,-2.201133408E-3,6.249831058E-4,2.335351760E-3
8.826887958E0,-2.964911982E-4,-1.012310386E-4,4.007996526E-3,4.020222743E-3
8.836844958E0,-1.326742349E-4,-1.126759686E-3,2.474137582E-4,1.161207737E-3
8.846801958E0,-1.418714644E-3,1.625617035E-3,-4.535303451E-4,2.204783835E-3
8.856758958E0,2.145518549E-3,4.495484754E-4,8.021965623E-4,2.334279975E-3
8.866715958E0,-2.067868598E-3,-1.523055136E-3,9.800959378E-4,2.748884416E-3
8.876672958E0,1.409603283E-5,5.064401776E-4,3.513334785E-3,3.549676275E-3
8.886629958E0,-9.771324694E-4,-8.064983413E-4,1.667497214E-3,2.094224056E-3
8.896586958E0,1.659241272E-3,-1.439014450E-3,6.636083126E-4,2.294388846E-3
8.906542958E0,7.679103874E-5,-3.511132672E-4,3.057532012E-5,3.607107432E-4
8.916499958E0,-3.218690399E-4,1.187645830E-3,-1.552632544E-3,1.981103257E-3
8.926456958E0,-1.454511425E-3,-7.330263034E-4,4.220568109E-3,4.523950288E-3
8.936413958E0,3.767479211E-4,1.944148913E-3,6.864766125E-3,7.144695091E-3
8.946370958E0,1.775173820E-3,5.156295374E-4,2.180265728E-3,2.858439182E-3
8.956327958E0,-4.191908520E-4,-6.596092135E-5,-2.033694647E-3,2.077495062E-3
8.966284958E0,-2.051176038E-3,-2.013530582E-3,-3.382319352E-3,4.438661143E-3
8.976240958E0,3.979513422E-4,1.617116854E-3,8.130585775E-5,1.667346044E-3
8.986197958E0,-1.821260783E-3,-7.147472352E-4,4.228380043E-3,4.659082768E-3
8.996154958E0,-2.191641135E-3,-1.590582542E-3,7.028742693E-3,7.532361352E-3
9.006111958E0,-1.599155366E-4,2.904833294E-3,1.564468257E-3,3.303209103E-3
9.016068958E0,-4.279790446E-4,-1.666117460E-3,6.135483272E-4,1.826350186E-3
9.026025958E0,1.588952728E-6,-2.660937607E-4,-1.811259892E-3,1.830702272E-3
9.035982958E0,-1.072092913E-3,3.619167954E-3,-5.225674249E-4,3.810621551E-3
9.045938958E0,4.325931659E-4,9.605344385E-4,5.179526750E-3,5.285570982E-3
9.055895958E0,-4.497400951E-4,3.904318437E-4,3.267661203E-3,3.321492573E-3
9.065852958E0,2.106095431E-3,1.306026243E-3,-2.538370900E-4,2.491139454E-3
9.075809958E0,1.375854481E-5,1.178095117E-4,-4.043139052E-3,4.044878462E-3
9.085766958E0,-6.626842078E-4,-7.413262501E-4,-4.531978630E-4,1.092750324E-3
9.095723958E0,-1.816966105E-3,-1.203556545E-3,4.045813344E-3,4.595489071E-3
9.105680958E0,-1.993620535E-4,1.962007955E-4,3.778432496E-3,3.788771847E-3
9.115636958E0,2.372333547E-4,2.371994779E-4,2.621374093E-3,2.642753373E-3
9.125593958E0,-8.793862071E-5,2.429247834E-3,4.474353045E-4,2.471674855E-3
9.135550958E0,2.654129639E-4,-2.721743658E-3,5.139950663E-4,2.782539040E-3
9.145507958E0,1.000179211E-3,1.074326225E-3,1.061541494E-3,1.811465052E-3
9.155464958E0,5.588242784E-4,-6.819795817E-5,1.979035791E-3,2.057551505E-3
9.165421958E0,2.185749356E-3,1.286817715E-3,1.563848462E-3,2.979768798E-3
9.175378958E0,2.093827119E-3,-9.669288993E-4,1.855381299E-3,2.959983660E-3
9.185335958E0,2.170974622E-4,-6.257779896E-4,-3.004355356E-3,3.076504592E-3
9.195291958E0,-4.982498940E-4,-1.406497322E-3,5.823373795E-5,1.493277885E-3
9.205248958E0,-5.680248141E-4,5.269572139E-4,2.066257410E-3,2.206752315E-3
9.215205958E0,2.529948018E-3,-2.323457971E-3,4.061163403E-3,5.319035825E-3
9.225162958E0,2.995505929E-4,5.905730650E-4,2.572989091E-3,2.656836458E-3
9.235119958E0,6.608727854E-4,-6.787236780E-4,-5.428818986E-5,9.488761126E-4
9.245076958E0,3.426565556E-3,2.792440355E-3,-4.035181366E-3,5.985128512E-3
9.255033958E0,6.842886796E-4,6.204135716E-4,-3.234350821E-3,3.363657121E-3
9.264989958E0,1.493623247E-3,3.956425935E-4,1.253608149E-3,1.989717783E-3
9.274946958E0,1.589903841E-4,3.563967533E-3,4.497736227E-3,5.740799046E-3
9.284903958E0,5.278382450E-4,-3.258455545E-4,4.353392404E-3,4.397364433E-3
9.294860958E0,-9.355538059E-4,6.958954036E-4,1.339260023E-3,1.775710772E-3
9.304817958E0,1.478068996E-3,-1.441291533E-3,2.484298311E-4,2.079357262E-3
9.314774958E0,-1.280992059E-3,-5.345158279E-4,1.428095624E-3,1.991508206E-3
9.324731958E0,6.609848933E-4,2.578453161E-3,1.168703660E-3,2.907093046E-3
9.334687958E0,-4.650139017E-4,-4.343762994E-4,1.810292713E-3,1.918874776E-3
9.344644958E0,1.924640383E-3,-9.126802906E-4,1.362348907E-3,2.528481849E-3
9.354601958E0,-7.795296842E-4,-1.780912280E-4,-2.841585781E-3,2.951947284E-3
9.364558958E0,2.649619710E-4,-1.431374811E-3,-1.567529514E-3,2.139202532E-3
9.374515958E0,-4.905445967E-4,-1.556111500E-3,1.497603953E-3,2.214708694E-3
9.384472958E0,2.777773188E-4,7.358053699E-4,6.351482123E-3,6.399991792E-3
9.394429958E0,-2.030922100E-3,1.197028905E-5,3.978668712E-3,4.467056367E-3
9.404385958E0,5.784430541E-4,2.852110192E-4,-1.355376560E-3,1.500995440E-3
9.414342958E0,-3.984954674E-4,-1.311876811E-3,-3.752720775E-3,3.995338862E-3
9.424299958E0,1.662524999E-3,-2.373945899E-3,-2.799841575E-3,4.029729687E-3
9.434256958E0,-3.703711554E-4,-9.675407782E-4,4.016120918E-3,4.147594143E-3
9.444213958E0,-2.306755632E-3,-2.638141625E-3,3.680030815E-3,5.081686686E-3
9.454170958E0,-4.478928167E-4,-2.012932673E-4,5.197567865E-3,5.220712468E-3
9.464127958E0,-1.802450279E-4,2.001505345E-5,2.515451051E-4,3.101029061E-4
9.474084333E0,-2.874735510E-3,-1.796661876E-3,7.580271922E-4,3.473716076E-3
9.484040333E0,1.312552602E-3,-1.813706011E-3,2.093602438E-3,3.065207170E-3
9.493997333E0,-2.436992712E-3,-6.833421066E-4,2.266974654E-3,3.397802819E-3
9.503954333E0,-1.709683449E-3,-9.392714128E-4,2.692015376E-3,3.324484181E-3
9.513911333E0,-4.048096016E-4,2.155676484E-4,2.110346686E-3,2.159607224E-3
9.523868333E0,-1.112145139E-3,-4.915054888E-5,-8.510882035E-4,1.401297155E-3
9.533825333E0,-1.564285485E-3,2.502263524E-3,8.245892823E-4,3.064026649E-3
9.543782333E0,-1.825009007E-3,-2.479446121E-3,1.386249438E-3,3.376388373E-3
9.553738333E0,1.219408936E-3,5.173012614E-4,2.444772981E-3,2.780552765E-3
9.563695333E0,-4.511920270E-4,2.222228795E-4,1.710006036E-3,1.782435944E-3
9.573652333E0,-6.564189680E-4,-1.626368612E-3,-1.529843081E-3,2.327311878E-3
9.583609333E0,1.980376896E-3,-1.307576895E-6,-2.256619744E-3,3.002370235E-3
9.593566333E0,-9.957914008E-4,1.797648147E-4,1.444493420E-3,1.763654485E-3
9.603523333E0,-3.638233757E-4,-2.655163407E-4,3.518297337E-3,3.547010365E-3
9.613480333E0,1.995015424E-3,2.238824964E-4,1.540221274E-3,2.530314503E-3
9.623436333E0,1.819246798E-3,-2.171630971E-3,5.298182368E-4,2.882073446E-3
9.633393333E0,-3.394191153E-4,-5.516260862E-4,9.128358215E-6,6.477499531E-4
9.643350333E0,5.681861658E-4,-1.811834052E-3,-1.234834082E-3,2.265037166E-3
9.653307333E0,3.608316183E-4,-2.286544070E-3,2.482295036E-3,3.394152602E-3
9.663264333E0,6.884004688E-4,3.587733954E-4,4.613889381E-3,4.678737947E-3
9.673221333E0,-8.651835378E-5,-2.623545006E-4,1.326361671E-4,3.064435712E-4
9.683178333E0,2.461061580E-3,-1.220559701E-3,-2.945344895E-4,2.762850096E-3
9.693135333E0,9.559291066E-4,2.149150707E-3,-1.461009029E-3,2.768970314E-3
9.703091333E0,1.923988108E-3,1.666937023E-4,-1.869804226E-3,2.688063405E-3
9.713048333E0,9.692925960E-4,7.334947586E-4,1.168051269E-3,1.685789567E-3
9.723005333E0,2.535763895E-3,-1.571205445E-3,3.341723699E-3,4.479498003E-3
9.732962333E0,-4.606229486E-4,-1.606475562E-4,1.801327337E-3,1.866215773E-3
9.742919333E0,-4.473071313E-4,-3.145784140E-4,2.287309617E-4,5.927572024E-4
9.752876333E0,-1.346550882E-3,-2.528869547E-3,-1.920371316E-3,3.449087772E-3
9.762833333E0,-2.482631244E-4,9.153960273E-4,8.266791701E-4,1.258166490E-3
9.772789333E0,-2.725040773E-3,-1.536862925E-3,-9.517692961E-4,3.270116153E-3
9.782746333E0,2.620456275E-3,-2.572136000E-4,8.519897237E-4,2.767460282E-3
9.792703333E0,-1.808682689E-3,9.807143360E-4,9.109042585E-4,2.250084498E-3
9.802660333E0,-2.508028643E-3,8.235871792E-4,-3.643367207E-3,4.499180828E-3
9.812617333E0,4.464188823E-4,-1.520924270E-4,6.504072808E-4,8.033999974E-4
9.822574333E0,1.784391003E-3,-5.925800651E-4,4.912264179E-3,5.259804345E-3
9.832531333E0,-2.642176580E-3,-5.192905664E-4,3.819655627E-3,4.673385163E-3
9.842487333E0,-9.902177844E-4,-1.102256589E-3,1.091780141E-3,1.840512082E-3
9.852444333E0,-7.673487999E-4,-4.426110536E-5,-1.061827876E-3,1.310824803E-3
9.862401333E0,7.269509952E-4,1.305694692E-3,-2.255456522E-3,2.705620169E-3
9.872358333E0,-2.798196161E-3,1.535811462E-3,1.913810149E-3,3.721731840E-3
9.882315333E0,2.922007348E-3,7.389942184E-4,3.026212566E-3,4.271089076E-3
9.892272333E0,-3.718095832E-5,7.257126272E-4,5.933909677E-3,5.978237641E-3
9.902229333E0,5.176861305E-5,-1.208541915E-3,2.116534859E-3,2.437821437E-3
9.912185333E0,-2.109014662E-3,-3.058542497E-3,-1.058310270E-3,3.862984038E-3
9.922142333E0,1.250563073E-3,9.778887033E-8,6.634276360E-5,1.252321593E-3
9.932099333E0,-1.065139426E-3,-5.619414151E-5,3.427746706E-4,1.120345595E-3
9.942056333E0,-1.092569903E-3,1.144625247E-3,5.511970259E-3,5.734604789E-3
9.952013333E0,1.927455887E-4,-1.432236284E-3,3.914106637E-3,4.172371317E-3
9.961970333E0,1.000675838E-4,-2.418039367E-4,2.390512265E-3,2.404793454E-3
9.971927333E0,6.206674734E-4,-5.145091563E-4,-2.690565772E-3,2.808752741E-3
9.981884333E0,1.348243095E-3,-3.740662709E-3,-2.627715468E-3,4.766047160E-3
9.991840333E0,-1.446547452E-3,1.343581825E-3,5.947872996E-4,2.061912604E-3
1.000179733E1,-6.681054365E-4,-5.777366459E-5,1.502659172E-3,1.645505168E-3
1.001175433E1,-2.382446546E-4,1.156677492E-3,2.820953261E-3,3.058176031E-3
1.002171133E1,-3.128130920E-4,8.064713329E-4,7.119965740E-4,1.120351357E-3
1.003166833E1,-2.178675029E-3,-1.547691412E-3,9.438986890E-4,2.834240344E-3
1.004162533E1,-1.022596844E-3,-8.936189115E-4,2.309703268E-4,1.377536335E-3
1.005158233E1,6.376655074E-4,-5.093645304E-4,3.589477390E-3,3.681089167E-3
1.006153833E1,-1.901924727E-3,6.467141211E-4,2.465623431E-3,3.180386097E-3
1.007149533E1,-1.568807522E-3,3.069750965E-4,-6.039841101E-4,1.708855627E-3
1.008145233E1,-1.219933387E-3,-1.185193658E-3,-2.517465036E-3,3.038182299E-3
1.009140933E1,3.179724095E-3,-1.288609579E-3,-1.269062050E-3,3.658097655E-3
1.010136633E1,3.070268314E-3,-7.754182443E-4,1.629195176E-4,3.170861672E-3
1.011132333E1,-6.552863633E-4,-4.460653290E-4,5.183578469E-3,5.243840219E-3
1.012128033E1,4.541865783E-4,-2.651428804E-3,3.930561244E-3,4.762947811E-3
1.013123633E1,-2.812925959E-3,-1.053293236E-3,6.090328097E-4,3.064783851E-3
1.014119333E1,9.360057302E-4,-7.307846099E-4,-2.414187882E-3,2.690437883E-3
1.015115033E1,2.078829799E-3,-2.648019232E-3,-3.068045247E-3,4.554826103E-3
1.016110733E1,-9.273462929E-4,-8.229548112E-4,1.336823218E-3,1.823272356E-3
1.017106433E1,-1.397942891E-3,-1.326519065E-3,5.355522968E-3,5.691706547E-3
1.018102133E1,-9.436076507E-4,-2.382462844E-3,3.517676145E-3,4.352076523E-3
1.019097833E1,-9.100295138E-4,-1.375731081E-3,-5.592140369E-4,1.741697466E-3
1.020093433E1,1.616264926E-4,-2.637004480E-3,-4.785205238E-4,2.684939039E-3
1.021089133E1,-7.341078017E-4,-1.431692392E-3,-1.042954158E-3,1.917396867E-3
1.022084833E1,1.400682144E-3,-3.616344184E-4,2.046579495E-3,2.506227753E-3
1.023080533E1,-3.819963895E-4,-9.846752509E-4,2.262606286E-3,2.496976931E-3
1.024076233E1,-4.909196869E-4,-8.661644533E-4,-2.185348421E-5,9.958516827E-4
1.025071933E1,-8.250537794E-4,-3.699979745E-3,-3.005024977E-3,4.837431029E-3
1.026067633E1,6.548649399E-4,-1.277568750E-3,-5.237851292E-5,1.436583972E-3
1.027063333E1,8.675075369E-4,-9.393356740E-4,-5.765724927E-4,1.402624923E-3
1.028058933E1,4.011880374E-4,2.206124365E-3,2.517487854E-3,3.371302664E-3
1.029054633E1,-2.058810322E-3,1.212794334E-3,3.610330634E-3,4.329440763E-3
1.030050333E1,-1.960806083E-3,-5.635349080E-4,-2.486178186E-3,3.216117855E-3
1.031046033E1,-6.474459078E-4,3.525344655E-4,-6.858296692E-4,1.006890802E-3
1.032041733E1,8.500495460E-4,-9.702583775E-4,3.080619499E-4,1.326230642E-3
1.033037433E1,-1.985341078E-4,-1.365238801E-3,4.930181429E-3,5.119568507E-3
1.034033133E1,-3.268984146E-4,1.105375588E-3,4.937904887E-3,5.070662919E-3
1.035028733E1,6.330616307E-4,-3.466680646E-4,-9.001642466E-4,1.153794369E-3
1.036024433E1,-1.625831705E-3,-3.293575719E-4,-1.720151398E-3,2.389712530E-3
1.037020133E1,-6.500866730E-4,-2.081964165E-3,-1.307255588E-4,2.185011817E-3
1.038015833E1,-1.703633228E-3,7.148869336E-4,-1.395139843E-4,1.852806967E-3
1.039011533E1,1.530594775E-3,-5.774172023E-4,5.627561361E-3,5.860510034E-3
1.040007233E1,4.994188203E-4,-2.595826983E-3,5.220896564E-3,5.851965296E-3
1.041002933E1,1.041454962E-4,3.275861964E-4,3.144205548E-3,3.162939697E-3
1.041998633E1,-8.982683066E-4,1.229066402E-3,-3.400246380E-3,3.725475220E-3
1.042994233E1,-9.413822554E-4,-2.344101667E-4,-2.099901903E-3,2.313165943E-3
1.043989933E1,3.233528696E-4,-3.294851631E-4,-3.288998269E-4,5.668268228E-4
1.044985633E1,1.425045892E-3,-6.122514606E-5,3.824780695E-3,4.082089132E-3