"Time (s)","Gyroscope x (rad/s)","Gyroscope y (rad/s)","Gyroscope z (rad/s)","Absolute (rad/s)"
-1.079791669E-3,-1.007023035E-3,1.428056508E-3,3.794097900E-2,3.798119704E-2
8.876208332E-3,2.136838622E-3,1.600628719E-3,3.226524964E-2,3.237552202E-2
1.883220833E-2,2.321877400E-4,-2.158898860E-4,3.331553191E-2,3.331704047E-2
2.878820833E-2,-1.151324483E-3,-7.525170222E-4,3.703064099E-2,3.705617630E-2
3.874420833E-2,9.220854845E-4,1.912098378E-5,3.990619630E-2,3.991685246E-2
4.870020833E-2,-7.162912516E-4,-8.293623105E-4,4.008862376E-2,4.010359922E-2
5.865620833E-2,-1.035488443E-3,-2.790428698E-5,3.897367045E-2,3.898743392E-2
6.861220833E-2,-4.165697610E-4,-1.911567524E-4,3.527507558E-2,3.527805308E-2
7.856820833E-2,2.144584898E-3,7.369024679E-4,3.580658138E-2,3.587831573E-2
8.852420833E-2,7.381696487E-4,-1.597890630E-3,3.672643751E-2,3.676859205E-2
9.848020833E-2,2.375422278E-3,-1.054950058E-3,3.581524268E-2,3.590942994E-2
1.084362083E-1,-4.536537454E-4,3.682430834E-4,3.733164817E-2,3.733622048E-2
1.183924167E-1,1.025348902E-4,1.879209653E-3,3.905755281E-2,3.910286913E-2
1.283484167E-1,8.775148308E-4,-9.815571830E-4,3.625857085E-2,3.628246749E-2
1.383044167E-1,7.543857209E-4,2.336438745E-3,3.577292338E-2,3.585707867E-2
1.482604167E-1,-2.896807855E-3,-1.424318179E-4,3.454414383E-2,3.466568412E-2
1.582164167E-1,-1.090866746E-3,-1.005499624E-3,3.704159707E-2,3.707129527E-2
1.681724167E-1,-2.975585870E-3,1.355659217E-3,3.626688197E-2,3.641398977E-2
1.781284167E-1,-1.781745115E-3,9.996965528E-4,3.607603535E-2,3.613383920E-2
1.880844167E-1,1.434554579E-3,1.561623067E-3,3.915491700E-2,3.921229576E-2
1.980404167E-1,-2.296261024E-3,2.561392263E-3,3.576711565E-2,3.593215979E-2
2.079964167E-1,-1.214751275E-3,2.706534229E-3,3.746541217E-2,3.758268294E-2
2.179534167E-1,-1.605801866E-3,1.773090102E-3,3.757770360E-2,3.765376815E-2
2.279094167E-1,-7.908744738E-4,1.286530867E-3,3.466606885E-2,3.469894773E-2
2.378654167E-1,9.173037251E-4,-1.509273425E-4,3.730030358E-2,3.731188647E-2
2.478214167E-1,6.935981801E-4,1.003020443E-3,3.742094338E-2,3.744080838E-2
2.577774167E-1,6.992147537E-4,7.688142359E-4,3.854813427E-2,3.856213988E-2
2.677334167E-1,2.177152783E-4,1.429277472E-3,3.951752558E-2,3.954396366E-2
2.776894167E-1,-1.137175597E-3,-5.108751357E-4,3.676188365E-2,3.678301579E-2
2.876454167E-1,9.470142541E-4,-3.984896466E-4,3.583430499E-2,3.584903128E-2
2.976014167E-1,7.802534383E-4,6.511649117E-4,3.321913630E-2,3.323467809E-2
3.075574167E-1,5.108001642E-5,1.926020719E-3,3.486283869E-2,3.491603766E-2
3.175134167E-1,-1.532854978E-3,1.017143019E-3,3.634579480E-2,3.639232094E-2
3.274694167E-1,2.788935672E-4,6.435019895E-4,3.806246817E-2,3.806892906E-2
3.374254167E-1,-1.512411633E-3,7.104454562E-4,3.520392254E-2,3.524355663E-2
3.473814167E-1,-1.360611408E-3,1.386888325E-3,3.458606824E-2,3.464059525E-2
3.573374167E-1,-2.131357323E-4,7.412023842E-4,3.371080384E-2,3.371962490E-2
3.672934167E-1,-1.620029798E-4,4.461240023E-4,3.631351143E-2,3.631661306E-2
3.772494167E-1,-7.461225614E-4,8.475407958E-4,3.770178184E-2,3.771868739E-2
3.872054167E-1,-2.758140676E-3,-5.420576781E-5,3.983470798E-2,3.993011693E-2
3.971614167E-1,-2.319503808E-3,-3.142915666E-4,3.706849366E-2,3.714232222E-2
4.071174167E-1,2.195353154E-3,9.214151651E-4,3.718673810E-2,3.726287794E-2
4.170734167E-1,-8.046757430E-4,1.025906764E-3,3.696263954E-2,3.698562842E-2
4.270294167E-1,-2.599379979E-3,3.856830299E-4,3.501027450E-2,3.510875743E-2
4.369854167E-1,-4.455954768E-4,1.924443990E-3,3.773415834E-2,3.778582731E-2
4.469424167E-1,1.762526226E-4,5.675638095E-4,3.643826395E-2,3.644311010E-2
4.568984167E-1,-4.145317944E-4,2.895629033E-3,3.891687840E-2,3.902665664E-2
4.668544167E-1,5.740335910E-4,-1.893799752E-3,3.798237443E-2,3.803388962E-2
4.768104167E-1,-1.147494535E-3,1.641878858E-3,3.764436394E-2,3.769762123E-2
4.867664167E-1,7.465456147E-4,6.722221151E-4,3.517747670E-2,3.519181837E-2
4.967224167E-1,-3.794652876E-4,6.223330274E-4,3.453360498E-2,3.454129652E-2
5.066784167E-1,-2.253798069E-3,-1.032821834E-3,3.441855684E-2,3.450772930E-2
5.166344167E-1,1.216076198E-3,-1.766728237E-3,3.168431297E-2,3.175682381E-2
5.265904167E-1,-1.905148616E-3,-2.298178151E-4,3.301882371E-2,3.307453895E-2
5.365464167E-1,-1.775798155E-3,5.162963644E-4,3.555053473E-2,3.559860307E-2
5.465024167E-1,-7.893632865E-4,3.346689045E-4,3.567490354E-2,3.568520478E-2
5.564584167E-1,-1.801075414E-3,-2.345433459E-4,3.143287823E-2,3.148530954E-2
5.664144167E-1,-3.714822931E-3,7.944367826E-5,3.181051463E-2,3.202678663E-2
5.763704167E-1,-1.022972865E-4,1.861201599E-4,3.137266636E-2,3.137338522E-2
5.863264167E-1,-1.730021322E-3,1.211389899E-4,3.493890166E-2,3.498191673E-2
5.962824167E-1,9.421207942E-4,-1.239133999E-3,3.722211719E-2,3.725465142E-2
6.062384167E-1,-5.010461900E-4,-1.543533057E-3,3.824423999E-2,3.827865507E-2
6.161944167E-1,-8.427734720E-4,-1.446505077E-3,3.551588953E-2,3.555532383E-2
6.261504167E-1,-7.812543772E-4,1.908811741E-3,3.237522393E-2,3.244085457E-2
6.361064167E-1,-3.475698177E-4,3.775674850E-5,2.753556147E-2,2.753778088E-2
6.460624167E-1,9.504549089E-4,-6.988737732E-4,3.111831471E-2,3.114066954E-2
6.560184167E-1,-9.631894063E-4,1.960660331E-3,3.329502791E-2,3.336661215E-2
6.659744167E-1,-1.276909839E-3,-9.778710082E-4,3.618988395E-2,3.622560463E-2
6.759304167E-1,-2.779569477E-3,-2.731364220E-4,3.726163507E-2,3.736616193E-2
6.858874167E-1,-1.221087528E-3,2.040883526E-3,3.734845296E-2,3.742409917E-2
6.958434167E-1,-9.677052731E-4,-2.305895090E-3,3.399559110E-2,3.408744373E-2
7.057994167E-1,-2.593831625E-3,-2.094544470E-4,2.931188792E-2,2.942717464E-2
7.157554167E-1,7.714494132E-5,1.408345997E-4,2.726537734E-2,2.726585020E-2
7.257114167E-1,7.181678666E-4,5.086176097E-4,3.123854846E-2,3.125094185E-2
7.356674167E-1,-6.930383388E-4,1.863612793E-3,3.527575731E-2,3.533174789E-2
7.456234167E-1,9.770300239E-4,1.940773800E-4,3.626219183E-2,3.627587091E-2
7.555794167E-1,-1.627363730E-3,-8.416185156E-4,3.611558303E-2,3.616202390E-2
7.655354167E-1,-2.004419221E-4,6.657298654E-4,3.049764410E-2,3.050556783E-2
7.754914167E-1,-3.017046256E-3,-5.765259266E-4,3.061775118E-2,3.077144192E-2
7.854474167E-1,-6.183369551E-4,2.818107605E-4,2.911759168E-2,2.912551979E-2
7.954034167E-1,1.120783039E-3,-3.508022055E-4,2.956559509E-2,2.958891059E-2
8.053594167E-1,-1.135921339E-4,4.073996097E-4,3.409163654E-2,3.409425992E-2
8.153154167E-1,1.166774309E-3,1.772374846E-3,3.576764464E-2,3.583053277E-2
8.252714167E-1,-1.751251286E-3,1.002188772E-3,3.859405965E-2,3.864676834E-2
8.352274167E-1,-1.496252837E-3,-2.722032368E-3,3.472622484E-2,3.486486662E-2
8.451834167E-1,-1.817962620E-3,2.103745937E-4,3.207344934E-2,3.212561903E-2
8.551394167E-1,1.366342534E-3,-2.834292129E-3,3.108393401E-2,3.124277608E-2
8.650954167E-1,1.822542050E-3,1.256057061E-3,3.017899022E-2,3.026005270E-2
8.750514167E-1,-2.795325359E-3,1.288403757E-3,3.437517583E-2,3.451270116E-2
8.850074167E-1,-1.027252991E-3,-1.230714843E-4,3.426624835E-2,3.428186359E-2
8.949634167E-1,-1.539406483E-3,-4.483852535E-5,3.759225458E-2,3.762378752E-2
9.049194167E-1,-1.111170161E-3,1.023088582E-3,3.389179707E-2,3.392543762E-2
9.148764167E-1,-7.365756901E-4,9.437538683E-4,3.191406280E-2,3.193650919E-2
9.248324167E-1,-2.872697078E-3,-1.318867318E-3,3.283125907E-2,3.298307705E-2
9.347884167E-1,-6.328789750E-4,-1.190183684E-4,3.152272850E-2,3.152930563E-2
9.447444167E-1,-4.999398254E-3,1.628015190E-3,3.586528078E-2,3.624862455E-2
9.547004167E-1,5.997047410E-4,7.887966931E-4,3.393349424E-2,3.394795837E-2
9.646564167E-1,1.132603269E-3,-1.251451671E-3,3.451299667E-2,3.455424519E-2
9.746124167E-1,4.954272881E-4,2.121985890E-3,3.480477259E-2,3.487291882E-2
9.845684167E-1,1.004357357E-3,3.922628239E-4,3.120870888E-2,3.122732960E-2
9.945244167E-1,2.415897325E-4,-1.101110131E-3,3.048670478E-2,3.050753968E-2
1.004480417E0,-2.130118664E-4,9.718947113E-4,3.166329116E-2,3.167891981E-2
1.014436417E0,-1.396370586E-3,7.737260312E-4,3.470254317E-2,3.473924301E-2
1.024392417E0,2.233639825E-4,1.042075455E-4,3.602400422E-2,3.602484741E-2
1.034348417E0,-5.103591830E-4,2.687258646E-3,3.549766168E-2,3.560289048E-2
1.044304417E0,9.732878534E-4,-2.936171368E-4,3.171250969E-2,3.172880034E-2
1.054260417E0,4.100989318E-4,1.984415576E-4,2.958041616E-2,2.958392436E-2
1.064216417E0,-1.425884198E-3,2.639554441E-4,3.076445870E-2,3.079861584E-2
1.074172417E0,-2.262812341E-4,-6.314022467E-4,3.407211602E-2,3.407871714E-2
1.084128417E0,-8.310851408E-4,-7.642945275E-4,3.556162119E-2,3.557954118E-2
1.094084417E0,-7.626110455E-4,-2.795801498E-3,3.663321957E-2,3.674766466E-2
1.104040417E0,-6.355781807E-4,-1.683263108E-4,3.736053035E-2,3.736631533E-2
1.113996417E0,5.654614652E-4,5.990983918E-4,3.434841335E-2,3.435829107E-2
1.123951708E0,-1.191425952E-3,-5.204509944E-5,3.045886755E-2,3.048220492E-2
1.133907708E0,-1.150393975E-3,-1.464693807E-3,3.331692517E-2,3.336894120E-2
1.143864708E0,5.103532458E-4,-8.234046400E-4,3.461867571E-2,3.463222724E-2
1.153820708E0,-4.059819039E-4,-3.496324643E-4,3.657986224E-2,3.658378583E-2
1.163776708E0,2.177304123E-4,-4.742676392E-4,3.503096849E-2,3.503485535E-2
1.173732708E0,1.864826772E-3,1.797302626E-3,3.118794411E-2,3.129529891E-2
1.183688708E0,-2.755557653E-4,5.059354007E-4,3.015064076E-2,3.015614431E-2
1.193644708E0,-5.011017201E-4,2.493187785E-4,2.933895029E-2,2.934428849E-2
1.203600708E0,-2.374901902E-3,-5.454756320E-5,3.517553210E-2,3.525565477E-2
1.213556708E0,-1.166592003E-3,-4.925550893E-4,3.674348816E-2,3.676530253E-2
1.223512708E0,1.038771705E-3,-9.735217318E-4,3.644787893E-2,3.647567230E-2
1.233468708E0,1.002997160E-4,2.850089222E-4,3.405150771E-2,3.405284816E-2
1.243424708E0,-9.548446396E-4,1.364920288E-3,2.826845087E-2,2.831748665E-2
1.253380708E0,-4.422701895E-4,-8.569564670E-5,2.950617298E-2,2.950961184E-2
1.263336708E0,-7.911442081E-4,-4.343036562E-4,3.133523464E-2,3.134822896E-2
1.273292708E0,-2.420127392E-3,2.791602165E-4,3.506970406E-2,3.515421866E-2
1.283248708E0,-1.152462792E-3,-1.654028893E-3,3.529766947E-2,3.535518989E-2
1.293204708E0,7.101492956E-4,5.890522152E-4,3.489343822E-2,3.490563458E-2
1.303160708E0,-1.108523458E-3,9.533725679E-4,3.020813875E-2,3.024350162E-2
1.313116708E0,2.344679087E-4,3.964733332E-5,2.784587815E-2,2.784689349E-2
1.323072708E0,1.084815245E-3,-6.796726957E-4,3.084060550E-2,3.086716259E-2
1.333028708E0,1.083126524E-3,-1.115649939E-3,3.387587517E-2,3.391154312E-2
1.342984708E0,9.536009748E-5,-9.902156889E-4,3.885119408E-2,3.886392804E-2
1.352940708E0,-1.272422960E-3,5.909521133E-5,3.753361106E-2,3.755521950E-2
1.362896708E0,-1.153912395E-3,1.267903484E-3,3.243552148E-2,3.248079659E-2
1.372852708E0,8.871778846E-6,-7.287692279E-4,3.243731707E-2,3.244550388E-2
1.382808708E0,-4.438655451E-4,-8.901562542E-4,3.105380386E-2,3.106973011E-2
1.392765708E0,-1.494528959E-3,-4.989374429E-5,3.269937262E-2,3.273354664E-2
1.402721708E0,-2.816788619E-3,-8.531026542E-4,3.243731707E-2,3.257056372E-2
1.412677708E0,9.693466709E-4,8.571296930E-4,3.612438217E-2,3.614754890E-2
1.422633708E0,-2.107403241E-3,9.314315394E-4,3.865491971E-2,3.872352684E-2
1.432589708E0,1.729128417E-4,-2.271400765E-3,3.476490080E-2,3.483945304E-2
1.442545708E0,-4.388152156E-4,1.444241963E-3,3.187190741E-2,3.190763037E-2
1.452501708E0,8.593825623E-5,2.183700912E-3,3.205405176E-2,3.212846353E-2
1.462457708E0,6.236304180E-4,2.912590280E-4,3.352624923E-2,3.353331380E-2
1.472413708E0,4.860117333E-4,-1.273062080E-3,3.623148799E-2,3.625710436E-2
1.482369708E0,-9.488994256E-4,8.308347315E-4,3.744668886E-2,3.746792232E-2
1.492325708E0,8.286559023E-5,-1.876864582E-3,3.383480757E-2,3.388692507E-2
1.502281708E0,3.262785031E-4,2.973018214E-3,3.253944218E-2,3.267660620E-2
1.512237708E0,8.769617416E-4,1.152995974E-3,2.892219648E-2,2.895845146E-2
1.522193708E0,-1.748116221E-3,5.460614339E-4,2.992434427E-2,2.998033478E-2
1.532149708E0,-1.432694844E-3,1.283934340E-3,3.244022280E-2,3.249721768E-2
1.542105708E0,1.553213224E-5,-2.594160847E-3,3.673750162E-2,3.682898230E-2
1.552061708E0,-7.126067067E-4,-8.313227445E-4,3.713179007E-2,3.714793049E-2
1.562017708E0,-5.496212980E-4,4.187654704E-4,3.527050838E-2,3.527727610E-2
1.571973708E0,-2.073921729E-3,3.313533962E-4,3.194627911E-2,3.201524161E-2
1.581929708E0,9.841891006E-5,1.464794390E-3,2.887485363E-2,2.891215109E-2
1.591885708E0,2.462608973E-3,6.437525153E-4,2.855741791E-2,2.867062919E-2
1.601841708E0,-4.911029246E-4,2.296243794E-3,3.144694865E-2,3.153449693E-2
1.611797708E0,3.331707325E-3,2.639964223E-4,3.279864043E-2,3.296848164E-2
1.621753708E0,-2.889703028E-3,-9.658513591E-4,3.861658275E-2,3.873659401E-2
1.631709708E0,1.317707240E-3,-3.670947626E-4,3.834354877E-2,3.836794031E-2
1.641665708E0,-1.105460105E-4,-1.117573120E-3,3.443881869E-2,3.445712442E-2
1.651622708E0,6.224951358E-4,1.571185887E-3,3.053410910E-2,3.058084276E-2
1.661578708E0,-5.644757766E-4,-5.944967270E-4,2.769011818E-2,2.770225088E-2
1.671534708E0,-1.547490596E-3,2.112425864E-4,3.301325440E-2,3.305017877E-2
1.681490708E0,3.602507059E-5,1.527642831E-3,3.518133610E-2,3.521450554E-2
1.691446708E0,-1.621087082E-3,1.757996157E-3,3.610961139E-2,3.618870692E-2
1.701402708E0,8.014019113E-5,5.124360323E-4,3.235268593E-2,3.235684317E-2
1.711358708E0,-4.819310270E-4,-9.554484859E-4,2.969569713E-2,2.971497211E-2
1.721314708E0,7.790756645E-4,1.097049564E-3,2.866079286E-2,2.869236003E-2
1.731270708E0,-2.816395834E-3,-6.031533703E-4,2.817775495E-2,2.832457861E-2
1.741226708E0,-3.073391039E-3,9.486079216E-5,3.523566574E-2,3.536957550E-2
1.751182708E0,-1.797463396E-3,2.966709435E-4,3.655830398E-2,3.660366755E-2
1.761138708E0,1.719441498E-4,-1.251744106E-4,3.732343018E-2,3.732403614E-2
1.771094708E0,-4.735675640E-3,8.511915803E-4,3.501436487E-2,3.534341379E-2
1.781050708E0,-1.911393250E-3,3.040581942E-5,3.331686556E-2,3.337166282E-2
1.791006708E0,2.448524348E-3,1.548057422E-3,3.205053881E-2,3.218118691E-2
1.800962708E0,2.395527437E-3,-1.228097826E-4,3.281753138E-2,3.290507559E-2
1.810918708E0,3.103852738E-3,-1.128774136E-3,3.523363173E-2,3.538808892E-2
1.820874708E0,1.151223085E-3,-1.966604963E-3,3.931172937E-2,3.937772106E-2
1.830830708E0,-7.879221812E-6,1.886697486E-3,3.865085542E-2,3.869687732E-2
1.840786708E0,-3.461999353E-3,5.457960069E-4,3.492056578E-2,3.509600045E-2
1.850742708E0,-1.187884831E-3,1.599439420E-3,3.010333702E-2,3.016919251E-2
1.860698708E0,-8.280918701E-4,1.056154259E-3,3.100321814E-2,3.103225311E-2
1.870654708E0,1.966496464E-3,-1.424036920E-3,3.251658753E-2,3.260710741E-2
1.880610708E0,3.597093746E-5,-6.635766476E-5,3.375602141E-2,3.375610580E-2
1.890566708E0,-5.643486511E-4,9.364597499E-4,3.475305438E-2,3.477024928E-2
1.900522708E0,-1.014955575E-3,5.670785904E-4,3.757414222E-2,3.759212519E-2
1.910478708E0,-2.563564340E-4,-5.343668163E-4,3.567881882E-2,3.568374110E-2
1.920435708E0,-1.506710541E-3,1.782583073E-3,3.352751583E-2,3.360866104E-2
1.930391708E0,-5.690519465E-4,-7.121134549E-4,3.179099411E-2,3.180405999E-2
1.940347708E0,-5.943519063E-4,-6.122449413E-4,3.080695495E-2,3.081876979E-2
1.950303708E0,-2.735095564E-3,-7.210671902E-5,3.325092420E-2,3.336330180E-2
1.960259708E0,-1.547567081E-5,1.400087960E-3,3.533085436E-2,3.535858814E-2
1.970215708E0,5.822675885E-4,-1.264217310E-3,3.411804885E-2,3.414642790E-2
1.980171708E0,-8.848678553E-4,3.184992820E-4,3.601155803E-2,3.602383578E-2
1.990127708E0,7.738762652E-4,-8.900109679E-4,3.120684996E-2,3.122912885E-2
2.000083708E0,-1.164105954E-3,-4.204958677E-4,2.936207876E-2,2.938815456E-2
2.010039708E0,-3.428701311E-4,-1.070294529E-3,3.168433905E-2,3.170426519E-2
2.019995708E0,-5.428735167E-4,-1.100920141E-3,3.645459563E-2,3.647525571E-2
2.029951708E0,1.100682188E-3,2.194615081E-4,3.464900330E-2,3.466717603E-2
2.039907708E0,2.311600838E-4,-7.153078914E-4,3.540134802E-2,3.540932846E-2
2.049863708E0,5.851604510E-5,-2.348300070E-3,2.932544053E-2,2.941937116E-2
2.059819708E0,-2.831812948E-3,-3.192522563E-3,3.002025932E-2,3.032206020E-2
2.069775708E0,2.964216401E-4,-2.314131707E-4,3.051690757E-2,3.051922453E-2
2.079731708E0,-1.607472310E-3,1.167812385E-3,3.379525617E-2,3.385361269E-2
2.089687708E0,-1.491400530E-3,-2.084784210E-3,3.421893343E-2,3.431480739E-2
2.099643708E0,2.963794395E-4,2.095289528E-4,3.352145106E-2,3.352341606E-2
2.109599708E0,-1.088685472E-3,-5.066497251E-4,3.000324778E-2,3.002726773E-2
2.119556083E0,-8.316905005E-4,-6.573842838E-4,2.986449562E-2,2.988330574E-2
2.129512083E0,4.994644551E-4,1.902012154E-4,3.251219541E-2,3.251658794E-2
2.139468083E0,-9.871120565E-4,1.603007317E-3,3.513647616E-2,3.518687226E-2
2.149424083E0,-7.548037684E-4,-4.010852426E-4,3.316034377E-2,3.317135808E-2
2.159380083E0,1.163162524E-4,-4.825778306E-4,3.705095500E-2,3.705428014E-2
2.169336083E0,-9.161955677E-4,2.137366682E-4,3.203550726E-2,3.204931861E-2
2.179292083E0,2.129847417E-4,2.787948586E-3,3.052789159E-2,3.065567133E-2
2.189248083E0,2.303255489E-3,1.236243173E-3,3.102215566E-2,3.113209637E-2
2.199205083E0,9.961760370E-4,-2.076849341E-5,3.340994567E-2,3.342480019E-2
2.209161083E0,-3.537804587E-4,-1.229519024E-3,3.406935185E-2,3.409336612E-2
2.219117083E0,-1.767918817E-3,-2.984777093E-4,3.483501077E-2,3.488112098E-2
2.229073083E0,-3.475423902E-3,-7.756315172E-4,3.561416641E-2,3.579174520E-2
2.239029083E0,-2.202965552E-3,3.737361170E-3,3.673189506E-2,3.698720103E-2
2.248985083E0,7.404175121E-4,-4.241708666E-4,3.242238611E-2,3.243361312E-2
2.258941083E0,-2.688935027E-3,-4.430795088E-4,3.136271238E-2,3.148088974E-2
2.268897083E0,-1.008814201E-3,9.461259469E-4,2.962441742E-2,2.965668505E-2
2.278853083E0,-1.446184469E-4,-7.303347811E-4,3.021404147E-2,3.022321302E-2
2.288809083E0,-4.853999708E-4,-2.307770774E-3,3.571301699E-2,3.579079493E-2
2.298765083E0,-2.871059813E-3,-1.773806289E-3,3.430607170E-2,3.447166849E-2
2.308721083E0,2.003463451E-4,-1.073578373E-3,3.290960193E-2,3.292771793E-2
2.318677083E0,-1.475314610E-3,-1.063179225E-4,3.093886375E-2,3.097420132E-2
2.328633083E0,1.093469909E-3,-1.218501478E-3,3.118014336E-2,3.122309661E-2
2.338589083E0,1.316110254E-3,-1.899888739E-4,3.143074736E-2,3.145886396E-2
2.348545083E0,-7.694049273E-4,-1.458544284E-5,3.075466305E-2,3.076428930E-2
2.358501083E0,-2.312973142E-3,2.208380029E-4,3.715237603E-2,3.722496016E-2
2.368457083E0,-5.998471752E-4,5.071405321E-4,3.799232468E-2,3.800044398E-2
2.378413083E0,1.435074140E-3,-2.045765519E-3,3.638084605E-2,3.646656762E-2
2.388369083E0,-3.415551502E-3,1.399610192E-3,3.190065175E-2,3.211349378E-2
2.398325083E0,-8.100771811E-5,-1.314151101E-3,3.101328760E-2,3.104122361E-2
2.408281083E0,-4.442527425E-4,1.522411592E-3,2.951671556E-2,2.955928948E-2
2.418237083E0,-1.421899186E-3,-2.394299023E-3,3.626649827E-2,3.637325063E-2
2.428193083E0,-5.975719541E-4,2.347443253E-3,3.217658401E-2,3.226763301E-2
2.438149083E0,6.076146383E-5,-5.048019812E-4,3.550686687E-2,3.551050707E-2
2.448105083E0,-8.149073692E-4,-1.376043074E-3,3.178243339E-2,3.182264352E-2
2.458061083E0,-1.184908906E-4,8.218633011E-4,3.148628771E-2,3.149723501E-2
2.468017083E0,-2.666531596E-3,-1.444379799E-3,2.758784406E-2,2.775402248E-2
2.477973083E0,3.425739123E-4,3.652386367E-4,2.954766341E-2,2.955190635E-2
2.487930083E0,1.287261723E-3,-6.165383384E-4,2.961956896E-2,2.965393781E-2
2.497886083E0,1.787403366E-3,-1.773824915E-4,3.399834037E-2,3.404575485E-2
2.507842083E0,-4.377298756E-4,6.466833875E-4,3.516225517E-2,3.517092543E-2
2.517798083E0,1.406509196E-3,-1.903483644E-4,3.164368495E-2,3.167549997E-2
2.527754083E0,-1.198785380E-3,-4.934184253E-4,3.063031286E-2,3.065773335E-2
2.537710083E0,-2.336487640E-3,-3.204782493E-3,3.100289032E-2,3.125554372E-2
2.547666083E0,1.766322181E-3,2.802312374E-4,2.928552032E-2,2.934007709E-2
2.557622083E0,-3.008234780E-4,6.821015850E-4,3.032708541E-2,3.033624674E-2
2.567578083E0,-5.066574086E-4,8.251201361E-4,3.162964433E-2,3.164446122E-2
2.577534083E0,-4.939269274E-5,1.846300438E-4,3.511998430E-2,3.512050434E-2
2.587490083E0,9.104442433E-4,-7.403520867E-4,3.332739696E-2,3.334804969E-2
2.597446083E0,9.604962543E-5,7.592737675E-4,3.229249269E-2,3.230156043E-2
2.607402083E0,1.000213553E-3,-1.058949158E-3,3.108480759E-2,3.111891809E-2
2.617358083E0,-1.879728865E-3,1.610336825E-3,2.742349543E-2,2.753497170E-2
2.627314083E0,-9.457510896E-4,5.398141220E-4,2.659539133E-2,2.661767617E-2
2.637270083E0,3.464146866E-4,2.013075165E-3,2.585396543E-2,2.593453303E-2
2.647226083E0,-1.115743537E-3,2.546180040E-4,2.903002873E-2,2.905257789E-2
2.657182083E0,-2.596194856E-3,1.292718574E-3,3.163646162E-2,3.176912105E-2
2.667138083E0,1.441461267E-3,2.736756578E-4,3.245747834E-2,3.249062341E-2
2.677094083E0,7.690131315E-4,1.472897828E-3,3.083215468E-2,3.087689381E-2
2.687050083E0,-1.551416935E-3,-1.204451546E-3,2.888925374E-2,2.895594204E-2
2.697006083E0,-1.892035129E-3,2.740222961E-3,3.212259710E-2,3.229473429E-2
2.706962083E0,-2.271099947E-5,-2.584438771E-4,2.688899823E-2,2.689024981E-2
2.716918083E0,8.132552030E-4,7.556872442E-4,2.606634609E-2,2.608997597E-2
2.726874083E0,-1.509194728E-3,-4.238095134E-4,2.941505238E-2,2.945679192E-2
2.736830083E0,-1.551538939E-3,-1.155113801E-3,3.206036985E-2,3.211866865E-2
2.746786083E0,-1.432821387E-3,-6.535584107E-4,3.445854783E-2,3.449451600E-2
2.756742083E0,9.003740270E-4,-2.310577780E-3,3.020068631E-2,3.030232493E-2
2.766698083E0,-1.024185098E-3,-3.525838256E-3,2.756205760E-2,2.780553020E-2
2.776654083E0,1.101549948E-3,1.443620771E-3,2.757723816E-2,2.763695927E-2
2.786611083E0,-6.308429874E-6,-1.910842955E-3,2.559159882E-2,2.566283872E-2
2.796567083E0,5.335143069E-4,1.118276268E-4,2.754822560E-2,2.755361821E-2
2.806523083E0,-2.039881656E-4,-7.469682023E-4,2.970222011E-2,2.971231146E-2
2.816479083E0,-1.265257946E-3,-2.361740917E-4,3.026787564E-2,3.029522985E-2
2.826435083E0,7.481340435E-4,-1.282054931E-3,2.940426208E-2,2.944170508E-2
2.836391083E0,2.036571503E-3,6.230827421E-5,3.061493300E-2,3.068266006E-2
2.846347083E0,8.989006164E-4,1.024685800E-3,2.920419350E-2,2.923598675E-2
2.856303083E0,-9.663773235E-4,7.178895175E-4,3.008623049E-2,3.011030580E-2
2.866259083E0,9.850214701E-4,-1.986614428E-3,2.612921223E-2,2.622313170E-2
2.876215083E0,1.332830405E-3,5.937218666E-4,2.822059393E-2,2.825828842E-2
2.886171083E0,6.483786274E-5,5.495939404E-4,3.155834973E-2,3.156320160E-2
2.896127083E0,-1.085647731E-3,-1.459495164E-3,3.139190376E-2,3.144456040E-2
2.906083083E0,-2.720265184E-4,-3.315443173E-4,3.208612278E-2,3.208898869E-2
2.916039083E0,-1.231829869E-3,-5.448628217E-4,3.184883669E-2,3.187730664E-2
2.925995083E0,-3.488501534E-5,4.104897380E-5,2.607319504E-2,2.607325069E-2
2.935951083E0,-1.192561002E-3,1.536414027E-3,2.872490510E-2,2.879067458E-2
2.945907083E0,1.408695243E-4,-5.258247256E-4,3.431196138E-2,3.431627937E-2
2.955863083E0,1.151805511E-3,1.618033275E-4,3.834372014E-2,3.836135699E-2
2.965819083E0,-8.241303731E-4,5.048904568E-4,3.293360770E-2,3.294778629E-2
2.975775083E0,-2.823631745E-3,2.175224945E-3,2.989387512E-2,3.010561857E-2
2.985731083E0,7.508073468E-4,-4.362938926E-4,2.858986519E-2,2.860304976E-2
2.995687083E0,2.429424785E-4,1.337638125E-3,2.572110854E-2,2.575701305E-2
3.005643083E0,1.716372790E-4,8.136006072E-4,2.830598876E-2,2.831819918E-2
3.015599083E0,2.378066070E-3,-1.247686334E-3,3.094864264E-2,3.106493845E-2
3.025555083E0,-2.599398140E-4,-1.242219470E-3,3.482352942E-2,3.484664804E-2
3.035511083E0,-1.829743851E-4,-1.629976556E-3,3.257901222E-2,3.262027499E-2
3.045467083E0,2.279602224E-3,8.059982210E-4,2.697175741E-2,2.707991723E-2
3.055423083E0,-1.468796865E-3,1.736773178E-3,2.549237013E-2,2.559364531E-2
3.065379083E0,-1.466663554E-3,1.631598920E-3,2.628185786E-2,2.637326809E-2
3.075335083E0,-9.976809379E-4,-4.627108574E-4,2.883902751E-2,2.885998919E-2
3.085291083E0,-5.364802200E-5,1.212046482E-3,3.081128374E-2,3.083516078E-2
3.095247083E0,-1.331432723E-3,-3.302810714E-3,3.670272976E-2,3.687508161E-2
3.105204083E0,5.015794304E-4,-8.046310395E-4,3.460551053E-2,3.461849755E-2
3.115160083E0,2.009461168E-3,3.471858799E-4,3.220919520E-2,3.227368475E-2
3.125116083E0,3.814186784E-4,3.141984344E-4,2.714461461E-2,2.714911238E-2
3.135072083E0,2.176342532E-4,-1.114587300E-3,2.496295422E-2,2.498877254E-2
3.145028083E0,-4.216979723E-4,-1.432649791E-3,2.651327103E-2,2.655529807E-2
3.154984083E0,-9.705754928E-4,-1.055013388E-3,3.327956796E-2,3.331042950E-2
3.164940083E0,1.745492918E-4,-1.088311896E-3,3.637808934E-2,3.639478361E-2
3.174896083E0,1.212861389E-4,1.804945990E-3,3.243341669E-2,3.248382765E-2
3.184852083E0,-4.234986845E-4,1.065987162E-3,2.601335011E-2,2.603862638E-2
3.194808083E0,-2.502628602E-3,5.501322448E-4,2.403941564E-2,2.417559306E-2
3.204764083E0,-1.389960642E-3,4.856381565E-5,2.550780401E-2,2.554569268E-2
3.214720083E0,-1.237361575E-3,-1.123759896E-3,2.964768931E-2,2.969477027E-2
3.224676083E0,7.498249761E-4,2.270340919E-4,3.329452872E-2,3.330374491E-2
3.234632083E0,6.464943290E-4,-1.964084804E-4,3.737076372E-2,3.737687135E-2
3.244588083E0,-1.996673876E-3,1.070521772E-3,3.078646958E-2,3.086971708E-2
3.254544083E0,-2.602929017E-4,-1.981195062E-3,2.818589285E-2,2.825663536E-2
3.264500083E0,8.347848197E-4,6.002271548E-4,2.718240023E-2,2.720183855E-2
3.274456083E0,1.096307184E-3,-1.947265118E-4,2.657839656E-2,2.660170994E-2
3.284412083E0,-1.478166669E-3,-6.695874035E-4,3.081130050E-2,3.085400400E-2
3.294368083E0,-4.163698293E-3,1.418863423E-3,3.611285985E-2,3.637977739E-2
3.304324083E0,2.306199633E-3,1.407916658E-3,3.728482127E-2,3.738259867E-2
3.314280083E0,-1.790807350E-3,1.229420304E-4,3.276756406E-2,3.281669331E-2
3.324236083E0,-1.619168208E-3,2.688930370E-3,2.665783651E-2,2.684198763E-2
3.334192083E0,3.137541935E-4,-3.012670204E-4,2.372542955E-2,2.372941657E-2
3.344148083E0,-9.583646897E-4,-1.763419248E-3,2.639963478E-2,2.647581588E-2
3.354104083E0,-4.454399459E-4,4.520639777E-4,3.257311136E-2,3.257929345E-2
3.364060083E0,-1.769013703E-3,1.298747957E-4,3.474311531E-2,3.478836498E-2
3.374016083E0,1.277642674E-3,1.423917711E-4,3.471728042E-2,3.474107376E-2
3.383972083E0,-1.320635434E-3,-1.521365717E-3,3.072855249E-2,3.079452175E-2
3.393928083E0,-2.709740307E-3,9.322045371E-4,2.653913572E-2,2.669339661E-2
3.403884083E0,1.339896000E-3,-2.149859443E-3,2.369419113E-2,2.382922387E-2
3.413841083E0,2.136500552E-5,-8.124206215E-4,2.656720951E-2,2.657963704E-2
3.423797083E0,2.342567546E-3,-1.195129938E-3,3.255410492E-2,3.266015471E-2
3.433753083E0,5.585158942E-4,6.195483729E-4,3.690011799E-2,3.690954467E-2
3.443709083E0,2.316164318E-3,-6.176596507E-4,3.253388032E-2,3.262207059E-2
3.453665083E0,-1.121443929E-3,-5.604019389E-4,3.048324585E-2,3.050901448E-2
3.463621083E0,-1.730081858E-3,4.481142387E-4,2.742269449E-2,2.748086903E-2
3.473577083E0,1.120266970E-4,-1.115160994E-3,2.902804874E-2,2.904967724E-2
3.483533083E0,-3.674041945E-4,-1.662957482E-3,3.118021227E-2,3.122668812E-2
3.493489083E0,-2.714447677E-3,-8.730636910E-4,3.459518403E-2,3.471249378E-2
3.503445083E0,-1.829143148E-4,-2.306315117E-3,3.523857147E-2,3.531443708E-2
3.513401083E0,-1.680006972E-4,-8.801920339E-4,3.191307932E-2,3.192565730E-2
3.523357083E0,1.312929555E-3,-1.512602903E-3,2.968642861E-2,2.975392067E-2
3.533313083E0,-4.575399216E-4,-4.356205463E-4,2.398486808E-2,2.399318663E-2
3.543269083E0,5.957889371E-4,1.239024103E-3,2.594876289E-2,2.598515809E-2
3.553225083E0,9.201619541E-4,2.807359211E-3,2.868675813E-2,2.883848220E-2
3.563181083E0,7.885016385E-4,-5.080560222E-4,3.156012297E-2,3.157405925E-2
3.573137083E0,2.228461672E-4,2.250179648E-3,3.252818063E-2,3.260667882E-2
3.583093083E0,-1.647932804E-3,1.682266593E-3,3.584779426E-2,3.592506168E-2
3.593049083E0,1.433078200E-3,2.652456053E-3,3.308263421E-2,3.321972189E-2
3.603005083E0,-5.148627097E-4,5.590207875E-4,2.884751745E-2,2.885752676E-2
3.612961083E0,2.707698150E-4,-3.805421293E-4,2.732046135E-2,2.732445309E-2
3.622917083E0,8.863662952E-4,7.293103263E-4,2.835892141E-2,2.838214161E-2
3.632873083E0,3.273623995E-3,2.576478757E-3,3.110783547E-2,3.138554260E-2
3.642829083E0,6.258473150E-4,-1.372700557E-3,3.046444617E-2,3.050177818E-2
3.652785083E0,-6.633889861E-4,2.584857866E-4,3.125727177E-2,3.126537923E-2
3.662741083E0,1.174395205E-3,1.636713743E-3,2.782874927E-2,2.790156486E-2
3.672697083E0,-6.104528438E-5,4.473458976E-4,2.720929682E-2,2.721304243E-2
3.682653083E0,-1.265717554E-3,1.046101563E-3,2.579058334E-2,2.584280477E-2
3.692609083E0,1.590522705E-3,7.193321362E-4,2.962473780E-2,2.967612325E-2
3.702565083E0,8.105405723E-4,1.744087785E-5,3.249786422E-2,3.250797531E-2
3.712521083E0,-1.146616531E-3,-3.623263910E-4,3.559991345E-2,3.562021684E-2
3.722477083E0,-5.024159327E-4,1.437350176E-3,3.492262959E-2,3.495580717E-2
3.732433083E0,-2.345019020E-4,-8.511040360E-4,2.856726199E-2,2.858089969E-2
3.742390083E0,-3.744305111E-3,1.321177930E-3,2.679118142E-2,2.708380944E-2
3.752346083E0,-3.884653561E-3,1.899615861E-3,2.743220329E-2,2.777093537E-2
3.762302083E0,-1.365391654E-3,-9.561311454E-4,3.027824685E-2,3.032409460E-2
3.772258083E0,3.507492947E-4,-8.924817666E-4,3.525649384E-2,3.526953227E-2
3.782214083E0,5.732941208E-4,2.041861415E-3,3.535033017E-2,3.541389145E-2
3.792170083E0,3.026598133E-3,-2.006676048E-3,3.295641392E-2,3.315587827E-2
3.802126083E0,6.333300844E-4,1.828446984E-3,2.824922837E-2,2.831542387E-2
3.812082083E0,9.244214743E-5,-1.236498356E-4,2.604812570E-2,2.604858321E-2
3.822038083E0,-8.996103425E-4,1.297169365E-3,2.592100017E-2,2.596902379E-2
3.831994083E0,1.927601406E-3,-1.039754599E-3,3.048166446E-2,3.056024550E-2
3.841950083E0,3.073272062E-3,-6.363298744E-4,3.490291908E-2,3.504373949E-2
3.851906083E0,-2.788488055E-4,7.872842252E-5,3.271859139E-2,3.271987435E-2
3.861862083E0,8.377147606E-4,-2.457555383E-4,3.175191209E-2,3.176391165E-2
3.871818083E0,1.167970477E-4,7.143141702E-4,2.988770232E-2,2.989646528E-2
3.881774083E0,9.101816686E-4,-7.938500494E-4,2.529799193E-2,2.532680446E-2
3.891730083E0,5.352085573E-4,-1.512290910E-4,2.839950845E-2,2.840495377E-2
3.901686083E0,-2.550815698E-4,1.644412056E-3,3.071400337E-2,3.075905006E-2
3.911642083E0,-6.478978321E-4,2.907272428E-4,3.415853530E-2,3.416591617E-2
3.921598083E0,1.684549497E-4,-4.286682233E-4,3.477270529E-2,3.477575544E-2
3.931554083E0,-3.788246540E-4,-1.134672202E-3,3.199289739E-2,3.201525375E-2
3.941510083E0,1.855520881E-3,-2.995193936E-3,2.991267294E-2,3.011946458E-2
3.951466083E0,6.280699745E-4,5.249725655E-4,2.762421966E-2,2.763634527E-2
3.961422083E0,-1.383358613E-3,7.452266291E-4,2.996294573E-2,3.000411906E-2
3.971378083E0,1.632671221E-3,1.257618889E-3,3.065243736E-2,3.072163955E-2
3.981334083E0,7.171826437E-4,-1.327842474E-4,3.202749044E-2,3.203579445E-2
3.991290083E0,9.558018646E-4,5.694916472E-4,2.995874733E-2,2.997939992E-2
4.001246083E0,2.542536007E-3,-1.207906753E-3,2.671380714E-2,2.686170173E-2
4.011202083E0,-1.379234949E-3,7.147528231E-5,2.432442084E-2,2.436359676E-2
4.021158083E0,-1.130464952E-3,2.396837808E-3,2.805425972E-2,2.817914603E-2
4.031114083E0,1.286087325E-3,7.438138127E-4,2.937784791E-2,2.941539100E-2
4.041070083E0,6.801408017E-4,2.427067608E-3,3.055493347E-2,3.065872157E-2
4.051026083E0,6.124965148E-4,7.319664583E-4,3.220102936E-2,3.221517063E-2
4.060982083E0,2.296298277E-3,-1.700202003E-3,3.031573445E-2,3.045008091E-2
4.070938083E0,-8.872445906E-4,-2.256091684E-4,2.621233463E-2,2.622831656E-2
4.080895083E0,2.190759173E-3,9.204987437E-4,2.666527778E-2,2.677095035E-2
4.090851083E0,5.646331119E-4,1.412574202E-4,2.929514647E-2,2.930092781E-2
4.100807083E0,3.280214150E-4,2.575338818E-3,3.061908297E-2,3.072894743E-2
4.110763083E0,1.417786931E-3,-6.598690525E-4,3.455257416E-2,3.458794483E-2
4.120718417E0,5.046798615E-4,-1.008607447E-3,3.131362051E-2,3.133392443E-2
4.130674417E0,-1.814400777E-3,-1.842176542E-3,2.965926379E-2,2.977175831E-2
4.140630417E0,5.445984425E-4,-3.973608837E-4,2.657964826E-2,2.658819634E-2
4.150586417E0,9.320883546E-4,1.407729462E-3,2.745289728E-2,2.750476432E-2
4.160542417E0,1.523417537E-3,8.686166257E-4,3.005648404E-2,3.010759919E-2
4.170498417E0,1.409705728E-4,-1.897342503E-3,3.165730834E-2,3.171442815E-2
4.180454417E0,9.380428819E-4,-8.913688362E-6,3.068658710E-2,3.070092232E-2
4.190410417E0,1.008350402E-3,4.627322778E-4,3.123439848E-2,3.125409638E-2
4.200366417E0,1.210889313E-4,4.127500579E-4,2.985018119E-2,2.985328026E-2
4.210322417E0,2.025816357E-4,1.950992271E-3,2.877612785E-2,2.884290110E-2
4.220278417E0,4.904926755E-5,-2.251426689E-3,2.992127277E-2,3.000589762E-2
4.230234417E0,-2.417037729E-3,5.994867533E-4,3.114579432E-2,3.124519098E-2
4.240190417E0,-1.281883451E-3,4.680380225E-4,3.044272028E-2,3.047329163E-2
4.250146417E0,-1.704526949E-3,2.805516124E-4,3.168961406E-2,3.173666272E-2
4.260102417E0,-6.159502082E-4,-2.220529132E-3,2.987393178E-2,2.996267585E-2
4.270058417E0,-4.897163017E-4,2.418300137E-4,2.915141545E-2,2.915653146E-2
4.280014417E0,2.788772108E-4,-1.172654331E-3,3.080756031E-2,3.083113139E-2
4.289970417E0,3.257488715E-4,-3.108559176E-4,3.071355261E-2,3.071685299E-2
4.299926417E0,6.926208152E-4,-9.262850508E-4,3.149133176E-2,3.151256421E-2
4.309882417E0,9.799759137E-4,2.050260082E-4,2.856744826E-2,2.858498712E-2
4.319838417E0,7.638165262E-4,7.695797831E-4,2.819813043E-2,2.821896930E-2
4.329794417E0,-1.699873712E-3,4.792958498E-4,2.809692919E-2,2.815238401E-2
4.339750417E0,2.104035579E-3,-2.996288240E-4,2.827437408E-2,2.835413502E-2
4.349706417E0,5.206989590E-5,-8.223578334E-7,2.933537774E-2,2.933542396E-2
4.359662417E0,-9.549652459E-4,1.179809682E-3,3.189165145E-2,3.192775191E-2
4.369618417E0,-2.371767070E-3,1.779020764E-3,3.169058263E-2,3.182896828E-2
4.379574417E0,-1.700695138E-3,1.307736151E-3,2.838254534E-2,2.846351028E-2
4.389530417E0,-3.249116708E-5,2.109879628E-3,3.099723719E-2,3.106897747E-2
4.399486417E0,-1.226358581E-4,-7.872208953E-4,3.204379603E-2,3.205369901E-2
4.409443417E0,-1.137300162E-3,6.871046498E-4,3.561429679E-2,3.563907547E-2
4.419399417E0,1.597026130E-4,-1.093613915E-3,3.157351166E-2,3.159284943E-2
4.429355417E0,8.199002477E-4,-1.516790129E-3,2.815001830E-2,2.820277325E-2
4.439311417E0,-3.970533144E-4,-1.182965003E-3,2.662894875E-2,2.665816890E-2
4.449267417E0,-2.319855615E-3,9.174700826E-4,2.577247471E-2,2.589293212E-2
4.459223417E0,-9.748355951E-4,1.670500264E-3,2.656044438E-2,2.663077320E-2
4.469179417E0,-2.449694090E-3,-1.709850505E-3,3.056237847E-2,3.070803750E-2
4.479135417E0,-2.102693077E-3,1.514973119E-4,2.914378047E-2,2.921992830E-2
4.489091417E0,-6.118552992E-4,-1.312709413E-3,3.042529523E-2,3.045974660E-2
4.499047417E0,-1.639157650E-3,9.644227102E-4,3.136768192E-2,3.142528310E-2
4.509003417E0,-1.883103163E-3,-5.549108610E-4,3.194638342E-2,3.200664645E-2
4.518959417E0,1.844867948E-3,4.040588159E-3,2.746902034E-2,2.782583276E-2
4.528915417E0,-1.280017896E-4,1.392607577E-3,2.492969856E-2,2.496889286E-2
4.538871417E0,-1.449245960E-3,-2.446938306E-4,2.335948311E-2,2.340567538E-2
4.548827417E0,1.229361515E-3,-7.032910362E-4,2.801681869E-2,2.805259484E-2
4.558783417E0,3.164045047E-3,-9.996145964E-4,2.537394129E-2,2.558998450E-2
4.568739417E0,-1.394221443E-3,-4.755044356E-4,2.809542604E-2,2.813401717E-2
4.578695417E0,9.863334708E-5,3.749374300E-4,2.674085274E-2,2.674366303E-2
4.588651417E0,3.044089535E-3,-3.006744199E-3,2.673419565E-2,2.707441982E-2
4.598607417E0,-3.966639051E-4,-6.080670282E-4,2.500089444E-2,2.501143360E-2
4.608563417E0,6.307836738E-4,-5.377596244E-4,2.457638644E-2,2.459036079E-2
4.618519417E0,-9.629076812E-4,9.825117886E-4,2.415063232E-2,2.418978219E-2
4.628475417E0,-1.555993687E-3,-3.413455561E-4,2.648968995E-2,2.653754523E-2
4.638431417E0,-4.888097756E-4,-2.277083695E-4,2.918897197E-2,2.919395264E-2
4.648387417E0,-4.888097756E-4,3.501977772E-4,3.019884229E-2,3.020482824E-2
4.658343417E0,-8.580894209E-4,5.753533915E-4,2.917096764E-2,2.918925662E-2
4.668299417E0,-8.570242207E-4,-7.394487038E-4,2.481137216E-2,2.483717905E-2
4.678255417E0,-1.266416395E-3,8.448855951E-4,2.339956351E-2,2.344903440E-2
4.688211417E0,-7.753295358E-4,1.207874157E-3,2.667551674E-2,2.671410281E-2
4.698167417E0,2.602128079E-4,2.513552085E-3,2.403336018E-2,2.416584483E-2
4.708123417E0,-2.954489086E-3,6.144521758E-4,2.808562666E-2,2.824728274E-2
4.718079417E0,5.708461395E-4,-2.360703424E-3,2.895470522E-2,2.905638898E-2
4.728035417E0,-7.711207727E-4,1.827649772E-3,3.202293068E-2,3.208431113E-2
4.737991417E0,-6.251716986E-4,1.289198175E-3,2.872636169E-2,2.876207099E-2
4.747947417E0,8.182615857E-4,-1.660519280E-3,2.570287511E-2,2.576945217E-2
4.757904417E0,-7.729473291E-4,2.582085319E-3,2.302275039E-2,2.317998377E-2
4.767860417E0,-5.521713756E-4,5.130749196E-4,2.129435726E-2,2.130769321E-2
4.777816417E0,5.844556144E-4,8.757896721E-4,2.465680800E-2,2.467927829E-2
4.787772417E0,-5.673615960E-4,7.444964722E-4,3.095385246E-2,3.096800214E-2
4.797728417E0,2.300173976E-3,-8.411332965E-5,3.027325310E-2,3.036062793E-2
4.807684417E0,-2.732668072E-3,1.648925245E-4,3.105888329E-2,3.117930236E-2
4.817640417E0,-8.716332959E-4,-9.642140940E-4,2.600862086E-2,2.604107932E-2
4.827596417E0,7.150780293E-4,1.817191951E-3,2.042104304E-2,2.051420293E-2
4.837552417E0,-7.765626069E-4,-1.396912150E-3,1.968312822E-2,1.974791001E-2
4.847508417E0,-7.643122226E-4,3.139032051E-4,2.197504602E-2,2.199057426E-2
4.857464417E0,3.602896351E-3,1.383802854E-3,2.938087285E-2,2.963328300E-2
4.867420417E0,-7.492920849E-5,-1.641281880E-3,3.275829554E-2,3.279947175E-2
4.877376417E0,-3.382381983E-4,2.280408517E-4,3.194548190E-2,3.194808635E-2
4.887332417E0,1.432612771E-4,3.545414656E-4,2.706497349E-2,2.706767469E-2
4.897288417E0,-1.592847169E-3,-5.369056016E-4,2.200091071E-2,2.206502894E-2
4.907244417E0,-1.532925875E-3,1.771788113E-3,1.925838552E-2,1.940037391E-2
4.917200417E0,-1.905673067E-3,1.389808953E-3,2.015402168E-2,2.029156841E-2
4.927156417E0,-1.084087766E-3,5.634296685E-4,2.689794451E-2,2.692567767E-2
4.937112417E0,9.434722597E-4,-2.733478323E-4,2.897007018E-2,2.898671809E-2
4.947068417E0,6.348119350E-4,-1.307985745E-3,3.150460124E-2,3.153813108E-2
4.957024417E0,7.581138634E-4,3.919750452E-5,2.701449767E-2,2.702516156E-2
4.966980417E0,4.206913291E-4,-2.724897116E-3,2.243039757E-2,2.259922080E-2
4.976936417E0,9.263643296E-4,3.695180640E-4,1.955655031E-2,1.958196503E-2
4.986892417E0,2.275508596E-4,-6.249062717E-4,2.280001529E-2,2.280971250E-2
4.996848417E0,-1.094842213E-3,1.893164590E-3,2.923867851E-2,2.932035254E-2
5.006804417E0,-6.034889957E-4,-1.311416738E-3,3.139743581E-2,3.143060592E-2
5.016760417E0,1.183183282E-3,-5.948580801E-4,2.885491773E-2,2.888529135E-2
5.026716417E0,-2.671742113E-4,6.496366113E-4,2.921603993E-2,2.922448287E-2
5.036672417E0,-6.191188004E-5,3.195954487E-4,2.282121032E-2,2.282353205E-2
5.046628417E0,-1.686440199E-3,1.884202473E-3,2.231787145E-2,2.246066975E-2
5.056584417E0,5.441614194E-4,2.801949158E-3,2.242308483E-2,2.260402097E-2
5.066540417E0,1.356324647E-4,-4.178127274E-4,2.337836102E-2,2.338248762E-2
5.076496417E0,-5.573119270E-4,7.983995602E-4,2.685179561E-2,2.686944298E-2
5.086452417E0,2.650722163E-4,1.940629445E-3,2.993174270E-2,2.999575848E-2
5.096408417E0,-3.705765586E-3,6.937468424E-4,2.830396779E-2,2.855395902E-2
5.106365417E0,-1.626369427E-3,9.462153539E-4,2.789650671E-2,2.795989070E-2
5.116321417E0,1.223200466E-3,7.140487432E-4,2.295670286E-2,2.300035415E-2
5.126277583E0,3.318403615E-4,-1.311019063E-3,2.196973562E-2,2.201131919E-2
5.136233583E0,-1.731453929E-3,1.416156068E-3,2.278720029E-2,2.289672308E-2
5.146189583E0,1.284576021E-3,6.576878950E-4,2.631375752E-2,2.635330196E-2
5.156145583E0,-1.522248262E-3,-1.238291152E-3,2.849244699E-2,2.855993943E-2
5.166101583E0,9.446378099E-4,-7.602544501E-4,3.213325515E-2,3.215612561E-2
5.176057583E0,1.074521570E-4,3.288602456E-4,2.816482820E-2,2.816695302E-2
5.186013583E0,-1.576464507E-3,5.403151736E-4,2.334583737E-2,2.340524094E-2
5.195969583E0,-1.754955854E-3,-1.134610735E-3,2.219148166E-2,2.228966285E-2
5.205925583E0,9.088113438E-5,-7.660295814E-4,2.724696137E-2,2.725787895E-2
5.215881583E0,-2.424238715E-3,2.195303328E-3,2.770604193E-2,2.789840586E-2
5.225837583E0,1.427819952E-4,1.979054883E-3,3.119425103E-2,3.125729263E-2
5.235793583E0,-2.329107840E-3,6.231460720E-4,2.830396779E-2,2.840647192E-2
5.245749583E0,2.328529954E-4,5.198149011E-4,2.989227884E-2,2.989770496E-2
5.255705583E0,-2.476098016E-4,-1.944750547E-4,2.309961803E-2,2.310176366E-2
5.265661583E0,2.578581916E-4,1.277672127E-4,2.368551306E-2,2.368726123E-2
5.275617583E0,7.352432585E-4,1.979862340E-3,2.241376229E-2,2.251304460E-2
5.285573583E0,-6.535953144E-4,2.503173426E-3,2.198259719E-2,2.213430919E-2
5.295529583E0,-1.145476126E-3,-4.159286618E-4,2.552644908E-2,2.555552220E-2
5.305485583E0,-2.503155731E-3,1.587811857E-4,3.002665937E-2,3.013123418E-2
5.315441583E0,2.563098213E-3,-6.041955203E-4,2.949572168E-2,2.961303973E-2
5.325397583E0,-1.032968285E-3,1.949243248E-3,2.731059678E-2,2.739954870E-2
5.335353583E0,-1.158341067E-3,1.280224882E-3,2.073277533E-2,2.080453563E-2
5.345309583E0,3.374625463E-3,2.561471425E-3,2.072132379E-2,2.114999982E-2
5.355265583E0,-2.778167836E-4,1.660845242E-3,2.416342683E-2,2.422203099E-2
5.365221583E0,-1.347076031E-3,1.893073320E-3,2.868041582E-2,2.877437388E-2
5.375177583E0,3.668010468E-4,-4.704855382E-5,3.144317865E-2,3.144535324E-2
5.385133583E0,-2.192763146E-3,-1.247335225E-3,3.216169775E-2,3.226048445E-2
5.395089583E0,-1.475620316E-3,-1.026513055E-3,3.003356792E-2,3.008731271E-2
5.405045583E0,-5.158171989E-4,-1.892158762E-4,2.382360958E-2,2.382994426E-2
5.415001583E0,-7.493032608E-4,-1.114448532E-4,2.495092340E-2,2.496242083E-2
5.424957583E0,-8.568949997E-4,8.269958198E-5,2.136471309E-2,2.138205027E-2
5.434913583E0,1.116633415E-3,1.732226461E-3,2.250319719E-2,2.259737513E-2
5.444869583E0,8.945257869E-4,-4.329234362E-4,2.361613140E-2,2.363703156E-2
5.454826583E0,5.579312565E-4,2.571549267E-4,2.775212936E-2,2.775892829E-2
5.464782583E0,2.775003668E-4,1.652917825E-3,2.865174599E-2,2.870072633E-2
5.474738583E0,1.300256466E-3,1.918572001E-3,2.979699895E-2,2.988699938E-2
5.484694583E0,2.571383258E-3,1.446399838E-4,2.459504828E-2,2.472952350E-2
5.494650583E0,-4.700279096E-4,2.158171497E-3,2.352920175E-2,2.363264618E-2
5.504606583E0,1.454286976E-4,6.875740364E-4,2.088548243E-2,2.089730327E-2
5.514562583E0,-3.904794576E-4,-2.522409894E-3,2.054031007E-2,2.069829374E-2
5.524518583E0,1.777866273E-3,8.775386959E-5,2.421893366E-2,2.428425944E-2
5.534474583E0,2.017766936E-3,6.617056206E-4,2.914894372E-2,2.922618959E-2
5.544430583E0,1.932353480E-4,5.796737969E-5,2.887996286E-2,2.888066750E-2
5.554386583E0,-3.357564565E-4,1.264007762E-3,2.624673210E-2,2.627929592E-2
5.564342583E0,-4.540007794E-4,-4.502693191E-4,2.601343952E-2,2.602129695E-2
5.574298583E0,-5.331401480E-4,7.898239419E-4,2.294957265E-2,2.296934795E-2
5.584254583E0,1.359035727E-3,1.922999509E-3,2.485826239E-2,2.496954373E-2
5.594210583E0,5.839696387E-4,4.405770451E-4,2.805736102E-2,2.806689573E-2
5.604166583E0,-6.506718928E-4,-1.368774101E-3,2.815829404E-2,2.819905033E-2
5.614122583E0,2.303470392E-3,-4.649003968E-4,3.005765937E-2,3.014937802E-2
5.624078583E0,1.094128937E-3,1.883730292E-4,2.997403778E-2,2.999459190E-2
5.634034583E0,2.578750718E-3,6.967317313E-4,2.637861483E-2,2.651351939E-2
5.643990583E0,2.210968174E-3,-6.050216034E-4,2.516447939E-2,2.526866546E-2
5.653946583E0,-2.066554036E-3,8.174572140E-4,2.424604818E-2,2.434768437E-2
5.663902583E0,2.416611416E-3,1.284043305E-3,2.459971607E-2,2.475146074E-2
5.673858583E0,6.426101318E-4,-4.850262776E-4,2.564267255E-2,2.565530849E-2
5.683814583E0,2.497235313E-3,8.044764400E-4,2.644028701E-2,2.657013631E-2
5.693770583E0,1.847732812E-3,1.715806313E-3,2.498228662E-2,2.510921648E-2
5.703726583E0,3.350573825E-4,1.818249002E-4,2.459826134E-2,2.460121511E-2
5.713682583E0,-1.289538923E-3,3.327298909E-4,3.010714799E-2,3.013658873E-2
5.723638583E0,-1.432550722E-3,8.254144341E-4,2.718938887E-2,2.723961046E-2
5.733594583E0,2.410068410E-3,1.247730106E-4,2.935833484E-2,2.945735600E-2
5.743550583E0,7.514517056E-4,-1.028642058E-3,2.471164986E-2,2.474446248E-2
5.753506583E0,7.670506602E-4,3.876275383E-3,2.890020236E-2,2.916908593E-2
5.763462583E0,4.005996743E-4,-3.999620676E-4,2.812975273E-2,2.813544807E-2
5.773418583E0,6.496376009E-4,5.967216566E-4,2.691289037E-2,2.692734250E-2
5.783374583E0,-1.692079939E-3,1.206052490E-3,2.484787628E-2,2.493460753E-2
5.793330583E0,5.372301093E-4,1.148758456E-3,2.390553802E-2,2.393915225E-2
5.803287583E0,-1.333640656E-3,-9.255772457E-4,2.389648557E-2,2.395156181E-2
5.813243583E0,3.212341107E-5,7.347157225E-4,2.550439164E-2,2.551499230E-2
5.823199583E0,4.720776342E-4,3.091432154E-4,2.567163855E-2,2.567783972E-2
5.833155583E0,-3.740672255E-4,9.421352297E-4,2.704517357E-2,2.706416373E-2
5.843111583E0,1.305322046E-3,2.179705538E-3,2.499400638E-2,2.512280511E-2
5.853067583E0,1.704503084E-3,-1.622123644E-3,2.765401825E-2,2.775394281E-2
5.863023583E0,-5.824328400E-5,8.623395115E-4,2.786893398E-2,2.788233316E-2
5.872979583E0,-2.767776605E-4,5.396874622E-4,2.420188673E-2,2.420948553E-2
5.882935583E0,-3.592945635E-3,1.909351908E-3,2.665598877E-2,2.696472919E-2
5.892891583E0,-1.161352615E-3,-1.039516181E-3,2.843648754E-2,2.847917059E-2
5.902847583E0,1.000601682E-3,1.170942560E-4,2.761330642E-2,2.763167758E-2
5.912803583E0,-1.500741113E-3,1.932702027E-3,2.577871457E-2,2.589458796E-2
5.922759583E0,1.472678152E-3,-1.291320659E-3,2.206493542E-2,2.215169666E-2
5.932715583E0,7.806626381E-4,1.294609159E-3,2.428109199E-2,2.432810875E-2
5.942671583E0,-1.622573938E-3,1.375036314E-3,2.569203451E-2,2.577991677E-2
5.952627583E0,1.234324998E-3,-5.440888926E-4,2.461889386E-2,2.465582134E-2
5.962583583E0,2.285302617E-5,7.768394426E-4,2.834811807E-2,2.835876936E-2
5.972539583E0,-1.278511016E-3,3.761919215E-4,2.994056232E-2,2.997020826E-2
5.982495583E0,6.309755263E-4,-9.785033762E-5,2.556791715E-2,2.557588889E-2
5.992451583E0,1.073062536E-3,3.163237125E-4,2.311031893E-2,2.313738025E-2
6.002407583E0,-1.053862507E-4,2.357370220E-3,2.259606123E-2,2.271894108E-2
6.012363583E0,5.465285503E-4,-1.392365433E-3,2.465858683E-2,2.470391223E-2
6.022319583E0,-1.775481505E-3,7.573375478E-4,2.387455106E-2,2.395245463E-2
6.032275583E0,-5.898462841E-4,3.012334928E-3,2.479632013E-2,2.498558729E-2
6.042231583E0,-1.005033148E-3,1.936151646E-3,2.579447068E-2,2.588655042E-2
6.052187583E0,1.202629646E-3,1.085038297E-3,2.825260162E-2,2.829899512E-2
6.062143583E0,-2.349228133E-3,-8.880980313E-4,2.553564310E-2,2.565885148E-2
6.072099583E0,-8.753186557E-4,2.965333872E-3,2.574258670E-2,2.592759452E-2
6.082055583E0,1.044820528E-3,1.081147231E-3,2.399928123E-2,2.404633088E-2
6.092011583E0,2.592136152E-4,-1.473939978E-3,2.507253736E-2,2.511716187E-2
6.101967583E0,-9.765615687E-6,1.115717925E-3,2.518465370E-2,2.520935747E-2
6.111923583E0,-1.918210415E-3,-4.555610940E-4,2.613062970E-2,2.620490175E-2
6.121879583E0,1.411539852E-3,8.358052000E-4,2.390822209E-2,2.396443404E-2
6.131835708E0,-5.236549769E-4,1.357086003E-3,2.227027155E-2,2.231772596E-2
6.141791708E0,-1.425934024E-3,1.479058526E-3,2.123669721E-2,2.133584333E-2
6.151748708E0,-3.045817139E-4,1.567380503E-3,2.108275145E-2,2.114312797E-2
6.161704708E0,-2.049794421E-4,2.566864714E-3,2.708232030E-2,2.720446441E-2
6.171660708E0,4.981578095E-4,-1.227578148E-3,2.513646707E-2,2.517135447E-2
6.181616708E0,-4.730970832E-4,-1.201478764E-3,2.671439201E-2,2.674558117E-2
6.191572708E0,1.523894025E-4,-5.516372621E-4,2.151281014E-2,2.152042115E-2
6.201528708E0,-1.163478475E-3,-9.324690327E-4,2.172453329E-2,2.177564069E-2
6.211484708E0,7.867894019E-4,2.973666415E-3,2.143431455E-2,2.165390426E-2
6.221440708E0,1.204373082E-3,-8.959062397E-4,2.341277525E-2,2.346084413E-2
6.231396708E0,-1.923331409E-3,-1.195308752E-3,2.578046918E-2,2.587973257E-2
6.241352708E0,-5.163834430E-4,1.234559342E-3,2.644705772E-2,2.648089218E-2
6.251308708E0,-5.247610388E-4,-6.761206314E-4,2.259113081E-2,2.260733740E-2
6.261264708E0,-2.700297395E-3,5.816901103E-4,2.472938411E-2,2.488317520E-2
6.271220708E0,8.920917753E-5,-1.802619547E-3,2.140451223E-2,2.148046878E-2
6.281176708E0,1.095085172E-3,-1.834044233E-3,2.006520703E-2,2.017858923E-2
6.291132708E0,6.096125580E-4,8.754869923E-4,2.302596718E-2,2.305066744E-2
6.301088708E0,1.221873215E-3,4.733502865E-4,2.415861189E-2,2.419412249E-2
6.311044708E0,1.076213084E-4,-1.887189224E-3,2.463248745E-2,2.470490849E-2
6.321000708E0,-7.669607876E-4,3.818236291E-4,2.566552907E-2,2.567982478E-2
6.330956708E0,5.091893836E-4,9.999610484E-5,2.284708247E-2,2.285297465E-2
6.340912708E0,9.491436067E-4,9.751105681E-4,2.207556367E-2,2.211746427E-2
6.350868708E0,2.499596681E-3,-1.504091546E-3,2.289299108E-2,2.307811335E-2
6.360824708E0,-5.300152116E-4,8.048955351E-5,1.947242580E-2,1.947980394E-2
6.370780708E0,-2.464763355E-3,1.829027198E-3,2.249636129E-2,2.270477196E-2
6.380736708E0,-1.624604920E-4,-3.438629210E-5,2.292167023E-2,2.292227174E-2
6.390692708E0,1.453355886E-3,-3.618188202E-6,2.438597754E-2,2.442924798E-2
6.400648708E0,-1.302749617E-3,1.533025876E-3,2.399608865E-2,2.408027399E-2
6.410604708E0,2.470813924E-4,-4.903040826E-4,2.283592150E-2,2.284252083E-2
6.420560708E0,-1.290894113E-3,7.605832070E-4,1.957701147E-2,1.963426272E-2
6.430516708E0,3.389134537E-3,-5.342317745E-4,1.985326223E-2,2.014754719E-2
6.440472708E0,6.159851328E-4,1.704227179E-5,1.924659498E-2,1.925645727E-2
6.450428708E0,-1.852282207E-3,1.708158292E-3,2.202301845E-2,2.216668888E-2
6.460384708E0,-5.494637880E-4,-1.171138138E-5,2.441400290E-2,2.442018806E-2
6.470340708E0,-3.721510293E-4,1.124851406E-3,2.447584085E-2,2.450450107E-2
6.480296708E0,-8.645695634E-4,1.000668854E-4,2.396744303E-2,2.398324039E-2
6.490252708E0,5.427965662E-4,-1.992070116E-3,2.434453368E-2,2.443193180E-2
6.500209708E0,-1.901052892E-4,-4.316866398E-5,2.301907912E-2,2.301990458E-2
6.510165708E0,5.052048946E-4,2.778677270E-3,2.163573727E-2,2.181928978E-2
6.520121708E0,2.245846903E-3,-7.683867589E-4,2.184399590E-2,2.197258299E-2
6.530077708E0,3.163180081E-4,-9.256741032E-4,2.255663462E-2,2.257783637E-2
6.540033708E0,-6.824254524E-5,3.545079380E-4,2.404321171E-2,2.404592195E-2
6.549989708E0,1.198896905E-3,-8.556628600E-4,2.526151575E-2,2.530442038E-2
6.559945708E0,-1.889837207E-3,-7.615610957E-5,2.383299731E-2,2.390792850E-2
6.569901708E0,1.518080244E-4,4.629772156E-4,2.337701619E-2,2.338209313E-2
6.579857708E0,4.061399377E-4,-1.646245830E-3,2.222386748E-2,2.228845801E-2
6.589813708E0,-1.078255940E-3,-7.572835311E-4,2.048462816E-2,2.052696044E-2
6.599769708E0,-7.951620501E-4,8.664457127E-4,2.271023206E-2,2.274066075E-2
6.609725708E0,1.772645395E-3,3.735367209E-4,2.023088560E-2,2.031183235E-2
6.619681708E0,6.181650679E-4,1.581812277E-3,1.771126688E-2,1.779250495E-2
6.629637708E0,-1.391307567E-3,1.569204964E-3,2.010004036E-2,2.020915049E-2
6.639593708E0,1.247086097E-3,2.107266337E-4,2.004065178E-2,2.008052174E-2
6.649549708E0,7.790539530E-4,1.463938504E-3,2.057417482E-2,2.064089898E-2
6.659505708E0,1.240846002E-3,-3.648549318E-4,2.175768465E-2,2.179609275E-2
6.669461708E0,2.704650629E-3,-8.053518832E-4,2.379726060E-2,2.396400089E-2
6.679417708E0,-8.274998982E-4,-2.492996864E-3,2.653499134E-2,2.666468741E-2
6.689373708E0,-4.457719624E-4,1.084445976E-3,2.177144215E-2,2.180299128E-2
6.699329708E0,1.367041725E-3,9.508151561E-5,2.076263726E-2,2.080780982E-2
6.709285708E0,-7.381435717E-4,5.944995210E-4,1.975202188E-2,1.977474789E-2
6.719241708E0,-2.059870400E-3,1.662160270E-3,2.081249282E-2,2.098012631E-2
6.729197708E0,1.300285570E-3,-7.781200111E-5,2.106231637E-2,2.110255833E-2
6.739153708E0,-2.665960230E-3,7.325876504E-4,2.426476963E-2,2.442177458E-2
6.749109708E0,-1.233240939E-3,-1.007411629E-5,2.592469007E-2,2.595400816E-2
6.759065708E0,-3.108999226E-5,-7.741348818E-4,2.113552764E-2,2.114972293E-2
6.769021708E0,-3.316029906E-4,7.355874404E-4,2.130163088E-2,2.131690709E-2
6.778977708E0,-1.477294951E-3,3.241291270E-4,2.295998111E-2,2.300974126E-2
6.788933708E0,-1.024652156E-3,-1.618769020E-4,1.778537035E-2,1.781559751E-2
6.798889708E0,1.256611547E-3,1.261582598E-3,2.040112764E-2,2.047868824E-2
6.808845708E0,2.613892313E-3,-1.430171542E-3,2.043796517E-2,2.065401278E-2
6.818801708E0,-2.902046777E-3,-5.079191178E-4,2.020866610E-2,2.042229279E-2
6.828757708E0,9.094346315E-4,-1.661489718E-3,1.917896047E-2,1.927226360E-2
6.838714708E0,-2.799330978E-4,7.840907201E-4,1.811476052E-2,1.813388291E-2
6.848670708E0,-1.254076604E-3,-3.473889083E-4,1.982811466E-2,1.987077045E-2
6.858626708E0,5.190559896E-4,-4.035821185E-4,2.284867316E-2,2.285813122E-2
6.868582708E0,4.324764595E-4,-1.016316004E-3,2.089858055E-2,2.092774721E-2
6.878538708E0,6.676336052E-4,9.317863733E-4,2.231671289E-2,2.234613243E-2
6.888494708E0,6.463246536E-4,-5.656164140E-4,2.001625486E-2,2.003467284E-2
6.898450708E0,1.259429846E-4,3.398582339E-4,1.883834042E-2,1.884182674E-2
6.908406708E0,6.344756112E-4,4.670452327E-4,1.935241558E-2,1.936844545E-2
6.918362708E0,-2.623369452E-3,-2.040054649E-3,1.668712310E-2,1.701481613E-2
6.928318708E0,1.498730271E-3,1.270962879E-3,1.819328219E-2,1.829909986E-2
6.938274708E0,-9.828031762E-4,1.546866260E-3,2.169587463E-2,2.177314110E-2
6.948230708E0,3.981268965E-4,1.535501331E-3,2.108651958E-2,2.114610076E-2
6.958186708E0,1.763795968E-3,-2.058409154E-5,2.046973445E-2,2.054559389E-2
6.968142708E0,1.383991097E-3,-5.046650767E-4,1.767101511E-2,1.773231213E-2
6.978098708E0,7.442998467E-4,5.123959854E-4,1.550746337E-2,1.553376812E-2
6.988054708E0,-5.204123445E-4,6.297016516E-4,1.685898378E-2,1.687876439E-2
6.998010708E0,2.545685042E-3,-1.479405910E-4,1.850881055E-2,1.868364169E-2
7.007966708E0,2.185608028E-3,-6.251949817E-4,1.989513636E-2,2.002458993E-2
7.017922708E0,1.050302410E-3,9.657777846E-4,2.186454460E-2,2.191105138E-2
7.027878708E0,-2.377001802E-4,1.466146670E-3,2.346654423E-2,2.351350219E-2
7.037834708E0,-2.028409857E-3,-1.123777591E-3,2.139993198E-2,2.152520410E-2
7.047790708E0,-7.589015877E-4,-4.357090220E-4,1.879946515E-2,1.881982104E-2
7.057746708E0,-1.914979774E-3,1.442352310E-3,1.854806393E-2,1.870235823E-2
7.067702708E0,1.108566998E-3,-1.062857918E-3,1.902130619E-2,1.908320405E-2
7.077658708E0,-1.069099642E-3,-1.845827326E-3,1.949774474E-2,1.961407919E-2
7.087614708E0,-1.563592697E-3,2.491185442E-4,2.157704905E-2,2.163506246E-2
7.097570708E0,-5.473304773E-4,1.293610781E-3,2.361516654E-2,2.365690365E-2
7.107526708E0,-1.276409603E-3,-1.636974514E-3,2.199663967E-2,2.209436724E-2
7.117482708E0,-2.131550573E-3,-2.763653174E-4,2.120115235E-2,2.130982747E-2
7.127438792E0,6.201534416E-4,4.281252623E-4,1.854046620E-2,1.855577454E-2
7.137394792E0,8.925948059E-4,2.558194101E-4,1.912928931E-2,1.915181137E-2
7.147350792E0,-1.380440895E-3,-8.161179721E-5,2.068487369E-2,2.073104621E-2
7.157306792E0,-2.489192411E-5,-2.344772220E-4,2.405696921E-2,2.405812476E-2
7.167262792E0,9.516881546E-4,2.212822437E-4,2.265120856E-2,2.267227218E-2
7.177218792E0,-1.694961335E-3,4.015779123E-4,2.144026943E-2,2.151091146E-2
7.187175792E0,-1.395741012E-3,-1.058814116E-3,2.378392965E-2,2.384836451E-2
7.197131792E0,1.490060240E-3,-5.141980946E-4,1.978572831E-2,1.984841867E-2
7.207087792E0,6.711003953E-4,1.111946069E-3,1.911213621E-2,1.915621441E-2
7.217043792E0,-2.558249980E-5,-1.224178821E-3,1.785991713E-2,1.790184092E-2
7.226999792E0,2.267490141E-3,4.529654980E-4,1.640595868E-2,1.656810700E-2
7.236955792E0,-3.203036031E-4,1.718499698E-3,1.964968815E-2,1.972729277E-2
7.246911792E0,2.669040114E-4,8.542630821E-4,2.035883814E-2,2.037850077E-2
7.256867792E0,1.158264000E-3,1.734970137E-3,2.073487639E-2,2.083954884E-2
7.266823792E0,-1.928632846E-3,-2.824235708E-5,2.266907878E-2,2.275099020E-2
7.276779792E0,-7.951916195E-4,1.059807837E-4,2.067303844E-2,2.068859782E-2
7.286735792E0,-2.157572657E-3,-1.229550689E-4,2.278105542E-2,2.288332851E-2
7.296691792E0,-1.285100589E-4,3.143362701E-4,1.905529574E-2,1.905832148E-2
7.306647792E0,-1.736596460E-4,2.440797165E-3,2.033306845E-2,2.047977834E-2
7.316603792E0,-2.154712565E-4,3.776466474E-4,2.169394679E-2,2.169830344E-2
7.326559792E0,-4.503985401E-4,7.916269824E-4,1.876110584E-2,1.878320059E-2
7.336515792E0,-1.105003641E-3,4.920214415E-4,2.075235173E-2,2.078757370E-2
7.346471792E0,2.100692829E-3,-2.231406979E-3,1.888819970E-2,1.913520775E-2
7.356427792E0,1.091088401E-3,4.050321877E-6,1.865224354E-2,1.868412908E-2
7.366383792E0,-1.135603059E-3,-2.274650149E-3,1.961340569E-2,1.977749505E-2
7.376339792E0,-1.200051513E-3,4.755966365E-4,1.982406341E-2,1.986604655E-2
7.386295792E0,1.587087871E-3,-2.625333145E-4,1.858608611E-2,1.865557205E-2
7.396251792E0,-1.260896563E-3,7.217703387E-4,1.648085751E-2,1.654477188E-2
7.406207792E0,-2.422256395E-3,-1.328205690E-4,1.797460578E-2,1.813756931E-2
7.416163792E0,1.111492165E-3,2.562673762E-4,1.773492061E-2,1.777156427E-2
7.426119792E0,1.126003917E-4,3.762310371E-4,1.691849902E-2,1.692305640E-2
7.436075792E0,1.806370914E-3,2.218073234E-3,1.984611154E-2,2.005120864E-2
7.446031792E0,2.254419494E-3,6.846589968E-4,2.042850107E-2,2.056392037E-2
7.455987792E0,2.381403465E-4,1.564301550E-3,1.942848414E-2,1.949281268E-2
7.465943792E0,-2.316979459E-3,1.052650623E-3,2.133196592E-2,2.148323154E-2
7.475899792E0,-1.420293236E-3,7.282774895E-4,2.079907060E-2,2.086022432E-2
7.485855792E0,2.292957623E-3,9.056674317E-4,1.875894517E-2,1.892025137E-2
7.495811792E0,-2.017102204E-3,4.646470770E-4,2.049905434E-2,2.060329651E-2
7.505767792E0,7.801642641E-4,-1.593586057E-5,1.881014928E-2,1.882632801E-2
7.515724792E0,-4.563415423E-4,8.336128667E-4,2.349092066E-2,2.351013636E-2
7.525680792E0,-5.476896185E-4,-1.011241227E-3,2.246822231E-2,2.249763513E-2
7.535636792E0,-1.660891110E-3,2.875821665E-4,1.966258325E-2,1.973470149E-2
7.545592792E0,2.168659819E-3,-8.647534996E-4,1.855697110E-2,1.870326337E-2
7.555548792E0,1.518479548E-4,-1.571513712E-4,1.793805510E-2,1.793938614E-2
7.565504792E0,-1.747263828E-3,5.690651014E-4,1.826254278E-2,1.835476055E-2
7.575460792E0,8.911299519E-4,-8.152462542E-4,1.856667548E-2,1.860591781E-2
7.585416792E0,-2.146387473E-3,1.331897452E-3,1.779770292E-2,1.797607186E-2
7.595372792E0,-7.977464702E-5,1.725512557E-3,1.830823161E-2,1.838953785E-2
7.605328792E0,-4.310184158E-4,1.412481070E-3,1.878653094E-2,1.884448525E-2
7.615284792E0,3.506193170E-4,1.080917194E-3,1.820250228E-2,1.823793862E-2
7.625240792E0,2.246143296E-3,-1.703539863E-3,1.476928964E-2,1.503592778E-2
7.635196792E0,4.024369409E-4,4.336470738E-4,1.632137969E-2,1.633209847E-2
7.645152792E0,-1.495409408E-3,1.481017098E-3,1.825514436E-2,1.837607021E-2
7.655108792E0,-4.762177123E-4,-1.286272891E-3,2.051297575E-2,2.055878050E-2
7.665064792E0,-3.456216305E-3,3.667194396E-4,1.982905902E-2,2.013135604E-2
7.675020792E0,-8.796078619E-4,2.335617319E-4,1.922638528E-2,1.924791293E-2
7.684976792E0,-1.516733319E-4,3.804227803E-3,2.141763270E-2,2.175339386E-2
7.694932792E0,-8.030824829E-4,6.177555770E-4,1.872810721E-2,1.875549421E-2
7.704888792E0,1.081407536E-3,5.856128410E-4,1.437041536E-2,1.442294083E-2
7.714844792E0,-7.010460831E-4,-1.209238544E-4,1.696353406E-2,1.697844445E-2
7.724800792E0,-7.730424404E-4,1.276115887E-3,1.724707521E-2,1.731148953E-2
7.734756792E0,3.167230170E-4,5.088588223E-4,1.749395020E-2,1.750421505E-2
7.744712792E0,1.511388109E-3,-6.453376263E-4,1.651770435E-2,1.659925636E-2
7.754668792E0,1.140143489E-3,-3.241653554E-3,1.730679907E-2,1.764464618E-2
7.764624792E0,1.938515110E-3,6.110752001E-4,1.754439063E-2,1.766173537E-2
7.774580792E0,-1.184840221E-3,9.173387662E-4,1.689750887E-2,1.696381923E-2
7.784536792E0,1.187663642E-3,-7.885694504E-5,1.696979627E-2,1.701148873E-2
7.794492792E0,-7.050448330E-4,6.796112284E-4,1.710854843E-2,1.713655126E-2
7.804448792E0,1.043842873E-3,4.844646901E-5,1.488928124E-2,1.492590536E-2
7.814404792E0,-1.497345511E-3,-9.792670608E-4,1.343572512E-2,1.355432467E-2
7.824360792E0,2.533442806E-3,1.626033336E-4,1.598315313E-2,1.618350878E-2
7.834316792E0,1.626902842E-3,2.415637486E-3,1.627396792E-2,1.653251793E-2
7.844272792E0,-9.696289198E-4,-1.364179887E-3,1.525146514E-2,1.534302304E-2
7.854229792E0,2.760394476E-3,-1.579096541E-3,1.505226269E-2,1.538453560E-2
7.864185792E0,-3.545250511E-4,-1.293226145E-3,1.597712189E-2,1.603329491E-2
7.874141792E0,9.709301521E-4,5.147941411E-4,1.665782556E-2,1.669403698E-2
7.884097792E0,1.512821997E-3,1.683145761E-3,1.619073004E-2,1.634812984E-2
7.894053792E0,-1.368451864E-3,1.195254736E-3,1.752017811E-2,1.761414021E-2
7.904009792E0,2.147766063E-3,7.972195745E-4,1.662579924E-2,1.678289780E-2
7.913965792E0,-3.902263707E-4,1.212939620E-3,1.510193944E-2,1.515559547E-2
7.923921792E0,1.689968049E-3,3.393860534E-4,1.411480457E-2,1.421966536E-2
7.933877792E0,2.760825213E-3,-4.140222445E-4,1.405062154E-2,1.432527612E-2
7.943833792E0,-3.981422633E-4,-1.102726907E-3,1.688061468E-2,1.692127879E-2
7.953789792E0,-7.680553244E-4,-1.308855601E-3,1.951101609E-2,1.956994534E-2
7.963745792E0,-4.735391121E-5,-7.172049955E-4,1.645648666E-2,1.647217589E-2
7.973701792E0,-8.630802622E-4,-3.478636965E-3,1.565167867E-2,1.605680129E-2
7.983657792E0,1.053921180E-3,3.232955933E-4,1.307450794E-2,1.312090041E-2
7.993613792E0,-8.949800394E-4,2.408551052E-3,1.268249191E-2,1.294015875E-2
8.003569792E0,5.709134275E-4,-1.869433559E-3,1.463299803E-2,1.476297245E-2
8.013525792E0,-9.061582386E-5,6.587048993E-4,1.867753826E-2,1.868936968E-2
8.023481792E0,1.333144144E-3,-6.455127150E-4,1.787897013E-2,1.794022109E-2
8.033437792E0,5.608273786E-4,6.716866046E-4,1.741877384E-2,1.744073887E-2
8.043393792E0,1.448721508E-3,-1.164632849E-3,1.687686518E-2,1.697892052E-2
8.053349792E0,2.700064797E-4,5.096960813E-4,1.685076579E-2,1.686063467E-2
8.063305792E0,-1.204257016E-3,-8.786395192E-4,1.531815715E-2,1.539052244E-2
8.073261792E0,-2.686886583E-4,8.462900296E-4,1.365048625E-2,1.367933387E-2
8.083217792E0,8.859346854E-4,1.202924177E-4,1.269904710E-2,1.273048105E-2
8.093173792E0,2.785567427E-3,1.197597012E-4,1.626368798E-2,1.650094770E-2
8.103129792E0,1.195599791E-3,1.355716027E-3,1.433728822E-2,1.445078746E-2
8.113085792E0,-6.638193736E-4,4.766071215E-4,1.651628502E-2,1.653648939E-2
8.123041792E0,-8.699321188E-5,1.073937863E-3,1.629934087E-2,1.633491424E-2
8.132998083E0,-9.844475426E-5,2.547493204E-4,1.596271619E-2,1.596505236E-2
8.142954083E0,-1.995373052E-3,-3.176754341E-3,1.323758066E-2,1.375888162E-2
8.152910083E0,-5.854956107E-4,9.338343516E-4,1.560140401E-2,1.564028960E-2
8.162866083E0,2.189021325E-4,2.079614438E-3,1.207821630E-2,1.225789637E-2
8.172822083E0,1.627181773E-3,1.666824333E-3,1.363936253E-2,1.383684336E-2
8.182779083E0,-9.568177629E-4,4.126541317E-4,1.480527408E-2,1.484189760E-2
8.192735083E0,4.892815836E-3,4.832278937E-4,1.496852376E-2,1.575531210E-2
8.202691083E0,2.960796701E-4,-1.063322648E-3,1.729445904E-2,1.732964604E-2
8.212647083E0,-6.757078227E-4,1.130589284E-3,1.689019427E-2,1.694147206E-2
8.222603083E0,-3.837586846E-4,2.627562732E-3,1.523699053E-2,1.546664918E-2
8.232559083E0,-1.161934342E-3,-1.764791086E-4,1.540210657E-2,1.544688069E-2
8.242515083E0,1.696942723E-3,-1.090144739E-3,1.133860089E-2,1.151659239E-2
8.252471083E0,-4.929199349E-5,1.711767167E-3,1.212902553E-2,1.224931986E-2
8.262427083E0,1.491152914E-3,-7.019750774E-5,1.196249761E-2,1.205528157E-2
8.272383083E0,1.910334453E-3,-7.205419242E-4,1.205490716E-2,1.222658354E-2
8.282339083E0,6.614385056E-4,4.762411118E-4,1.277212240E-2,1.279810209E-2
8.292295083E0,3.682244569E-4,-8.568633348E-5,1.355802082E-2,1.356329089E-2
8.302251083E0,-6.055054255E-4,9.463718161E-4,1.548826881E-2,1.552896413E-2
8.312207083E0,1.815041527E-3,-2.686979249E-3,1.484458335E-2,1.519460062E-2
8.322163083E0,1.795160351E-4,-1.831021160E-3,1.231765375E-2,1.245429477E-2
8.332119083E0,1.843096688E-4,8.507827297E-4,1.382952929E-2,1.385690014E-2
8.342075083E0,1.824222272E-4,-1.518707722E-4,1.426402293E-2,1.426599778E-2
8.352031083E0,-3.400900168E-4,-1.798337325E-4,1.330714859E-2,1.331270840E-2
8.361987083E0,2.307880437E-3,5.980860442E-5,1.408324577E-2,1.427121931E-2
8.371943083E0,-3.126701340E-4,1.538661309E-3,1.419243775E-2,1.427902415E-2
8.381899083E0,-1.223920030E-3,-2.407059073E-4,1.363533176E-2,1.369226760E-2
8.391855083E0,-8.247121004E-4,1.414576545E-4,1.433068328E-2,1.435509120E-2
8.401811083E0,9.525359492E-4,-1.194224693E-3,1.410523802E-2,1.418771430E-2
8.411767083E0,-1.699173590E-3,-1.052580774E-4,1.253317297E-2,1.264826845E-2
8.421723083E0,4.632980563E-6,-1.995214261E-3,1.207909733E-2,1.224277312E-2
8.431679083E0,9.678982897E-4,-5.323719233E-5,1.488367096E-2,1.491520440E-2
8.441635083E0,-1.965604024E-4,1.041466370E-3,1.606172509E-2,1.609665497E-2
8.451591083E0,-2.183012199E-3,1.737350598E-3,1.362333633E-2,1.390608579E-2
8.461547083E0,1.408303273E-3,-1.275496557E-3,1.535813138E-2,1.547521919E-2
8.471503083E0,8.780679200E-4,-2.337831073E-3,1.042063162E-2,1.071569040E-2
8.481459083E0,-6.408888148E-4,-5.504377186E-4,1.286757924E-2,1.289528269E-2
8.491416083E0,-8.305058582E-4,-1.390133053E-3,1.094344817E-2,1.106260673E-2
8.501372083E0,-7.002335042E-4,-2.404706553E-3,1.391710527E-2,1.414067748E-2
8.511328083E0,-2.816381166E-3,-1.088572666E-3,1.484788023E-2,1.515178341E-2
8.521284083E0,6.473184330E-4,5.304440856E-5,1.589670219E-2,1.590996465E-2
8.531240083E0,2.193484688E-4,-6.268601865E-4,9.690204635E-3,9.712936390E-3
8.541196083E0,-1.161227003E-3,-2.883141860E-4,1.266575977E-2,1.272214777E-2
8.551152083E0,1.157586230E-4,9.220922366E-4,1.297787949E-2,1.301111103E-2
8.561108083E0,1.566275023E-5,1.324867830E-3,1.077005267E-2,1.085124669E-2
8.571064083E0,-4.326088820E-3,6.156675518E-4,1.372163370E-2,1.440060146E-2
8.581020083E0,8.921185508E-5,6.347363815E-4,1.307586208E-2,1.309156286E-2
8.590976083E0,8.072000346E-4,-5.905842409E-4,1.386548951E-2,1.390151650E-2
8.600932083E0,1.106344396E-3,5.110818893E-4,1.289124601E-2,1.294872296E-2
8.610888083E0,-7.291061338E-4,-1.445887610E-4,1.135992818E-2,1.138422021E-2
8.620844083E0,-9.319745004E-4,1.346555538E-3,1.298017055E-2,1.308306599E-2
8.630800083E0,2.591387602E-3,-7.413625717E-4,1.132022217E-2,1.163668072E-2
8.640756083E0,1.188382506E-3,-5.730958655E-4,1.258026436E-2,1.264925860E-2
8.650712083E0,-7.682418218E-4,-2.410943620E-3,1.216560975E-2,1.242597703E-2
8.660668083E0,-1.652895473E-3,-2.491432242E-3,1.568088122E-2,1.596337476E-2
8.670624083E0,8.520737756E-4,-7.225610316E-4,1.296818443E-2,1.301621802E-2
8.680580083E0,-9.961869800E-4,9.691407904E-4,1.165709645E-2,1.173965587E-2
8.690536083E0,1.634483575E-3,-3.411225975E-3,9.363316000E-3,1.009849918E-2
8.700492083E0,-1.933138468E-3,-1.022467390E-3,1.047790051E-2,1.070368455E-2
8.710448083E0,-8.162088925E-4,4.973979667E-4,1.279591769E-2,1.283156698E-2
8.720404083E0,-2.304056194E-3,-1.009414904E-3,9.748911485E-3,1.006821079E-2
8.730360083E0,1.047727419E-4,-1.445785165E-5,1.101524197E-2,1.101574972E-2
8.740316083E0,-2.506836550E-3,-1.794411801E-3,1.467899606E-2,1.499923559E-2
8.750272083E0,1.451952499E-3,-1.144866459E-3,1.438605040E-2,1.450439008E-2
8.760228083E0,1.682922128E-3,5.382401869E-4,1.303930767E-2,1.315847536E-2
8.770184083E0,6.292120088E-5,1.446250826E-4,1.064512692E-2,1.064629526E-2
8.780140083E0,5.172190722E-4,1.544269733E-3,8.709300309E-3,8.860259390E-3
8.790097083E0,-6.479140138E-4,-5.383221433E-4,9.101584554E-3,9.140482738E-3
8.800052083E0,-3.371647326E-4,-2.818304114E-3,1.125509851E-2,1.160748726E-2
8.810009083E0,-1.851171721E-3,-7.660714909E-4,1.023271121E-2,1.042698811E-2
8.819965083E0,-3.515298478E-3,6.525693461E-4,1.585750841E-2,1.625557575E-2
8.829921083E0,1.009944826E-3,-8.166972548E-4,1.288355701E-2,1.294886188E-2
8.839877083E0,3.666791599E-4,-1.149876043E-3,1.365188695E-2,1.370513356E-2
8.849833083E0,-2.347386908E-5,-5.748989061E-4,1.018152200E-2,1.019776691E-2
8.859789083E0,-6.976078730E-4,1.632026397E-3,8.859002963E-3,9.035048445E-3
8.869745083E0,-1.363398042E-3,2.567702904E-4,1.074052788E-2,1.082976105E-2
8.879701083E0,7.288751658E-5,-1.000486314E-3,1.233749092E-2,1.237820535E-2
8.889657083E0,-8.597513661E-4,-1.165838912E-4,1.129832491E-2,1.133158903E-2
8.899613083E0,-1.579439500E-3,2.271030098E-5,1.156076230E-2,1.166817766E-2
8.909569083E0,-5.107128527E-4,3.833025694E-4,1.247688942E-2,1.249321888E-2
8.919525083E0,8.127192268E-4,-7.330104709E-4,1.476651803E-2,1.480702102E-2
8.929481083E0,-9.444343159E-4,-1.995796338E-4,1.197792217E-2,1.201675529E-2
8.939437083E0,-2.369957045E-3,4.873368889E-4,9.783782065E-3,1.007852098E-2
8.949393083E0,-2.292192541E-3,2.222652547E-3,1.179952547E-2,1.222387550E-2
8.959349083E0,2.570217475E-6,2.556378022E-3,1.045556739E-2,1.076354796E-2
8.969305083E0,-1.636110246E-4,-8.343579248E-4,1.233309880E-2,1.236237225E-2
8.979261083E0,9.046855848E-4,-2.978430130E-3,1.069781184E-2,1.114148465E-2
8.989217083E0,9.638077463E-4,5.406709388E-4,1.079901308E-2,1.085541035E-2
8.999173083E0,-3.381836694E-3,-1.813713461E-4,1.032969728E-2,1.087071115E-2
9.009129083E0,3.476539860E-4,8.982736617E-4,9.097721428E-3,9.148567868E-3
9.019085083E0,5.496619269E-5,-1.039518043E-3,7.938586175E-3,8.006545417E-3
9.029041083E0,4.256782122E-4,5.884720013E-4,9.060043842E-3,9.089108628E-3
9.038997083E0,-1.144304289E-3,5.137231201E-4,1.368340477E-2,1.374077545E-2
9.048953083E0,-2.264962532E-3,-5.528731272E-4,1.334198564E-2,1.354416128E-2
9.058909083E0,3.512173425E-4,7.656719536E-4,1.251480728E-2,1.254312595E-2
9.068865083E0,-7.372165564E-4,1.246372238E-3,1.062715799E-2,1.072536334E-2
9.078821083E0,-1.300677191E-3,-1.051253639E-3,1.190016791E-2,1.201710829E-2
9.088777083E0,1.733195852E-3,3.940444440E-4,1.040107384E-2,1.055185178E-2
9.098733083E0,1.249358407E-3,2.303933725E-4,9.888891131E-3,9.970162753E-3
9.108690083E0,-2.431929111E-3,8.351979777E-4,9.608991444E-3,9.947087586E-3
9.118646083E0,6.639887579E-5,1.242454164E-3,7.660739124E-3,7.761122669E-3
9.128601583E0,-1.512855641E-3,1.893330365E-3,1.166400313E-2,1.191311887E-2
9.138557583E0,-6.996428128E-4,-8.683428168E-4,1.102868840E-2,1.108492161E-2
9.148513583E0,-5.963121075E-4,1.433161087E-3,8.815869689E-3,8.951485754E-3
9.158469583E0,-1.182602718E-4,-2.188310027E-4,9.790636599E-3,9.793795869E-3
9.168425583E0,1.113042235E-4,2.080742270E-4,1.071155816E-2,1.071415707E-2
9.178381583E0,-9.255472105E-4,-4.370417446E-4,1.078455523E-2,1.083301780E-2
9.188337583E0,1.028147759E-3,1.737162471E-3,7.554408163E-3,7.819456756E-3
9.198293583E0,1.537568634E-3,2.770395949E-4,8.895628154E-3,9.031781026E-3
9.208249583E0,1.081102761E-3,1.703162678E-3,1.251752675E-2,1.267903869E-2
9.218205583E0,-3.759546671E-4,-1.931488514E-3,1.176636294E-2,1.192976473E-2
9.228161583E0,9.196274914E-5,5.045048892E-4,1.113120094E-2,1.114300752E-2
9.238117583E0,1.697863452E-3,3.574304283E-4,1.089541614E-2,1.103270546E-2
9.248073583E0,-6.035540719E-5,2.583609894E-4,1.259797812E-2,1.260077163E-2
9.258029583E0,-8.034418570E-4,5.531962961E-4,7.509913296E-3,7.573000902E-3
9.267985583E0,2.138285898E-3,-2.296386287E-3,1.057068631E-2,1.102656182E-2
9.277941583E0,-7.915296592E-4,4.669567570E-4,1.106279716E-2,1.110090306E-2
9.287897583E0,-6.823402364E-4,-1.377549022E-3,9.847067297E-3,9.966341548E-3
9.297853583E0,-1.309955376E-3,2.450545318E-3,1.018076017E-2,1.055315276E-2
9.307809583E0,-3.428766504E-3,3.642244264E-4,1.209157705E-2,1.257359673E-2
9.317765583E0,-7.088187849E-4,-8.657900617E-4,1.060182601E-2,1.066070970E-2
9.327721583E0,3.218244528E-4,3.336975351E-4,9.827911854E-3,9.838840197E-3
9.337677583E0,1.584906131E-3,1.487650909E-3,1.219876111E-2,1.239091624E-2
9.347633583E0,-4.004804650E-4,8.700639009E-4,1.017209888E-2,1.021709310E-2
9.357589583E0,-2.565147821E-3,-5.468307063E-4,9.232096374E-3,9.597427292E-3
9.367545583E0,-7.219741819E-4,1.651342958E-3,1.028830931E-2,1.044497433E-2
9.377501583E0,-1.264960389E-3,2.202950418E-3,1.125416160E-2,1.153729902E-2
9.387457583E0,-2.162712160E-3,-8.154762909E-4,1.303901151E-2,1.324228630E-2
9.397413583E0,-6.108812522E-5,6.255516782E-4,1.019218192E-2,1.021154341E-2
9.407369583E0,5.209620576E-5,4.628319293E-4,1.097035781E-2,1.098024033E-2
9.417326583E0,-1.625338336E-3,-9.153969586E-5,1.052954793E-2,1.065464611E-2
9.427282583E0,-1.276464202E-3,1.475198194E-3,8.467730135E-3,8.689535327E-3
9.437238583E0,-2.084861510E-3,-2.143660560E-3,1.095031202E-2,1.135126695E-2
9.447194583E0,-1.917348593E-3,2.286834642E-4,1.208162308E-2,1.223495558E-2
9.457150583E0,-8.169172797E-4,-5.172379315E-4,1.162033156E-2,1.166048860E-2
9.467106583E0,-1.031834399E-3,7.275231183E-4,1.407310367E-2,1.412962204E-2
9.477062583E0,1.862831530E-3,4.852786660E-4,1.314027607E-2,1.328053056E-2
9.487018583E0,-1.318314346E-3,5.318839103E-4,1.170296967E-2,1.178899285E-2
9.496974583E0,-1.807957306E-3,-6.937505677E-4,9.137611836E-3,9.340554027E-3
9.506930583E0,7.561342209E-4,-2.103867009E-4,7.543712854E-3,7.584431762E-3
9.516886583E0,-3.610082204E-4,-2.127091400E-3,6.284166127E-3,6.644214677E-3
9.526842583E0,-6.952349795E-4,-1.328409649E-3,1.004162058E-2,1.015293887E-2
9.536798583E0,2.557260450E-5,-2.123592421E-3,9.627826512E-3,9.859276955E-3
9.546754583E0,2.168618375E-3,-3.134412691E-4,1.044302061E-2,1.067041848E-2
9.556710583E0,1.071042614E-3,5.675461143E-4,1.180420816E-2,1.186627874E-2
9.566666583E0,-8.714670548E-4,8.069649339E-4,1.189582050E-2,1.195496518E-2
9.576622583E0,1.293327427E-3,2.041189931E-3,1.126255840E-2,1.151887034E-2
9.586578583E0,2.246699296E-5,6.177304313E-4,1.021673530E-2,1.023541772E-2
9.596534583E0,-2.365683205E-3,1.851157285E-3,8.721247315E-3,9.224066081E-3
9.606490583E0,-3.169134725E-4,-1.065270044E-3,1.145844534E-2,1.151221977E-2
9.616446583E0,2.501199488E-4,-5.168374628E-5,8.900947869E-3,8.904611399E-3
9.626402583E0,-4.665367305E-4,2.792039886E-3,9.820804000E-3,1.022063278E-2
9.636358583E0,9.666322730E-4,-7.193721831E-4,1.080889627E-2,1.087584999E-2
9.646314583E0,2.779387869E-4,9.506968781E-4,1.164752617E-2,1.168956545E-2
9.656270583E0,1.292481786E-3,-2.261917107E-3,1.138706133E-2,1.168126465E-2
9.666226583E0,1.372025581E-4,7.732883096E-4,1.121715456E-2,1.124461453E-2
9.676182583E0,1.675191335E-3,-1.930454746E-4,1.059774682E-2,1.073106566E-2
9.686138583E0,-1.162140514E-3,-9.885309264E-4,9.998269379E-3,1.011400784E-2
9.696094583E0,9.313290357E-4,1.302057877E-3,9.308509529E-3,9.445161626E-3
9.706051583E0,6.532949628E-4,3.686202690E-4,9.102914482E-3,9.133768515E-3
9.716007583E0,-1.495576347E-3,-1.156780869E-3,9.356573224E-3,9.545698146E-3
9.725963583E0,1.664530602E-3,7.999036461E-5,9.356573224E-3,9.503816238E-3
9.735919583E0,-8.686337387E-4,8.110748604E-4,1.048577204E-2,1.055290398E-2
9.745875583E0,-8.193653775E-4,-9.279688820E-4,9.393077344E-3,9.474301444E-3
9.755831583E0,-1.859796466E-3,3.611529246E-4,8.813198656E-3,9.014529654E-3
9.765787583E0,-8.954657242E-4,4.690103233E-4,9.366337210E-3,9.420727269E-3
9.775743583E0,-5.125794560E-4,4.388550296E-4,9.230904281E-3,9.255534846E-3
9.785699583E0,1.268276479E-3,-4.833973944E-4,8.471637964E-3,8.579676455E-3
9.795655583E0,-1.832164591E-3,6.163064390E-4,9.987518191E-3,1.017286490E-2
9.805611583E0,-3.597028553E-4,2.778526396E-3,9.501226246E-3,9.905700140E-3
9.815567583E0,-1.135678613E-3,1.487229019E-5,7.889702916E-3,7.971035014E-3
9.825523583E0,1.605246682E-3,1.309434883E-3,5.036391318E-3,5.445794169E-3
9.835479583E0,6.212904118E-4,2.159392461E-4,7.262818515E-3,7.292541691E-3
9.845435583E0,3.097763751E-3,7.144836709E-4,7.772017270E-3,8.397075659E-3
9.855391583E0,-3.238115460E-4,-1.350212842E-4,6.342682987E-3,6.352378464E-3
9.865347583E0,-4.111633170E-4,1.102816314E-3,8.922223002E-3,8.999517897E-3
9.875303583E0,1.594971167E-3,-2.650842071E-4,8.785828948E-3,8.933364034E-3
9.885259583E0,1.832525129E-3,1.769037917E-3,1.190492511E-2,1.217435359E-2
9.895215583E0,1.840031357E-3,4.161987454E-4,1.126194745E-2,1.141886147E-2
9.905171583E0,-1.190379611E-3,-1.361461356E-3,9.792950004E-3,9.958536561E-3
9.915127583E0,4.409066169E-4,-4.530092701E-4,7.830962539E-3,7.856436236E-3
9.925083583E0,-2.975662705E-3,7.621916011E-4,1.039878279E-2,1.084297875E-2
9.935039583E0,3.580530174E-4,-1.689288765E-4,7.255431265E-3,7.266224726E-3
9.944995583E0,-1.746110618E-3,-2.314638346E-3,9.793426841E-3,1.021360183E-2
9.954951583E0,9.895081166E-4,-2.590669319E-4,1.057483628E-2,1.062418959E-2
9.964907583E0,1.037407201E-4,1.838705502E-3,1.356210187E-2,1.368657032E-2
9.974863583E0,-3.587396350E-4,1.566588879E-3,1.189100742E-2,1.199912298E-2
9.984819583E0,-4.404988140E-4,-3.548813984E-4,1.087580994E-2,1.089051063E-2
9.994776583E0,8.056385559E-4,-1.088192686E-3,5.749803036E-3,5.907067950E-3
1.000473258E1,9.643880185E-5,-1.152641140E-3,6.238758564E-3,6.345076080E-3
1.001468858E1,2.087240573E-3,4.554670304E-4,5.270346999E-3,5.686877959E-3
1.002464458E1,1.641161158E-3,-3.485744819E-3,7.396083325E-3,8.339416973E-3
1.003460058E1,-5.539770937E-4,-1.423433423E-3,9.971171618E-3,1.008748317E-2
1.004455658E1,6.140854675E-4,-3.712177277E-4,1.315950975E-2,1.317905916E-2
1.005451258E1,-9.163795039E-5,1.147687435E-3,1.201085374E-2,1.206591030E-2
1.006446858E1,-6.168133114E-4,-1.434513368E-3,1.093573496E-2,1.104665498E-2
1.007442458E1,8.599594003E-4,2.465770580E-3,6.800144911E-3,7.284334254E-3
1.008438058E1,2.658081939E-4,7.642768323E-4,7.144223899E-3,7.189903211E-3
1.009433658E1,-2.332001226E-3,-1.588912681E-3,2.064783126E-3,3.496598716E-3
1.010429258E1,-2.882916015E-4,-1.790355891E-4,6.012387574E-3,6.021957333E-3
1.011424858E1,1.128453529E-3,-9.731268510E-4,6.832636893E-3,6.993233168E-3
1.012420458E1,2.342322376E-3,-2.114025876E-3,9.932290763E-3,1.042141926E-2
1.013416083E1,5.668646190E-4,-1.244985498E-3,1.120745018E-2,1.129062726E-2
1.014411683E1,1.809495618E-3,-1.390660182E-3,1.090038568E-2,1.113672385E-2
1.015407283E1,1.905943151E-3,2.804109827E-4,1.148765534E-2,1.164806743E-2
1.016402883E1,-1.375337597E-3,3.089066595E-4,9.500138462E-3,9.604145335E-3
1.017398483E1,1.852207235E-3,-1.211890019E-3,7.190078497E-3,7.523069709E-3
1.018394083E1,1.802139799E-3,1.406263560E-3,4.658475518E-3,5.189092330E-3
1.019389683E1,-5.806295667E-5,7.512168959E-4,3.747571260E-3,3.822563077E-3
1.020385283E1,9.736456559E-4,6.841057912E-4,9.165238589E-3,9.242163437E-3
1.021380883E1,2.595328726E-3,-1.068910584E-3,8.903093636E-3,9.335061720E-3
1.022376483E1,3.114379011E-3,1.508165151E-4,1.072176546E-2,1.116594630E-2
1.023372083E1,-2.137552015E-3,-7.677888498E-4,1.057052240E-2,1.081177932E-2
1.024367683E1,7.407924859E-4,-1.904158853E-3,1.234951243E-2,1.251738997E-2
1.025363283E1,-4.026102833E-4,-2.251379192E-5,5.725234747E-3,5.739417638E-3
1.026358883E1,-3.477490973E-4,-1.270204782E-3,6.625648588E-3,6.755262307E-3
1.027354483E1,3.124637296E-4,-2.110712230E-4,5.649376661E-3,5.661946776E-3
1.028350183E1,5.295113660E-4,1.409985125E-4,3.590755165E-3,3.632325085E-3
1.029345783E1,5.694880383E-4,-3.380123526E-4,7.793836296E-3,7.821921323E-3
1.030341383E1,1.276024617E-3,-2.195024863E-4,1.096779108E-2,1.104395135E-2
1.031336983E1,2.206450328E-3,-2.761045471E-4,9.601648897E-3,9.855775886E-3
1.032332583E1,-1.608527731E-3,-1.125919633E-3,1.105120778E-2,1.122427057E-2
1.033328183E1,1.853789203E-3,-6.971145049E-4,1.131713018E-2,1.148912262E-2
1.034323783E1,-1.813984709E-4,-9.810067713E-4,9.060367942E-3,9.115127368E-3
1.035319383E1,-3.019686323E-3,-7.790708914E-4,6.167527288E-3,6.911139544E-3
1.036314983E1,-1.617532340E-3,1.153585501E-3,4.628218710E-3,5.036623751E-3
1.037310583E1,-1.769573661E-3,3.664791584E-4,9.031176567E-3,9.210203478E-3
1.038306183E1,-1.223891973E-3,7.600942627E-4,9.904425591E-3,1.000866131E-2
1.039301783E1,4.999068333E-4,-9.163282812E-6,8.486066014E-3,8.500782740E-3
1.040297383E1,-6.574857980E-5,1.693662256E-3,8.243452758E-3,8.415897343E-3
1.041292983E1,-2.135031158E-3,-5.858372897E-4,6.341662258E-3,6.717011506E-3
1.042288583E1,3.875149414E-4,5.742358044E-4,5.224466324E-3,5.270195723E-3
1.043284183E1,-1.429892145E-3,3.885263577E-4,4.115663469E-3,4.374269089E-3
1.044279783E1,-1.218969701E-3,-2.270906232E-3,5.443517119E-3,6.022854877E-3
1.045275383E1,1.064655255E-3,1.092739403E-4,6.944600493E-3,7.026585772E-3
1.046270983E1,-4.892991856E-4,6.869137287E-4,9.559027851E-3,9.596159524E-3
1.047266583E1,2.548337448E-3,-9.041372687E-5,1.176027954E-2,1.203355198E-2
1.048262183E1,2.059647581E-3,-1.293097623E-3,1.094561815E-2,1.121252899E-2
1.049257783E1,1.659854082E-3,-6.677713245E-4,9.906873107E-3,1.006713310E-2
1.050253383E1,9.551330004E-5,-2.188435756E-3,6.878059357E-3,7.218453738E-3
1.051248983E1,4.942447413E-5,-1.397160813E-4,5.176182836E-3,5.178303981E-3
1.052244583E1,2.430363093E-4,9.197834879E-5,5.449157208E-3,5.455349755E-3
1.053240183E1,6.242243107E-4,1.182466745E-3,7.945280522E-3,8.057007271E-3
1.054235783E1,3.097050358E-4,-5.635023117E-4,7.050190121E-3,7.079451448E-3
1.055231383E1,-2.258670283E-4,7.957313210E-5,7.836692035E-3,7.840350110E-3
1.056227083E1,7.983847754E-4,1.638321206E-3,1.130759344E-2,1.145352277E-2
1.057222683E1,-1.263397397E-3,1.322475262E-3,1.079637557E-2,1.095019814E-2
1.058218283E1,4.620645195E-4,5.948999897E-4,7.909242064E-3,7.945031129E-3
1.059213883E1,4.119414371E-4,-8.227862418E-4,7.661789656E-3,7.716844801E-3
1.060209483E1,7.123460528E-4,1.110934652E-3,8.440498263E-3,8.543045337E-3
1.061205083E1,2.245880663E-3,3.562581260E-3,8.825302124E-3,9.778646265E-3
1.062200683E1,5.893943598E-4,-1.306742430E-3,8.355520666E-3,8.477599134E-3
1.063196283E1,-3.063429613E-4,1.396393403E-3,1.043908671E-2,1.053652181E-2
1.064191883E1,-9.348490275E-4,2.110120840E-3,7.444895804E-3,7.794422762E-3
1.065187483E1,-9.268956492E-4,1.714626327E-3,1.043084636E-2,1.061139175E-2
1.066183083E1,-1.366317156E-3,7.066195831E-4,5.840890110E-3,6.040043963E-3
1.067178683E1,1.652153907E-3,-2.593435347E-4,7.866207510E-3,8.042020405E-3
1.068174283E1,-9.308460867E-4,7.606474683E-4,9.016957134E-3,9.096734302E-3
1.069169883E1,-3.942921758E-4,7.919836789E-4,7.847759873E-3,7.897470449E-3
1.070165483E1,-2.337037586E-4,-1.851469278E-3,7.517796010E-3,7.745954607E-3
1.071161083E1,-6.943653570E-4,-7.799612358E-4,8.619416505E-3,8.682443416E-3
1.072156683E1,-9.846499888E-4,1.697311178E-3,5.229476839E-3,5.585501665E-3
1.073152283E1,9.432475781E-4,-3.140028566E-4,9.690552950E-3,9.741413155E-3
1.074147883E1,-2.779851668E-3,-9.363833815E-4,7.973879576E-3,8.496301820E-3
1.075143483E1,-5.099173868E-4,4.826094955E-4,9.820204228E-3,9.845269867E-3
1.076139083E1,-6.539943861E-4,-9.742751718E-5,8.591152728E-3,8.616559985E-3
1.077134683E1,-2.522848081E-4,5.655055866E-4,8.123338223E-3,8.146905429E-3
1.078130283E1,2.457263181E-4,2.790310420E-3,1.010686159E-2,1.048784367E-2
1.079125883E1,-2.009783406E-3,-6.572045386E-4,6.749484688E-3,7.072954877E-3
1.080121483E1,-1.855586539E-3,-1.015399583E-3,6.101273000E-3,6.457535903E-3
1.081117083E1,1.503019128E-3,1.826766878E-3,8.543677628E-3,8.865132325E-3
1.082112783E1,-2.003564965E-3,6.200885400E-4,7.759377360E-3,8.037830515E-3
1.083108383E1,2.822595416E-4,2.649252303E-3,9.973358363E-3,1.032308506E-2
1.084103983E1,6.766737206E-4,-3.209710121E-4,8.963752538E-3,8.994985785E-3
1.085099583E1,1.770118251E-5,1.341979019E-3,8.258398622E-3,8.366741828E-3
1.086095183E1,-5.463563139E-4,-4.519261420E-4,9.597968310E-3,9.624122721E-3
1.087090783E1,9.488081560E-5,1.343854703E-3,5.917515606E-3,6.068932260E-3
1.088086383E1,-1.764271874E-3,-3.658952191E-4,6.456006318E-3,6.702727217E-3
1.089081983E1,1.911268570E-3,1.033635810E-3,7.022622973E-3,7.351094065E-3
1.090077583E1,-1.087390119E-4,4.432136193E-4,6.589327008E-3,6.605111119E-3
1.091073183E1,-2.342764987E-3,2.688216045E-4,9.793605655E-3,1.007350607E-2
1.092068783E1,-2.275919775E-3,-3.637652844E-5,8.321411908E-3,8.627110189E-3
1.093064383E1,1.286080573E-3,2.175914124E-4,8.081369102E-3,8.185956012E-3
1.094059983E1,-3.421761794E-4,-1.541426405E-3,5.627531558E-3,5.844843141E-3
1.095055583E1,-8.211986860E-4,-4.579601809E-4,6.375383586E-3,6.444347188E-3
1.096051183E1,1.820124337E-3,-2.077694982E-3,7.293108851E-3,7.798660510E-3
1.097046783E1,1.488640904E-3,1.626306213E-3,5.553849041E-3,5.975463398E-3
1.098042383E1,-7.593332557E-4,-8.605532348E-4,7.574390620E-3,7.660844087E-3
1.099037983E1,-1.100048888E-3,1.020682976E-3,9.265325963E-3,9.386062353E-3
1.100033583E1,3.889383283E-3,-3.902170807E-3,7.302578539E-3,9.147780749E-3
1.101029183E1,6.927414797E-4,1.668371260E-5,7.808800787E-3,7.839485878E-3
1.102024783E1,-1.068939571E-3,-3.068855032E-3,6.460707635E-3,7.231960049E-3
1.103020383E1,1.147142961E-3,1.052001491E-3,8.180022240E-3,8.326788574E-3
1.104015983E1,3.524557687E-4,-2.896990627E-4,8.536618203E-3,8.548801142E-3
1.105011583E1,7.745922776E-4,2.504838631E-4,6.717555225E-3,6.766704040E-3
1.106007183E1,1.863292535E-3,-7.098522037E-4,8.179098368E-3,8.418634054E-3
1.107002783E1,1.784570632E-3,-6.941258907E-4,8.199609816E-3,8.420219963E-3
1.107998483E1,-2.703244099E-4,2.158759162E-4,9.193502367E-3,9.200008884E-3
1.108994083E1,-3.273185575E-3,-6.552273408E-4,8.104279637E-3,8.764839709E-3
1.109989683E1,6.669611903E-4,-2.035554498E-4,7.278166711E-3,7.311496613E-3
1.110985283E1,-3.068954684E-4,-6.604297087E-4,6.989568472E-3,7.027404902E-3
1.111980883E1,-3.979755566E-4,9.489180520E-4,9.317439049E-3,9.374086646E-3
1.112976483E1,-1.856060117E-3,-9.600678459E-4,8.482839912E-3,8.736433048E-3
1.113972083E1,1.966641285E-3,-5.691153929E-4,1.113801077E-2,1.132461276E-2
1.114967683E1,-1.919928822E-3,7.071718574E-5,8.102364838E-3,8.327030898E-3
1.115963283E1,-3.016618546E-3,3.301091492E-4,9.653389454E-3,1.011913472E-2
1.116958883E1,2.150622895E-3,-2.036665566E-3,9.031090885E-3,9.504408874E-3
1.117954483E1,-1.938660862E-3,8.185096085E-4,7.827341557E-3,8.105284681E-3
1.118950083E1,-1.262756647E-3,2.049897797E-3,8.663423359E-3,8.991748419E-3
1.119945683E1,1.307726488E-3,1.636043191E-3,7.741704583E-3,8.020023425E-3
1.120941283E1,-1.008610474E-3,1.025588252E-3,8.105915040E-3,8.232556406E-3
1.121936883E1,1.425785013E-3,1.073258929E-3,9.840961546E-3,1.000146348E-2
1.122932483E1,-2.257697517E-3,6.870087236E-5,8.530579507E-3,8.824551242E-3