"Time (s)","Gyroscope x (rad/s)","Gyroscope y (rad/s)","Gyroscope z (rad/s)","Absolute (rad/s)"
3.851583333E-3,2.066713758E-3,4.309853539E-4,3.486651462E-3,4.076002030E-3
1.380858333E-2,1.217540819E-3,-9.655291215E-4,3.160244785E-3,3.521618837E-3
2.376458333E-2,1.296903007E-3,-4.520714283E-4,1.220931299E-3,1.837661346E-3
3.372158333E-2,-4.529186990E-4,1.239396632E-3,2.925232984E-4,1.351595072E-3
4.367858333E-2,1.794789103E-3,-1.787366346E-4,-1.300579403E-3,2.223672973E-3
5.363558333E-2,-1.409343677E-3,-2.742921934E-4,4.106254783E-3,4.350036109E-3
6.359258333E-2,-1.064036041E-6,7.696663961E-4,3.689203877E-3,3.768635395E-3
7.354958333E-2,-2.958534518E-3,2.565570176E-3,4.378148355E-3,5.873947551E-3
8.350658333E-2,2.180840820E-4,8.038887754E-4,4.050046206E-3,4.134812220E-3
9.346358333E-2,4.528244026E-4,2.670902759E-4,9.896405973E-4,1.120613969E-3
1.034195833E-1,6.669425638E-4,1.565692946E-4,-1.042617951E-3,1.247549004E-3
1.133765833E-1,-1.067063771E-3,-2.296841703E-3,-1.281597652E-4,2.535849331E-3
1.233335833E-1,7.691857172E-4,3.191819414E-4,2.848455217E-3,2.967696228E-3
1.332905833E-1,2.909527393E-4,2.308579162E-3,4.271011800E-3,4.863715970E-3
1.432475833E-1,-7.969485596E-4,4.291860387E-4,3.752494231E-3,3.860121839E-3
1.532045833E-1,-2.649090486E-3,-2.702828497E-4,2.245102078E-3,3.482989601E-3
1.631615833E-1,-2.558543114E-3,4.668803886E-4,2.079187892E-3,3.329736094E-3
1.731175833E-1,7.280963473E-4,-6.922250614E-4,1.768651884E-3,2.034067185E-3
1.830745833E-1,-1.343043987E-3,-6.370972842E-4,-2.440208104E-3,2.857319669E-3
1.930315833E-1,2.331497381E-4,1.654041000E-3,3.367396072E-3,3.758931594E-3
2.029885833E-1,-3.902544267E-5,-2.747897059E-3,5.831619725E-3,6.446723962E-3
2.129455833E-1,6.396919489E-4,1.081258059E-3,4.192922264E-3,4.377090574E-3
2.229025833E-1,1.300155884E-3,-5.565863103E-4,1.646141522E-3,2.170247809E-3
2.328595833E-1,-9.696511552E-5,4.466455430E-4,2.102026716E-3,2.151141741E-3
2.428165833E-1,-5.070918705E-4,-1.468433067E-3,2.237581648E-3,2.724006143E-3
2.527725833E-1,-2.368451096E-4,-1.208988950E-3,2.125001047E-3,2.456293821E-3
2.627295833E-1,-8.493720088E-4,-3.404232673E-3,6.994106807E-4,3.577626057E-3
2.726865833E-1,1.780934399E-4,1.053601503E-3,2.293638419E-3,2.530330137E-3
2.826435833E-1,1.522607636E-4,-9.422004223E-5,3.343988676E-3,3.348779034E-3
2.926005833E-1,-2.142135054E-5,-1.330059022E-4,4.037562758E-3,4.039809707E-3
3.025575833E-1,2.496885136E-4,8.318573236E-4,3.598407842E-3,3.701738775E-3
3.125145833E-1,-2.380432095E-3,-1.428520307E-3,1.161417458E-3,3.009321807E-3
3.224715833E-1,1.831357018E-3,-4.500802606E-5,-1.385896001E-3,2.297085539E-3
3.324275833E-1,7.484321250E-4,-6.377510726E-4,4.982603714E-4,1.102334103E-3
3.423845833E-1,1.034721965E-3,5.119349808E-4,4.141464829E-3,4.299355522E-3
3.523415833E-1,8.173035458E-4,3.471998498E-4,2.566425130E-3,2.715708152E-3
3.622985833E-1,-2.485548612E-3,5.719698966E-4,3.375226632E-3,4.230514895E-3
3.722555833E-1,3.291058820E-4,-1.492165029E-4,2.404111437E-3,2.431116626E-3
3.822125833E-1,-1.629915321E-3,1.804212108E-3,9.907716885E-4,2.625534960E-3
3.921695833E-1,2.602767199E-5,7.453495637E-4,1.301255077E-3,1.499829386E-3
4.021265833E-1,-4.695865791E-4,-6.749136373E-4,8.879322559E-4,1.210142002E-3
4.120825833E-1,-2.865155693E-3,-6.133913994E-4,5.490615498E-3,6.223521889E-3
4.220395833E-1,-2.501900773E-3,2.664959058E-3,5.148132797E-3,6.313856631E-3
4.319965833E-1,-1.159186475E-3,7.089674473E-4,4.157257266E-3,4.373686786E-3
4.419535833E-1,1.103435177E-3,1.383013092E-3,1.554550603E-3,2.355190434E-3
4.519105833E-1,-4.623958375E-4,1.248248853E-3,2.434530295E-3,2.774684283E-3
4.618675833E-1,-1.301824115E-3,4.500998184E-4,4.800362512E-4,1.458687998E-3
4.718245833E-1,-1.272188034E-3,-5.559772253E-4,1.406028867E-3,1.975978300E-3
4.817815833E-1,3.989455290E-4,2.112984657E-5,3.016974777E-3,3.043310830E-3
4.917375833E-1,1.722718007E-3,-1.728023402E-3,2.449675929E-3,3.457561911E-3
5.016945833E-1,-1.665355405E-3,4.670768976E-5,2.740227152E-3,3.206935465E-3
5.116515833E-1,-9.066259954E-4,-1.045222394E-3,3.921559080E-3,4.158495662E-3
5.216085833E-1,3.397308523E-3,-3.428664058E-5,1.725249924E-3,3.810428857E-3
5.315655833E-1,-6.258760113E-4,-3.450887278E-3,-6.190673448E-4,3.561402556E-3
5.415225833E-1,9.954565903E-4,1.201654784E-3,1.869922504E-3,2.435470840E-3
5.514795833E-1,-2.782415599E-3,1.491360366E-3,3.465930931E-3,4.688141372E-3
5.614365833E-1,-2.858049702E-3,-9.813848883E-4,5.811909214E-3,6.550561282E-3
5.713925833E-1,1.691097859E-4,3.200694919E-4,4.137614276E-3,4.153419615E-3
5.813495833E-1,8.290411206E-4,-2.414198592E-3,2.665419597E-3,3.690545441E-3
5.913065833E-1,1.254373929E-3,-1.045064069E-3,1.845915336E-3,2.464349060E-3
6.012635833E-1,-8.599506691E-5,-3.640940413E-4,7.814499550E-4,8.663853961E-4
6.112205833E-1,1.870348118E-3,-2.201380208E-3,3.131572157E-4,2.905571260E-3
6.211775833E-1,1.180323074E-3,5.344850942E-4,3.694572486E-3,3.915188722E-3
6.311345833E-1,-3.081890754E-4,-5.649020895E-4,4.740714096E-3,4.784189065E-3
6.410915833E-1,-1.682113856E-3,1.835404895E-3,2.793676220E-3,3.742037543E-3
6.510475833E-1,1.197996316E-3,-2.246684395E-3,2.628092654E-3,3.659188017E-3
6.610045833E-1,2.267521806E-3,1.171216369E-3,2.714911476E-3,3.726143750E-3
6.709615833E-1,1.289090258E-3,-1.401174814E-3,2.064588480E-3,2.808481822E-3
6.809185833E-1,-3.636958776E-3,3.450596705E-4,-8.555673994E-4,3.752136843E-3
6.908755833E-1,1.491983188E-3,1.023048535E-3,2.792533487E-3,3.327294008E-3
7.008325833E-1,-3.474622499E-4,6.177155301E-4,3.482026048E-3,3.553421997E-3
7.107895833E-1,1.143835718E-3,-2.224772237E-3,6.641983055E-3,7.097458035E-3
7.207465833E-1,1.271401066E-3,2.050958574E-4,9.505413473E-4,1.600641695E-3
7.307025833E-1,7.775035920E-4,-1.883926801E-3,1.212102361E-3,2.371262145E-3
7.406595833E-1,-6.398307160E-4,2.208286896E-3,2.210521139E-3,3.189407166E-3
7.506165833E-1,4.308024654E-4,-2.572993748E-3,8.113039657E-4,2.732050826E-3
7.605735833E-1,-1.703987364E-3,-1.059252769E-3,-4.017660394E-4,2.046217318E-3
7.705305833E-1,3.042501630E-4,8.808700368E-4,1.962437294E-3,2.172477921E-3
7.804875833E-1,9.404793382E-4,1.202313229E-3,-1.159586478E-3,1.916950518E-3
7.904445833E-1,-3.714933060E-3,-9.509753436E-4,1.735531725E-3,4.209174754E-3
8.004015833E-1,6.814131048E-4,-2.565649338E-3,1.136586070E-3,2.887682157E-3
8.103575833E-1,1.370410202E-3,3.137784079E-4,4.686865956E-3,4.893178261E-3
8.203145833E-1,8.250540122E-5,6.312271580E-4,2.679109573E-3,2.753703501E-3
8.302715833E-1,3.256541444E-3,1.332147047E-3,-3.756145015E-4,3.538469187E-3
8.402285833E-1,-1.145663904E-3,8.751479909E-4,3.756280057E-3,4.023440027E-3
8.501855833E-1,-1.097908942E-3,-9.142309427E-4,2.134888433E-3,2.568846216E-3
8.601425833E-1,-3.690551966E-5,-1.395996660E-3,1.752724871E-3,2.241029488E-3
8.700995833E-1,1.496569021E-4,-1.555939205E-3,5.162553862E-4,1.646166341E-3
8.800565833E-1,-1.199500635E-3,-1.958627254E-4,1.825464889E-3,2.193054045E-3
8.900125833E-1,8.082757704E-4,-4.852134734E-4,3.629310057E-3,3.749751101E-3
8.999695833E-1,-1.333704684E-3,1.155559905E-3,4.630787298E-4,1.824425605E-3
9.099265833E-1,-1.063958742E-3,-1.024847850E-3,9.500347078E-4,1.756384715E-3
9.198835833E-1,1.105452189E-3,2.443790436E-5,2.493869513E-3,2.728004198E-3
9.298405833E-1,-6.378630642E-4,1.251098700E-3,1.648681238E-3,2.165702443E-3
9.397975833E-1,-1.886086538E-3,4.108715802E-4,2.669737674E-3,3.294485868E-3
9.497545833E-1,-2.234599320E-3,-3.167903051E-4,3.192849457E-3,3.909997171E-3
9.597115833E-1,-2.381605795E-3,-5.681933835E-4,2.332115546E-3,3.381368481E-3
9.696675833E-1,6.907959469E-4,-1.883590594E-4,8.562682196E-4,1.116187009E-3
9.796245833E-1,1.469785348E-4,-1.150558703E-3,2.426467836E-3,2.689448675E-3
9.895815833E-1,-3.711041063E-3,6.205067039E-4,6.492849439E-3,7.504262001E-3
9.995385833E-1,-1.097681234E-3,3.515277058E-4,1.715671271E-3,2.066882611E-3
1.009495583E0,-1.352862688E-3,-1.041282900E-3,1.097331755E-3,2.029444384E-3
1.019452583E0,-7.826799992E-4,1.118540764E-3,5.363449454E-3,5.534465780E-3
1.029409583E0,1.055182656E-4,1.265163533E-3,1.773894764E-3,2.181393020E-3
1.039366583E0,-2.954720054E-3,9.527746588E-4,1.525618136E-4,3.108283329E-3
1.049322583E0,-3.684445051E-3,-7.876278833E-4,3.060996532E-4,3.780104498E-3
1.059279583E0,-1.102776499E-3,-9.812396020E-4,1.463242806E-3,2.078467386E-3
1.069236583E0,7.150458405E-4,-2.309419215E-4,4.082326777E-3,4.150905521E-3
1.079193583E0,1.012520865E-3,1.088771969E-4,2.052998170E-3,2.291692438E-3
1.089150583E0,-1.251502545E-3,-1.329690218E-3,2.348465845E-3,2.974832184E-3
1.099107583E0,-3.992909333E-4,-2.584039234E-3,4.067270085E-3,4.835222638E-3
1.109064583E0,-2.578075975E-3,1.050322317E-3,2.870919183E-3,3.998978577E-3
1.119021583E0,-8.125440218E-6,1.392550766E-4,6.474461406E-4,6.623024265E-4
1.128977583E0,3.318592208E-4,8.179899305E-5,5.020720884E-3,5.032341385E-3
1.138934583E0,-9.163642535E-4,1.214174554E-3,2.708031796E-3,3.106023100E-3
1.148891583E0,-5.654329434E-4,2.707866952E-4,1.583489589E-3,1.703079307E-3
1.158848583E0,-1.259985380E-3,3.165928647E-4,5.121007562E-4,1.396438822E-3
1.168805583E0,-1.875835238E-3,-1.566484571E-4,2.349263057E-3,3.010370989E-3
1.178762583E0,3.322921693E-3,8.580163121E-4,7.391152903E-4,3.510597098E-3
1.188719583E0,6.744601997E-4,-3.024665639E-4,-8.638966829E-4,1.136969684E-3
1.198676583E0,1.062216470E-3,-1.213267446E-3,9.031109512E-4,1.848223773E-3
1.208632583E0,-2.707273234E-5,3.251144662E-4,2.322117798E-3,2.344922902E-3
1.218589583E0,-1.728033763E-3,-2.962015569E-4,3.574335948E-3,3.981169868E-3
1.228546583E0,6.648174021E-4,-2.100942656E-4,1.400366426E-3,1.564336250E-3
1.238503583E0,4.083872773E-5,6.112251431E-4,3.573238850E-3,3.625368927E-3
1.248460583E0,-9.580620099E-5,-1.098240726E-3,3.757048398E-4,1.164674052E-3
1.258417583E0,-9.536104044E-4,2.346718684E-4,1.219128259E-3,1.565476732E-3
1.268374583E0,7.001645863E-4,-3.888513893E-4,4.056981765E-3,4.135279542E-3
1.278331583E0,9.539638413E-4,-3.598257899E-5,3.217553720E-3,3.356187375E-3
1.288287583E0,-1.907148631E-3,5.178414285E-4,2.128373832E-3,2.904367541E-3
1.298244583E0,-8.157852571E-4,2.765590325E-4,2.347019501E-3,2.500098203E-3
1.308201583E0,-1.095227897E-3,-1.030921005E-3,4.101159051E-3,4.368275155E-3
1.318158583E0,-1.323460834E-3,-4.700589925E-4,2.443873324E-3,2.818691338E-3
1.328115583E0,-3.677261993E-4,-4.594800994E-4,-2.603791654E-4,6.435385219E-4
1.338072583E0,-2.525152871E-3,-6.027240306E-5,4.940936342E-4,2.573744025E-3
1.348029583E0,-2.881229389E-3,-2.197222784E-4,2.561748028E-3,3.861646492E-3
1.357986583E0,-7.440426853E-4,8.990708739E-4,-8.817194030E-4,1.462654115E-3
1.367942583E0,9.932934772E-4,1.241646707E-3,3.685565665E-3,4.013939804E-3
1.377899583E0,4.731779918E-4,-1.479908824E-4,4.928995855E-3,4.953867061E-3
1.387856583E0,-6.088239606E-4,-1.421063207E-3,2.158054151E-3,2.654672291E-3
1.397813583E0,1.216810197E-4,-3.826962784E-4,-2.499753609E-4,4.730226137E-4
1.407770583E0,-1.774227247E-3,4.013692960E-4,-5.258740857E-4,1.893547778E-3
1.417727583E0,1.757390681E-3,1.241064630E-3,7.734820247E-4,2.286249738E-3
1.427684583E0,-1.469824929E-3,5.644792691E-4,1.778523438E-3,2.375324775E-3
1.437641583E0,4.662930733E-4,-1.761791296E-3,2.080259845E-3,2.765649801E-3
1.447597583E0,-2.104606247E-3,1.280391589E-4,1.520487480E-3,2.599546817E-3
1.457554583E0,-2.563723829E-4,-1.248548739E-3,3.588964231E-3,3.808577819E-3
1.467511583E0,-2.799052745E-4,-6.138123572E-4,2.625345252E-3,2.710636506E-3
1.477468583E0,-6.359699182E-4,1.536157914E-3,1.776329242E-3,2.433019615E-3
1.487425583E0,5.286842352E-4,-1.209886745E-3,4.124762490E-4,1.383282188E-3
1.497382583E0,1.863993239E-3,1.234096475E-3,2.736084163E-3,3.533216870E-3
1.507339583E0,-1.586000202E-3,-2.427785657E-3,1.387254335E-3,3.214656191E-3
1.517296583E0,-5.479000974E-4,2.129148692E-3,1.663424075E-3,2.756891061E-3
1.527252583E0,-5.621790187E-4,-2.027426846E-3,-9.411014616E-6,2.103947108E-3
1.537209583E0,1.386273652E-5,-3.607479855E-3,4.226346500E-3,5.556627378E-3
1.547166583E0,-1.107321586E-4,-2.046776004E-3,2.596239559E-3,3.307871441E-3
1.557123583E0,5.968698533E-4,2.102429047E-3,3.688135184E-3,4.287050578E-3
1.567080583E0,-9.933663532E-4,1.482969150E-3,1.219945960E-3,2.161999620E-3
1.577037583E0,2.330193529E-4,1.405471005E-3,1.759768464E-3,2.264162496E-3
1.586994583E0,-2.589710988E-3,-1.526401378E-3,2.294218168E-3,3.781526302E-3
1.596950583E0,1.207690337E-3,1.562865451E-3,1.524298452E-3,2.494904835E-3
1.606907583E0,2.496283269E-4,-2.277615480E-3,-2.041310072E-4,2.300329551E-3
1.616864583E0,-4.411956761E-4,-6.376411766E-4,1.025983132E-3,1.286033158E-3
1.626821583E0,-2.056223108E-3,-7.620267570E-5,2.686192282E-3,3.383709398E-3
1.636778583E0,-7.233107463E-4,-2.000397071E-4,2.353030257E-3,2.469806816E-3
1.646735583E0,8.123362204E-4,-8.658003062E-4,5.800276995E-6,1.187237949E-3
1.656692583E0,-6.579949986E-4,1.350482926E-3,7.056789473E-4,1.659742247E-3
1.666649583E0,2.439821605E-3,2.036113292E-4,2.287247218E-3,3.350475619E-3
1.676605583E0,9.357684758E-5,1.520012505E-3,5.719056353E-4,1.626736210E-3
1.686562583E0,4.674252123E-4,-5.007209256E-4,-4.069674760E-4,7.967623868E-4
1.696519583E0,1.483785454E-4,2.577472478E-4,-1.086340286E-3,1.126314811E-3
1.706476583E0,2.689615358E-4,-2.421709709E-3,2.586930990E-3,3.553762818E-3
1.716433583E0,3.437963314E-4,1.249457709E-3,8.420282975E-4,1.545429435E-3
1.726390583E0,3.152684076E-4,-1.000042073E-3,1.135944389E-3,1.545913313E-3
1.736347583E0,-7.119128713E-4,8.663013577E-4,3.584721126E-3,3.755998340E-3
1.746304583E0,2.223118208E-3,8.387416601E-4,1.241414808E-3,2.680830630E-3
1.756260583E0,-1.911971951E-3,-1.242570579E-4,1.439265907E-4,1.921403503E-3
1.766217583E0,7.908329135E-4,-1.601344906E-3,-9.372178465E-4,2.016953023E-3
1.776174583E0,-1.050210325E-3,-8.444739506E-4,1.948583871E-3,2.369189119E-3
1.786131583E0,-7.976067718E-5,1.136605628E-3,1.711796038E-3,2.056326772E-3
1.796088583E0,-1.831055270E-3,-1.078899950E-4,-8.690264076E-5,1.836288572E-3
1.806045792E0,-1.991706435E-3,-2.923477441E-4,2.327624708E-3,3.077368764E-3
1.816002792E0,-8.697166340E-4,1.090100035E-3,2.803531475E-3,3.131216033E-3
1.825959792E0,-1.041476964E-3,-1.580528915E-4,6.650323048E-4,1.245761996E-3
1.835915792E0,1.380371395E-4,-4.155803472E-4,-4.244670272E-4,6.098635372E-4
1.845872792E0,-1.500007696E-3,-1.440148801E-3,3.816708922E-3,4.346414460E-3
1.855829792E0,-5.337852053E-5,1.996394247E-3,2.935469151E-3,3.550411017E-3
1.865786792E0,1.827763626E-3,2.525892109E-3,-9.510796517E-4,3.259663069E-3
1.875743792E0,2.359064296E-3,3.996249288E-4,8.974205703E-4,2.555435015E-3
1.885700792E0,1.100571826E-3,-1.357821748E-4,1.553123817E-3,1.908373321E-3
1.895657792E0,-1.298137242E-3,1.097610220E-4,1.908389851E-3,2.310662157E-3
1.905614792E0,-5.958357360E-5,3.251992166E-5,-8.219387382E-5,1.066000959E-4
1.915570792E0,2.337794052E-3,-1.519571058E-3,1.954591833E-3,3.405114751E-3
1.925527792E0,1.194321550E-3,3.134432249E-3,3.714547493E-3,5.004890864E-3
1.935484792E0,-6.230194122E-4,-1.483755186E-3,4.159556702E-4,1.662137708E-3
1.945441792E0,-2.289294731E-3,7.117558271E-4,-1.163408160E-5,2.397415707E-3
1.955398792E0,1.869763830E-3,-2.682879567E-4,3.088551573E-3,3.620379266E-3
1.965355792E0,-1.315588364E-3,-4.194779322E-4,1.661460847E-4,1.390805163E-3
1.975312792E0,3.116030712E-4,1.547266729E-3,-2.398477867E-3,2.871206521E-3
1.985269792E0,2.269430086E-3,6.302492693E-4,1.840244979E-3,2.988984550E-3
1.995225792E0,1.954910578E-3,3.783144057E-4,3.275688738E-3,3.833397170E-3
2.005182792E0,1.348265330E-3,1.364788041E-3,2.169482410E-3,2.896052438E-3
2.015139792E0,1.464911737E-3,-1.511426643E-3,1.457463950E-4,2.109885993E-3
2.025096792E0,-2.145449631E-3,1.941914670E-3,1.973665319E-3,3.502761981E-3
2.035053792E0,-2.880482003E-3,-1.672261395E-3,9.992141277E-4,3.477364464E-3
2.045010792E0,-1.468016766E-3,9.557176381E-4,-1.072104089E-3,2.053746968E-3
2.054967792E0,-9.382562712E-5,-2.401729114E-3,2.445931546E-3,3.429240020E-3
2.064924792E0,1.126827672E-3,-1.778472215E-3,3.261404112E-3,3.881940340E-3
2.074880792E0,1.309369691E-5,-9.728660807E-4,2.144208178E-3,2.354627055E-3
2.084837792E0,-1.234887866E-3,-5.772151053E-5,1.618917100E-3,2.036951740E-3
2.094794792E0,-2.688174834E-3,2.988763154E-4,6.549526006E-5,2.705531486E-3
2.104751792E0,-2.078352729E-3,-1.370087266E-3,1.714760438E-4,2.495214062E-3
2.114708792E0,-2.170691732E-4,2.383904532E-3,1.607186161E-3,2.883256353E-3
2.124665792E0,2.321087755E-3,-1.182328910E-3,-2.032883465E-3,3.304234435E-3
2.134622792E0,1.101313392E-4,1.979060471E-6,1.717646606E-3,1.721174800E-3
2.144579792E0,1.699771965E-4,-2.059051767E-4,3.449547105E-3,3.459864797E-3
2.154535792E0,-8.355570026E-5,-4.691444337E-5,9.352564812E-4,9.401527565E-4
2.164492792E0,1.277337782E-3,-1.453340054E-3,1.818862744E-3,2.655569770E-3
2.174449792E0,3.180671483E-4,1.303830184E-3,3.344055265E-3,3.603310350E-3
2.184406792E0,-8.271450642E-4,6.126360968E-4,1.281516626E-3,1.643708249E-3
2.194363792E0,2.036019461E-3,1.623039134E-3,1.437578350E-3,2.974266765E-3
2.204320792E0,-1.752698328E-3,-8.626589552E-4,1.476862468E-3,2.448929287E-3
2.214277792E0,4.433442373E-4,2.533404157E-3,2.643060870E-3,3.687880353E-3
2.224234792E0,-1.167908078E-3,-5.610901862E-4,1.362966374E-3,1.880560770E-3
2.234190792E0,-1.555397874E-3,-1.877145842E-4,1.344057731E-3,2.064216679E-3
2.244147792E0,1.349348109E-3,-1.821205951E-3,1.588152722E-3,2.767627234E-3
2.254104792E0,2.106218599E-3,5.455454811E-4,-9.120237082E-4,2.359144740E-3
2.264061792E0,-2.247882308E-3,1.825748011E-3,1.669331454E-3,3.342603503E-3
2.274018792E0,-6.550457329E-4,2.623098902E-3,4.482694902E-3,5.234910347E-3
2.283975792E0,1.158943400E-3,1.578863710E-3,2.469644882E-3,3.152000359E-3
2.293932792E0,2.011687495E-3,3.218511119E-4,1.585741527E-3,2.581675988E-3
2.303888792E0,1.040246338E-3,1.161731780E-4,1.222258434E-4,1.053825321E-3
2.313845792E0,1.135054743E-3,2.417410724E-3,1.738909632E-4,2.676277628E-3
2.323802792E0,-1.861790661E-4,1.295693219E-4,-2.849213779E-4,3.641854547E-4
2.333759792E0,-1.102306414E-3,1.341840252E-3,8.091051131E-4,1.915793772E-3
2.343716792E0,-1.707873773E-3,-1.497085206E-3,2.232003026E-3,3.184326372E-3
2.353673792E0,-2.685253974E-3,-3.516294062E-3,2.806446515E-3,5.239375428E-3
2.363630792E0,-1.794692129E-3,-1.344172284E-3,1.949111931E-3,2.970985743E-3
2.373587792E0,-1.400544308E-3,-3.617322072E-4,1.271337271E-3,1.925791527E-3
2.383543792E0,2.267042641E-3,-2.048640512E-3,2.272571437E-3,3.808016704E-3
2.393500792E0,2.096866490E-3,-1.659286208E-3,1.774027944E-3,3.208933615E-3
2.403457792E0,-3.550599795E-4,-6.383061409E-4,-2.596713603E-4,7.751977386E-4
2.413414792E0,-6.267023273E-4,3.440771252E-5,6.585866213E-4,9.097670226E-4
2.423371792E0,2.425939310E-4,-1.047252677E-3,3.286481835E-3,3.457824871E-3
2.433328792E0,-1.230933005E-3,2.046541311E-3,-3.404766321E-4,2.412353982E-3
2.443285792E0,-3.248765366E-3,-1.287037507E-3,9.161336347E-4,3.612511977E-3
2.453242792E0,-1.459163614E-4,7.489491254E-4,7.579419762E-4,1.075496358E-3
2.463198792E0,4.265813623E-4,-1.241888851E-3,2.186590806E-3,2.550576195E-3
2.473155792E0,1.562153222E-3,-2.109538764E-5,5.783084780E-4,1.665895675E-3
2.483112792E0,3.134727012E-4,-5.521252751E-4,-1.115677878E-4,6.446354203E-4
2.493069792E0,-1.001329860E-3,1.755769365E-3,2.585948445E-3,3.282151262E-3
2.503026792E0,-3.494438715E-4,-3.478028812E-3,1.232599840E-3,3.706494003E-3
2.512983792E0,2.257990418E-4,-5.978196859E-4,-1.644948497E-4,6.598728209E-4
2.522940792E0,-7.252022624E-4,2.548797056E-4,-9.962143376E-4,1.258302425E-3
2.532897792E0,-6.098875310E-4,-8.657788858E-4,4.649420269E-3,4.768505501E-3
2.542853792E0,9.516159771E-4,1.261511818E-3,-9.032906964E-4,1.820142609E-3
2.552810792E0,-2.388169523E-4,-7.278695703E-4,-1.016790047E-4,7.727653383E-4
2.562767792E0,-2.890555188E-3,-2.549625933E-4,1.025979407E-3,3.077815616E-3
2.572724792E0,-2.157653216E-3,-2.459082752E-4,3.347191028E-3,3.989940609E-3
2.582681792E0,1.268908847E-3,-1.723621972E-3,-4.415530711E-4,2.185399615E-3
2.592638792E0,9.791570483E-4,-1.266091131E-3,5.454141647E-4,1.690920426E-3
2.602595792E0,-2.221041359E-4,-1.406850293E-3,3.692858852E-3,3.958000063E-3
2.612552792E0,1.365938690E-3,-1.301655546E-3,-2.675025724E-3,3.273508559E-3
2.622508792E0,4.055479076E-4,1.778643578E-3,2.777632326E-3,3.323143605E-3
2.632465792E0,1.723546302E-3,-8.096825331E-4,1.958976500E-3,2.731993153E-3
2.642422792E0,-5.565413740E-4,-2.512801439E-5,3.265037201E-3,3.312225482E-3
2.652379792E0,-1.032980857E-3,-1.519960351E-3,1.379785128E-3,2.298072218E-3
2.662336792E0,1.081291703E-3,-1.754964702E-3,2.033356577E-3,2.895450193E-3
2.672293792E0,4.320130683E-4,9.321644902E-4,2.915395424E-3,3.091131897E-3
2.682250792E0,1.937360154E-3,-1.864940859E-3,-1.684782095E-3,3.173304190E-3
2.692207792E0,7.490577409E-4,-1.452949829E-3,3.946144134E-4,1.681627557E-3
2.702163792E0,1.500480110E-3,-3.621966578E-3,9.188652039E-4,4.026710285E-3
2.712120792E0,2.261574846E-4,1.156277023E-3,4.091355950E-4,1.247203150E-3
2.722077792E0,2.492393367E-3,-7.848283276E-4,8.327588439E-4,2.742529397E-3
2.732034792E0,2.099310746E-3,-7.669441402E-5,2.671937458E-3,3.398858253E-3
2.741991792E0,-2.784936223E-4,7.539661601E-4,2.519553527E-3,2.644650004E-3
2.751948792E0,2.990057692E-5,-4.112428986E-3,1.876903698E-4,4.116818417E-3
2.761905792E0,-5.036012735E-4,-5.019549280E-5,-4.997663200E-5,5.085582503E-4
2.771861792E0,-2.284967341E-4,1.294966787E-3,-1.672374085E-3,2.127436207E-3
2.781818792E0,-1.777606318E-3,-9.335456416E-4,4.145797342E-3,4.606411541E-3
2.791775792E0,-1.719866414E-4,1.108832657E-3,3.577163443E-4,1.177730975E-3
2.801732792E0,2.328003291E-3,-1.037102193E-3,1.389633864E-3,2.902802535E-3
2.811688792E0,2.160224132E-3,-9.132651612E-4,1.329978928E-3,2.696194634E-3
2.821645792E0,-2.155237831E-3,1.186413690E-3,3.364289179E-3,4.167861470E-3
2.831602792E0,-2.051907126E-3,-2.412315458E-3,-2.871705219E-4,3.179945853E-3
2.841559792E0,2.208098304E-4,-2.579949796E-4,-2.275984734E-4,4.088024655E-4
2.851515792E0,-1.177083468E-3,-1.682519913E-3,1.387609169E-3,2.478277215E-3
2.861472792E0,1.499958220E-3,-1.443090849E-3,2.141874284E-3,2.986638797E-3
2.871429792E0,-3.224429674E-4,-1.589298248E-3,9.280061349E-4,1.868430832E-3
2.881386792E0,-1.107528806E-3,1.904757693E-3,2.279932611E-3,3.170617390E-3
2.891343792E0,2.777669579E-5,3.419830464E-3,2.979544923E-3,4.535824059E-3
2.901300792E0,7.908373373E-4,3.882721066E-4,-8.618552238E-4,1.232466369E-3
2.911257792E0,4.914682359E-5,-8.682068437E-4,-1.773722004E-3,1.975421039E-3
2.921214792E0,-1.789523289E-3,1.898873597E-4,1.180992462E-3,2.152485541E-3
2.931170792E0,-1.661158865E-3,-8.575338870E-4,3.442015499E-3,3.916922751E-3
2.941127792E0,1.104020048E-4,-3.622705117E-4,2.965629101E-4,4.810177605E-4
2.951084792E0,1.475804718E-3,-1.324736513E-3,2.989817411E-3,3.587747837E-3
2.961041792E0,-6.727187429E-4,-2.981424332E-4,2.203353681E-3,2.322973710E-3
2.970998792E0,2.330794232E-3,-9.807106107E-4,-3.128294833E-3,4.022514589E-3
2.980955792E0,1.373027684E-3,-1.041569747E-3,-2.522220835E-3,3.054778306E-3
2.990912792E0,-2.370577771E-3,1.924659126E-3,2.299964428E-3,3.822798463E-3
3.000869792E0,-7.229973562E-5,-1.231961884E-3,1.555747353E-3,1.985776211E-3
3.010825792E0,4.914915189E-4,-2.224255353E-3,8.438844234E-4,2.429200838E-3
3.020782792E0,-1.668392215E-4,-9.031686932E-5,5.250237882E-4,5.582494433E-4
3.030739792E0,-1.567928120E-3,-7.949890569E-4,1.359924674E-3,2.222566379E-3
3.040696792E0,-5.426104181E-4,-3.421679139E-4,-2.376517281E-3,2.461572533E-3
3.050653792E0,-2.201227006E-3,-1.337924041E-3,3.301342018E-3,4.187397782E-3
3.060610792E0,1.294504153E-3,8.603902534E-4,2.176284790E-3,2.674364948E-3
3.070567792E0,3.354998771E-4,1.695659012E-4,-1.494539902E-4,4.045358545E-4
3.080524792E0,4.315255210E-4,-1.285340637E-3,2.158633433E-3,2.549120069E-3
3.090480792E0,1.467495225E-3,1.557849348E-3,-7.370207459E-4,2.263545097E-3
3.100437792E0,-2.718473785E-3,3.524962813E-5,7.258076221E-4,2.813918790E-3
3.110394792E0,1.028593979E-3,4.807971418E-4,8.701505139E-4,1.430501095E-3
3.120351792E0,-2.196274931E-3,-3.348119557E-3,1.661753282E-3,4.335314534E-3
3.130308792E0,2.906238660E-5,2.516959794E-3,2.758176997E-3,3.734095818E-3
3.140265792E0,-3.269524314E-5,-1.635971479E-3,2.114812844E-3,2.673930632E-3
3.150222792E0,-1.722204732E-3,-1.278575510E-3,1.696394756E-4,2.151632409E-3
3.160178792E0,-3.190354910E-4,4.215817899E-5,6.255079061E-4,7.034352117E-4
3.170135792E0,-2.901721746E-5,-2.673007548E-4,8.843671530E-4,9.243359529E-4
3.180092792E0,-1.742517110E-3,-1.313355751E-3,1.540902071E-3,2.671263446E-3
3.190049792E0,-9.126760997E-4,2.484312281E-3,-7.861685008E-4,2.760950214E-3
3.200006792E0,-1.233852701E-3,1.903462224E-3,-1.033654436E-3,2.492790087E-3
3.209963792E0,-1.928138547E-3,-2.336556092E-3,8.830223233E-4,3.155462098E-3
3.219920792E0,-1.693652943E-3,7.716109976E-4,2.210205421E-3,2.889437977E-3
3.229877792E0,1.523711951E-3,-2.245217562E-3,1.094607636E-3,2.925895741E-3
3.239833792E0,-2.258433029E-3,-1.392086037E-3,1.318258233E-3,2.962469924E-3
3.249790792E0,-7.345720660E-4,1.566420309E-3,2.429328859E-3,2.982433136E-3
3.259747792E0,2.228091937E-3,1.186402515E-4,9.670639411E-4,2.431806294E-3
3.269704792E0,2.186546801E-3,-3.830986097E-4,1.322329044E-3,2.583854787E-3
3.279661792E0,2.281697700E-3,7.806252688E-4,9.479392320E-4,2.591159777E-3
3.289618792E0,6.403916050E-4,1.983574592E-3,-6.496915594E-4,2.183293084E-3
3.299575792E0,-2.950702095E-3,-2.789447084E-3,2.605458722E-4,4.068850211E-3
3.309532792E0,-3.264234401E-4,1.674809493E-3,2.315174788E-4,1.721958026E-3
3.319488792E0,-1.852334244E-3,-1.026723534E-3,-9.570447728E-4,2.324056381E-3
3.329445792E0,-1.230752328E-3,1.535890624E-4,3.191418946E-4,1.280699982E-3
3.339402792E0,1.788997557E-3,-2.149496228E-3,-5.769087002E-4,2.855463174E-3
3.349359792E0,-9.505962953E-4,9.102094918E-4,2.192512155E-3,2.557190682E-3
3.359316792E0,-4.896610044E-4,-1.239549369E-3,9.138761088E-4,1.615988886E-3
3.369273792E0,8.160867728E-4,-1.152463257E-3,5.538174883E-4,1.516866174E-3
3.379230792E0,-1.307463972E-3,1.048706472E-4,1.635517925E-3,2.096515865E-3
3.389187792E0,6.342466222E-4,3.099339083E-4,9.601404890E-4,1.191720422E-3
3.399143792E0,-5.936096422E-4,3.685513511E-4,9.832540527E-4,1.206230093E-3
3.409100792E0,9.707311401E-4,-2.259455621E-3,-9.371517226E-4,2.631674752E-3
3.419057792E0,-2.882105531E-3,9.779287502E-4,7.759453729E-4,3.140854685E-3
3.429014792E0,8.127642795E-4,1.639191993E-3,3.105678596E-3,3.604549306E-3
3.438971792E0,-2.388500609E-3,-5.885744467E-4,2.559471875E-3,3.549964974E-3
3.448928792E0,-9.266913403E-4,-1.192047261E-3,2.987142652E-4,1.539143828E-3
3.458885792E0,1.619217801E-3,-2.516367473E-3,1.554404385E-3,3.371964492E-3
3.468842792E0,-1.416785875E-3,7.244329900E-4,9.522633627E-4,1.854424678E-3
3.478798792E0,-1.314551104E-3,-2.566212788E-4,-2.686782740E-3,3.002116017E-3
3.488755792E0,1.270313165E-3,-1.681677997E-3,-1.275041141E-3,2.463222754E-3
3.498712792E0,1.627929742E-3,-1.097043045E-3,2.943197265E-3,3.537805652E-3
3.508669792E0,1.766946749E-3,-1.235260628E-3,6.659282371E-4,2.256419741E-3
3.518626792E0,-1.771310344E-3,-1.624803990E-4,1.426732168E-3,2.280242288E-3
3.528583792E0,-4.381318577E-4,9.150346741E-4,2.050444484E-3,2.287699841E-3
3.538540792E0,-2.436421812E-3,-8.061854169E-4,1.323929988E-3,2.887711340E-3
3.548497792E0,-1.873695990E-3,-1.345209777E-3,2.245772630E-4,2.317490228E-3
3.558453792E0,-1.656332985E-3,-1.116559841E-3,1.482488587E-4,2.003028347E-3
3.568410792E0,4.387758672E-4,-1.176074147E-4,3.660160117E-3,3.688241837E-3
3.578367792E0,1.165904338E-3,-4.126066342E-4,5.087659694E-3,5.235824512E-3
3.588324792E0,-1.314297551E-3,3.727590665E-4,1.390659250E-3,1.949425691E-3
3.598281792E0,-4.299237626E-4,2.159886062E-4,-8.436050266E-4,9.711616552E-4
3.608238792E0,2.577584004E-3,-2.058558166E-4,2.538831905E-4,2.598224892E-3
3.618195792E0,4.491058644E-5,1.415196806E-3,-1.203707419E-3,1.858416130E-3
3.628151792E0,1.428955351E-3,-1.522802748E-3,-1.884145197E-3,2.812622393E-3
3.638108792E0,-1.138029853E-3,1.538372599E-3,3.905288875E-3,4.348906000E-3
3.648065792E0,-3.582562786E-4,-2.756621689E-5,1.941473223E-3,1.974443145E-3
3.658022792E0,4.943442764E-4,-1.587161794E-3,1.765771769E-3,2.425161596E-3
3.667979792E0,1.890906016E-3,-5.980636925E-4,2.163914964E-3,2.935257010E-3
3.677936792E0,3.029493382E-4,-7.408484817E-5,-2.089818474E-3,2.112961931E-3
3.687893792E0,7.575508207E-4,-2.756863832E-4,-9.718239307E-4,1.262667011E-3
3.697850792E0,-9.489695076E-4,-8.567115292E-4,1.847604290E-4,1.291756241E-3
3.707806792E0,1.251866692E-3,1.552650705E-3,7.187239826E-4,2.120013818E-3
3.717763792E0,-4.961830564E-5,1.593128778E-3,3.818461671E-3,4.137773655E-3
3.727720792E0,1.879309188E-3,-7.659001276E-4,2.710053697E-3,3.385675275E-3
3.737677792E0,9.324359708E-4,-7.911184803E-4,-7.197586820E-4,1.418928416E-3
3.747634792E0,1.124183647E-3,1.033679582E-3,1.470691524E-3,2.120192423E-3
3.757591792E0,-1.827679342E-3,-4.852535203E-4,-1.719140913E-3,2.555646344E-3
3.767548792E0,2.204612829E-3,1.555029303E-4,-9.683957323E-4,2.412942018E-3
3.777505792E0,1.400665496E-3,4.025958478E-4,3.488074057E-3,3.780292036E-3
3.787461792E0,-6.044283509E-4,-2.844994888E-4,4.343481734E-3,4.394554263E-3
3.797418792E0,-3.773194039E-4,5.153929815E-4,5.183462054E-5,6.408484109E-4
3.807375958E0,-2.313781297E-4,-9.946189821E-4,-2.290148754E-3,2.507505548E-3
3.817332958E0,5.659414455E-6,-1.875249669E-3,2.192945220E-3,2.885411944E-3
3.827289958E0,2.894390142E-3,1.405498013E-3,3.018341959E-4,3.231721343E-3
3.837246958E0,-1.575536560E-3,2.670785412E-3,1.229941845E-4,3.103310771E-3
3.847203958E0,-1.984331990E-3,-8.997144178E-4,1.839809120E-4,2.186528860E-3
3.857160958E0,-2.002580324E-3,-8.878502995E-4,4.962542094E-3,5.424521191E-3
3.867116958E0,1.171641168E-3,2.135636285E-3,3.143336624E-3,3.976713530E-3
3.877073958E0,-1.535029383E-3,-6.182119250E-5,-1.532237511E-3,2.169767006E-3
3.887030958E0,1.611380139E-4,-1.917835325E-4,-1.890698913E-3,1.907220167E-3
3.896987958E0,-1.912484178E-3,9.848726913E-4,1.794062555E-4,2.158646927E-3
3.906944958E0,-8.344366215E-4,-1.109170727E-3,-4.304572940E-4,1.453216316E-3
3.916901958E0,-1.891988097E-3,-9.840475395E-4,4.859901965E-4,2.187271128E-3
3.926858958E0,2.175191417E-3,-3.098065034E-3,3.509477712E-3,5.161966531E-3
3.936815958E0,2.739618067E-3,-1.680514775E-3,1.517136581E-3,3.554059716E-3
3.946771958E0,-2.689768327E-3,4.713200033E-4,-5.209799856E-4,2.780002940E-3
3.956728958E0,-5.860831589E-4,-2.035333775E-3,8.873986080E-4,2.296421855E-3
3.966685958E0,-5.638040602E-5,-1.028925180E-3,1.234408468E-3,1.607989441E-3
3.976642958E0,-1.654987340E-3,1.647574827E-3,-9.115468711E-4,2.506871278E-3
3.986599958E0,-4.568313016E-4,-1.867530867E-3,7.811579853E-4,2.075228705E-3
3.996556958E0,-8.697260637E-4,-5.284501240E-4,1.425273716E-3,1.751310403E-3
4.006513958E0,-2.908908296E-3,1.229587942E-4,-8.393917233E-5,2.912715593E-3
4.016470958E0,2.116195625E-3,-1.649932936E-3,4.676338285E-4,2.723828925E-3
4.026426958E0,4.312136443E-4,-9.913332760E-4,5.499254912E-4,1.212891140E-3
4.036383958E0,-3.049663035E-3,1.130277291E-3,2.412362956E-3,4.049378522E-3
4.046340958E0,-1.838353928E-4,7.832888514E-5,-2.959499136E-3,2.966237684E-3
4.056297958E0,-1.886675367E-3,-9.176153690E-4,1.740001142E-3,2.725649625E-3
4.066254958E0,7.586424472E-4,2.773450688E-4,3.511269577E-3,3.602981084E-3
4.076211958E0,-1.957615605E-3,-9.770449251E-4,2.065059729E-3,3.008545716E-3
4.086168958E0,1.092638122E-4,-1.157341525E-3,1.529101282E-4,1.172501383E-3
4.096125958E0,-2.959256759E-3,-2.106633037E-4,5.640611053E-4,3.019891475E-3
4.106081958E0,-5.549548659E-4,2.381390892E-3,1.029581763E-3,2.653118182E-3
4.116038958E0,2.027165145E-3,3.137076274E-4,-1.003993675E-3,2.283815732E-3
4.125995958E0,7.336677518E-4,2.606157213E-3,-1.279364340E-3,2.994511130E-3
4.135952958E0,1.943318639E-3,-8.307117969E-4,3.267722204E-3,3.891603503E-3
4.145909958E0,-1.560602337E-3,2.217693254E-4,1.531341113E-3,2.197650312E-3
4.155866958E0,1.015865710E-3,7.413867861E-4,2.566115931E-3,2.857724353E-3
4.165823958E0,9.189266711E-4,-9.060446173E-4,7.043005899E-4,1.470164071E-3
4.175780958E0,-4.887508694E-4,-2.251620404E-3,1.121256500E-3,2.562398876E-3
4.185736958E0,-9.902240708E-4,3.297813237E-4,2.580402419E-3,2.783482724E-3
4.195693958E0,-8.152918890E-4,-1.216161065E-3,2.213253640E-3,2.653721966E-3
4.205650958E0,-1.090215519E-4,-2.419771627E-4,-1.489697024E-4,3.043527859E-4
4.215607958E0,5.886026192E-4,-2.882446162E-3,4.362034611E-3,5.261396666E-3
4.225564958E0,3.947244259E-4,1.397253945E-3,8.290847763E-4,1.671977131E-3
4.235521958E0,2.283916809E-3,1.673418097E-3,-1.297388226E-4,2.834331716E-3
4.245478958E0,-1.592673361E-4,-1.319708303E-3,1.667361706E-3,2.132390946E-3
4.255435958E0,-1.477298676E-3,4.696389660E-4,2.609658986E-3,3.035340535E-3
4.265391958E0,2.492285566E-4,2.239309251E-3,1.156371087E-3,2.532551063E-3
4.275348958E0,1.389470533E-3,2.528009936E-4,5.982350558E-4,1.533760701E-3
4.285305958E0,6.110285176E-4,-1.061469316E-3,3.547952510E-3,3.753403785E-3
4.295262958E0,1.357723959E-4,1.705432311E-3,-2.900928259E-3,3.367835844E-3
4.305219958E0,-2.135104965E-3,-9.856922552E-4,-2.625351772E-4,2.366260162E-3
4.315176958E0,-9.963514749E-4,-1.214195043E-3,1.059291884E-3,1.894488100E-3
4.325133958E0,-9.782419074E-4,1.874805428E-3,1.868400723E-4,2.122913525E-3
4.335089958E0,4.055192694E-4,-2.980232239E-8,1.560216770E-3,1.612055287E-3
4.345046958E0,1.953348517E-3,-2.445077524E-3,-1.018615440E-4,3.131189918E-3
4.355003958E0,-1.791136339E-3,-3.544604406E-4,7.033189759E-4,1.956647432E-3
4.364960958E0,-2.164093312E-4,-2.151029184E-3,1.358190551E-3,2.553123797E-3
4.374917958E0,1.808858942E-3,2.341258340E-3,2.157053910E-3,3.661467309E-3
4.384874958E0,3.360949224E-3,-1.159999520E-3,-8.019842207E-4,3.644826095E-3
4.394831958E0,-1.239430392E-3,1.782953739E-3,1.583702862E-3,2.687606089E-3
4.404788958E0,-1.234370517E-3,7.914593443E-4,-1.617417205E-3,2.183143807E-3
4.414744958E0,5.358961644E-4,-1.272503287E-3,1.737265848E-3,2.219130897E-3
4.424701958E0,8.914282080E-4,-3.776811063E-4,7.537603378E-4,1.226964513E-3
4.434658958E0,-4.797391593E-4,1.434259117E-3,2.393517643E-3,2.831285147E-3
4.444615958E0,-5.825373810E-4,6.968295202E-4,-1.303482801E-3,1.588706578E-3
4.454572958E0,-1.073778374E-3,1.583538949E-3,-1.509381458E-3,2.436971068E-3
4.464529958E0,-1.447419869E-3,-9.427350014E-4,6.467141211E-4,1.844454584E-3
4.474486958E0,-1.592751592E-3,1.623198390E-3,2.634823322E-4,2.289334748E-3
4.484443958E0,-7.748948410E-4,-1.177914441E-3,1.905853860E-3,2.370701031E-3
4.494399958E0,1.170198899E-3,1.265865751E-3,1.675727777E-3,2.404130850E-3
4.504356958E0,-1.689237310E-3,1.364136115E-3,2.767685801E-4,2.188833222E-3
4.514313958E0,3.333616769E-4,-1.153505407E-3,-6.876979023E-5,1.202677852E-3
4.524270958E0,-5.409540609E-4,-2.324230969E-3,7.797135040E-4,2.510504738E-3
4.534227958E0,5.368520506E-4,-7.852520794E-4,-7.013706490E-4,1.181842519E-3
4.544184958E0,2.204523422E-3,1.350869425E-3,1.550331712E-3,3.014680769E-3
4.554141958E0,-3.834790550E-3,-5.051121116E-4,-3.722570837E-4,3.885785911E-3
4.564098958E0,-6.882654270E-4,1.714632846E-3,8.309595287E-4,2.025874832E-3
4.574054958E0,3.054461908E-3,-4.704436287E-4,3.210351802E-3,4.456165779E-3
4.584011958E0,-1.014581881E-3,-7.231775671E-4,1.964522526E-4,1.261330914E-3
4.593968958E0,3.390713129E-3,-2.682571299E-3,2.081721090E-3,4.798613028E-3
4.603925958E0,6.481898017E-4,-2.016780898E-3,-1.316322014E-4,2.122470788E-3
4.613882958E0,1.381114125E-4,-1.229466870E-3,-4.083989188E-4,1.302863471E-3
4.623839958E0,2.057185164E-3,2.818271518E-3,-6.984174252E-4,3.558433932E-3
4.633796958E0,1.119048451E-3,-1.234071329E-3,-2.125275321E-3,2.700369729E-3
4.643753958E0,-3.579407930E-4,1.086873002E-3,2.600237727E-3,2.840889081E-3
4.653709958E0,-4.761153832E-5,-1.784546301E-3,1.838666387E-3,2.562726369E-3
4.663666958E0,-1.804765081E-3,1.388077624E-3,-7.951995358E-4,2.411696247E-3
4.673623958E0,-1.299528405E-3,-2.397076227E-3,9.607020766E-4,2.890968176E-3
4.683580958E0,-1.495270757E-3,6.397264078E-4,-1.374911517E-5,1.626429695E-3
4.693537958E0,-1.046177698E-3,-3.474166617E-3,-1.197008416E-3,3.820621756E-3
4.703494958E0,2.708346816E-3,-1.470404677E-3,-6.776917726E-4,3.155391977E-3
4.713451958E0,1.540547237E-4,-3.157062456E-4,1.269263215E-3,1.316978512E-3
4.723407958E0,1.491760602E-3,7.666023448E-4,2.469017170E-3,2.984807303E-3
4.733364958E0,-7.672205102E-4,-2.102809958E-3,-1.842696220E-4,2.245972468E-3
4.743321958E0,-2.122179139E-4,1.656711102E-4,1.089787111E-3,1.122550358E-3
4.753278958E0,-1.875277259E-3,-6.791064516E-4,1.847906038E-3,2.718934920E-3
4.763235958E0,-1.304828213E-3,1.142761670E-3,7.568094879E-4,1.892416841E-3
4.773192958E0,-2.229371807E-3,-2.057423815E-3,5.961870775E-4,3.091687313E-3
4.783149958E0,-2.381171798E-3,1.281114295E-3,1.748753712E-4,2.709578263E-3
4.793106958E0,-6.514291745E-4,1.513155177E-3,7.557114586E-4,1.812484033E-3
4.803062958E0,3.600392956E-4,-6.144437939E-4,1.000721939E-3,1.228256435E-3
4.813020167E0,-1.278729644E-3,1.494130120E-4,-7.208064198E-4,1.475478107E-3
4.822977167E0,1.457951730E-4,-6.636502221E-4,1.812065020E-4,7.032237526E-4
4.832934167E0,3.551632399E-4,1.456039026E-4,9.308522567E-4,1.006889938E-3
4.842891167E0,-1.003581565E-3,-2.964809537E-4,1.329686493E-4,1.054873251E-3
4.852848167E0,9.619797347E-4,-3.968756646E-4,-6.632143632E-4,1.234005103E-3
4.862805167E0,-1.283331309E-3,1.031911001E-3,4.267628305E-3,4.574323000E-3
4.872762167E0,1.379956026E-3,-6.433390081E-4,-5.310699344E-4,1.612513252E-3
4.882718167E0,-1.537585631E-4,5.817143247E-4,-1.783288084E-3,1.882059946E-3
4.892675167E0,-1.012273133E-4,5.284370854E-4,1.807097346E-3,1.885495568E-3
4.902632167E0,3.123615170E-4,1.570798457E-3,1.587120816E-3,2.254757192E-3
4.912589167E0,-9.164842777E-5,-9.937416762E-4,-7.182462141E-4,1.229552592E-3
4.922546167E0,-6.186880637E-4,-7.252944633E-4,2.983585000E-5,9.537909397E-4
4.932503167E0,-5.290741101E-4,-6.922427565E-4,8.761584759E-4,1.235626611E-3
4.942460167E0,1.922365627E-3,-1.346048899E-3,2.902291715E-3,3.732376514E-3
4.952417167E0,-1.406613272E-3,-1.116665080E-4,6.482386962E-4,1.552817991E-3
4.962373167E0,-1.748296665E-3,9.836917743E-4,-3.895955160E-4,2.043520345E-3
4.972330167E0,4.738091957E-5,1.918397844E-3,1.413052902E-3,2.383110099E-3
4.982287167E0,1.916920068E-3,2.627102658E-4,-5.062017590E-5,1.935500357E-3
4.992244167E0,-5.645984784E-4,1.198646612E-3,-5.983766168E-4,1.453815573E-3
5.002201167E0,-2.447529696E-4,-1.266108826E-3,8.650301024E-4,1.552807990E-3
5.012158167E0,-5.425736308E-4,4.225801677E-4,2.452504821E-3,2.547104246E-3
5.022115167E0,-4.255286418E-3,-1.457389444E-4,1.280447468E-3,4.446149801E-3
5.032072167E0,-2.944964683E-3,-1.418615691E-3,2.682190388E-4,3.279821476E-3
5.042028167E0,-1.035478199E-3,1.259459183E-3,-2.433741465E-4,1.648539811E-3
5.051985167E0,1.693317899E-4,3.957860172E-4,-1.121124253E-3,1.200932728E-3
5.061942167E0,-4.943278618E-4,8.884705603E-4,-1.476656646E-3,1.792834298E-3
5.071899167E0,1.276143594E-3,1.660564914E-3,-4.343064502E-4,2.138840901E-3
5.081856167E0,-6.940630265E-4,-2.505201846E-4,1.004067250E-3,1.246047707E-3
5.091813167E0,-3.006712068E-4,7.889326662E-4,1.814437099E-3,2.001249588E-3
5.101770167E0,-2.267149277E-3,-3.291852772E-5,2.681562677E-3,3.511670239E-3
5.111727167E0,-1.552074216E-3,1.268127933E-3,8.619176224E-4,2.181738943E-3
5.121683167E0,-1.288687577E-3,1.642835326E-3,-2.272357233E-3,3.085973262E-3
5.131640167E0,-2.804031363E-3,-2.050772309E-4,1.714460552E-3,3.293026501E-3
5.141597167E0,2.296188381E-3,6.239647046E-4,1.947487704E-3,3.074820546E-3
5.151554167E0,-1.914492575E-3,-4.472946748E-4,3.867802210E-3,4.338807242E-3
5.161511167E0,-5.442961119E-4,9.993342683E-4,2.359387465E-3,2.619472551E-3
5.171468167E0,-1.677386463E-3,2.544740215E-3,9.736791253E-4,3.199590465E-3
5.181425167E0,9.535503341E-4,3.942372277E-4,2.618980594E-3,2.814913957E-3
5.191382167E0,1.876494149E-3,6.059370935E-4,-4.141936079E-4,2.014930866E-3
5.201338167E0,-3.947040066E-3,-7.639927790E-4,-1.399829052E-3,4.257033195E-3
5.211295167E0,2.208619379E-3,-3.615543246E-4,-9.300848469E-4,2.423588024E-3
5.221252167E0,-8.255199064E-4,1.531154849E-3,4.598370753E-3,4.916394194E-3
5.231209167E0,9.326977888E-4,1.564435661E-5,1.877837814E-3,2.096770080E-3
5.241166167E0,-2.395720920E-3,8.673239499E-4,1.345737837E-3,2.881447533E-3
5.251123167E0,2.006002702E-3,3.541363403E-4,2.261598594E-3,3.043729224E-3
5.261080167E0,-1.541594043E-3,-7.702969015E-5,2.631628886E-4,1.565790686E-3
5.271037167E0,-1.386600081E-3,-2.414262854E-3,-2.873162273E-3,4.000798215E-3
5.280993167E0,-1.029736362E-3,1.570891589E-3,-1.630797982E-3,2.487480536E-3
5.290950167E0,1.004034886E-3,9.330548346E-4,3.188531846E-4,1.407247217E-3
5.300907167E0,1.216022531E-3,8.776783943E-5,1.338045113E-3,1.810187480E-3
5.310864167E0,1.766973990E-3,-4.554940388E-4,-1.237206161E-4,1.828928290E-3
5.320821167E0,5.802694941E-4,-9.353952482E-4,4.046503454E-4,1.172782528E-3
5.330778167E0,-1.214087941E-3,-7.436815649E-4,5.931202322E-4,1.542356446E-3
5.340735167E0,2.976739779E-6,-1.896297559E-3,-2.361889929E-4,1.910952258E-3
5.350692167E0,-8.562020957E-5,-6.743855774E-4,-4.616165534E-4,8.217156258E-4
5.360648167E0,-1.569930464E-4,-1.060810871E-3,-9.282026440E-4,1.418283001E-3
5.370605167E0,3.014801769E-4,-2.161514014E-3,1.793051139E-3,2.824546958E-3
5.380562167E0,-2.114805859E-3,1.651067287E-3,1.844982617E-3,3.256130811E-3
5.390519167E0,-6.993138231E-4,-2.223877236E-4,1.634657383E-5,7.340049954E-4
5.400476167E0,-8.740171324E-4,8.143810555E-4,-7.857978344E-4,1.429895342E-3
5.410433167E0,1.187200192E-3,-1.244099811E-3,-1.812901348E-3,2.498767683E-3
5.420390167E0,6.934502162E-4,8.659223095E-4,1.024436206E-4,1.114086776E-3
5.430347167E0,-7.095304318E-5,3.143595532E-4,1.029599458E-3,1.078856481E-3
5.440303167E0,3.005264327E-3,1.233682968E-3,2.140670083E-3,3.890508417E-3
5.450260167E0,-7.232432254E-4,6.301235408E-5,2.314218320E-3,2.425419088E-3
5.460217167E0,1.585184829E-3,1.589536667E-3,1.608747058E-3,2.761793775E-3
5.470174167E0,-4.815133289E-4,-1.234290190E-3,2.953861840E-3,3.237379670E-3
5.480131167E0,-7.835156284E-4,-2.039363608E-3,-3.001765348E-3,3.712613078E-3
5.490088167E0,-2.600499429E-4,-8.151065558E-4,-6.116069853E-4,1.051707076E-3
5.500045167E0,7.013512077E-4,-1.787959598E-3,-1.699774992E-3,2.564747173E-3
5.510001167E0,-1.757184509E-3,-1.004157588E-3,2.713901922E-4,2.041980043E-3
5.519958167E0,4.380592145E-4,1.536764205E-3,3.638016060E-4,1.638869032E-3
5.529915167E0,5.941899726E-4,-4.714895040E-4,1.662507653E-3,1.827374010E-3
5.539872167E0,1.858392614E-3,1.453976147E-3,2.478766255E-3,3.422272913E-3
5.549829167E0,-4.469887353E-4,1.103878953E-3,-2.226512879E-5,1.191152134E-3
5.559786167E0,3.996301675E-4,1.454350539E-3,-1.838274766E-3,2.377833862E-3
5.569743167E0,1.904615201E-4,-7.978389040E-4,-1.324437559E-3,1.557869492E-3
5.579700167E0,-1.653511310E-3,-1.309964806E-3,3.305468708E-3,3.921253731E-3
5.589656167E0,1.744300476E-3,1.828901470E-3,-7.164143026E-4,2.626921048E-3
5.599613167E0,-2.195313806E-3,2.155583352E-4,-2.375785261E-4,2.218628328E-3
5.609570167E0,-1.407400239E-3,2.146542072E-3,1.100217924E-3,2.792650673E-3
5.619527167E0,-7.147120778E-4,9.406628087E-4,1.873599365E-3,2.214956987E-3
5.629484167E0,-1.526562963E-3,1.633724198E-3,-8.682496846E-4,2.398605167E-3
5.639441167E0,1.423420617E-3,-8.246405050E-4,-1.572655514E-3,2.275830306E-3
5.649398167E0,4.695107928E-4,2.955365926E-5,-1.687379554E-4,4.997862552E-4
5.659355167E0,1.693233382E-3,1.327312551E-3,1.952470280E-3,2.905329257E-3
5.669311167E0,-2.429196611E-4,-1.660509966E-3,-1.046806574E-6,1.678184854E-3
5.679268167E0,-3.323930781E-3,-9.222822264E-4,-1.711594872E-3,3.850802170E-3
5.689225167E0,1.025923062E-3,5.063014105E-4,-2.918455750E-3,3.134683909E-3
5.699182167E0,1.126057934E-3,-1.003667712E-4,-9.075030684E-4,1.449704031E-3
5.709139167E0,-1.703563845E-3,-5.467999727E-4,8.267173544E-4,1.970934186E-3
5.719096167E0,-1.523534069E-3,2.702523023E-3,2.451245673E-3,3.953908458E-3
5.729053167E0,-2.635475248E-3,-8.177468553E-4,2.395771444E-3,3.654334483E-3
5.739010167E0,-3.361019772E-4,-1.273146830E-3,-1.066084951E-5,1.316807140E-3
5.748966167E0,1.705834293E-3,2.783834934E-3,-1.189848408E-3,3.474959972E-3
5.758923167E0,-1.867301762E-7,9.619668126E-4,2.642376348E-4,9.975979707E-4
5.768880167E0,-1.246695407E-3,-2.024387941E-4,-2.279570326E-4,1.283431070E-3
5.778837167E0,6.236426998E-4,-8.352063596E-4,-1.484436914E-3,1.813850278E-3
5.788794167E0,-1.107390737E-3,1.233577728E-3,2.368411981E-3,2.890917426E-3
5.798751167E0,3.057811409E-5,1.003480516E-3,1.802490093E-3,2.063220469E-3
5.808708542E0,-3.751441836E-4,2.313875593E-3,9.290985763E-4,2.521503041E-3
5.818665542E0,3.055597190E-4,-4.558116198E-4,1.054267399E-3,1.188533013E-3
5.828621542E0,-1.136744395E-3,-1.822912134E-3,1.246138476E-3,2.483557442E-3
5.838578542E0,6.672808668E-4,-3.272204660E-3,1.049740240E-4,3.341198383E-3
5.848535542E0,5.202670582E-5,-2.189223655E-3,-3.268792760E-3,3.934515611E-3
5.858492542E0,2.357847989E-4,-9.335428476E-4,1.515075564E-5,9.629778113E-4
5.868449542E0,-1.264822902E-3,-1.200423576E-3,1.483446918E-3,2.289412260E-3
5.878406542E0,-7.183423731E-4,-1.623599790E-3,-4.888903350E-4,1.841495534E-3
5.888363542E0,3.301142715E-4,3.614481539E-4,-7.979013026E-4,9.360911755E-4
5.898320542E0,8.536917157E-4,3.492526710E-3,1.178696752E-3,3.783630320E-3
5.908276542E0,-9.964532219E-4,1.337637194E-3,1.016190276E-3,1.953160250E-3
5.918233542E0,3.476325888E-3,-1.113802195E-3,-2.190255560E-3,4.257066646E-3
5.928190542E0,-9.318171069E-4,-2.938276157E-4,-1.330487430E-5,9.771360234E-4
5.938147542E0,-6.990570109E-4,-1.311687753E-3,-2.076197416E-5,1.486484620E-3
5.948104542E0,2.378344303E-3,-1.531522721E-3,-1.246397384E-3,3.091211721E-3
5.958061542E0,2.697923686E-3,1.524986699E-3,8.162204176E-4,3.204776501E-3
5.968018542E0,-1.058726106E-3,-1.657465473E-4,1.898575574E-4,1.088310056E-3
5.977975542E0,-4.994622432E-4,-1.817971468E-3,-1.004263759E-4,1.888006422E-3
5.987931542E0,-1.442837529E-4,5.410099402E-4,-3.304387908E-3,3.351490565E-3
5.997888542E0,8.919521933E-4,-1.260352321E-3,-4.291621502E-3,4.560929928E-3
6.007845542E0,-1.589243067E-3,3.319643438E-4,1.813921146E-3,2.434379547E-3
6.017802542E0,5.689825630E-4,-6.094630808E-4,1.613385044E-3,1.816094079E-3
6.027759542E0,-1.217965968E-3,-1.510107890E-3,-8.458541706E-4,2.116444239E-3
6.037716542E0,1.259306446E-3,-2.664113417E-4,9.397510439E-5,1.290604140E-3
6.047673542E0,1.081736758E-3,-1.755934209E-4,-9.206337854E-4,1.431277063E-3
6.057630542E0,1.650766935E-4,7.376037538E-4,-6.103757769E-4,9.715287960E-4
6.067586542E0,-2.588388044E-3,-1.902729273E-4,3.909021616E-4,2.624644920E-3
6.077543542E0,1.595704467E-3,6.054788828E-4,1.003961079E-3,1.980104864E-3
6.087500542E0,-9.114854038E-4,2.673869953E-3,1.235640608E-3,3.083373781E-3
6.097457542E0,1.540452940E-4,8.301632479E-4,-9.457552806E-4,1.267814664E-3
6.107414542E0,8.227353683E-4,6.949426606E-4,-1.181905158E-3,1.598980485E-3
6.117371542E0,6.874467945E-4,2.430044115E-4,1.272464171E-3,1.466560366E-3
6.127328542E0,9.490266675E-4,-2.260707319E-3,8.390769362E-4,2.591428043E-3
6.137285542E0,-8.909513708E-4,-1.760299318E-3,-9.497683495E-4,2.189636488E-3
6.147241542E0,-8.217671420E-4,3.366293386E-4,-4.540421069E-4,9.973839693E-4
6.157198542E0,1.580404118E-3,-2.367278561E-3,9.454488754E-4,2.999259665E-3
6.167155542E0,1.414609142E-5,-6.296848878E-4,6.984835491E-4,9.405224283E-4
6.177112542E0,-3.392554354E-4,-1.273104921E-3,2.838298678E-4,1.347757316E-3
6.187069542E0,-7.195889484E-4,1.022075303E-3,-1.028044149E-3,1.618431634E-3
6.197026542E0,2.183523029E-3,9.640185162E-4,-2.216827124E-5,2.386963751E-3
6.206983542E0,-3.515257267E-3,1.338834874E-3,1.714692451E-3,4.133966942E-3
6.216940542E0,-6.073517725E-4,-3.908481449E-5,2.354384400E-3,2.431775010E-3
6.226896542E0,8.567520417E-4,-3.413847648E-3,1.751255244E-3,3.931319721E-3
6.236853542E0,-7.392803673E-4,-6.252620369E-5,-3.851326182E-4,8.359259065E-4
6.246810542E0,1.572243054E-3,1.933323219E-4,1.109290868E-3,1.933869654E-3
6.256767542E0,6.233587628E-4,-1.984600909E-3,1.414222643E-3,2.515401081E-3
6.266724542E0,-4.992450122E-4,1.023272984E-3,-1.180727966E-3,1.640259648E-3
6.276681542E0,1.973233884E-3,6.360495463E-4,-9.921761230E-4,2.298396059E-3
6.286638542E0,3.716261126E-4,5.372054875E-4,-1.705938950E-3,1.826724775E-3
6.296595542E0,2.156210365E-3,3.742203116E-4,4.110075533E-4,2.226704109E-3
6.306551542E0,2.191919601E-3,1.607532613E-3,4.550982267E-4,2.756045543E-3
6.316508542E0,2.129335189E-3,1.181427389E-3,1.610852778E-4,2.440448215E-3
6.326465542E0,2.067706781E-3,-2.862019464E-4,-7.756054401E-5,2.088860580E-3
6.336422542E0,7.331967354E-4,-2.155208029E-3,-1.991574187E-3,3.024709381E-3
6.346379542E0,1.784187043E-3,4.795258865E-4,-4.999646917E-4,1.913957464E-3
6.356336542E0,-2.984048333E-4,-3.899168223E-5,8.856775239E-4,9.354092538E-4
6.366293542E0,-9.872132214E-4,-6.692130119E-4,2.744557336E-3,2.992495776E-3
6.376250542E0,-1.916390029E-3,-2.534491010E-3,2.423380502E-3,3.996119177E-3
6.386206542E0,6.273241015E-4,-1.274337992E-4,5.711736158E-4,8.579127000E-4
6.396163542E0,-8.121144492E-4,-1.429453492E-3,2.365877852E-3,2.881014609E-3
6.406120542E0,-2.718158066E-3,-2.245513722E-3,6.409203634E-4,3.583503043E-3
6.416077542E0,8.322100621E-5,-8.217878640E-4,-1.217433251E-3,1.471191609E-3
6.426034542E0,-2.225570846E-3,-8.514150977E-4,-3.484623972E-3,4.221454428E-3
6.435991542E0,3.002480604E-3,-1.028515399E-3,2.640420571E-4,3.184721638E-3
6.445948542E0,-1.849908149E-3,4.547350109E-4,2.401490696E-3,3.065306127E-3
6.455905542E0,1.810074085E-3,2.573545091E-3,-5.737924948E-4,3.198240197E-3
6.465861542E0,-1.017586328E-6,-1.436019316E-3,7.498813793E-4,1.620023023E-3
6.475818542E0,-4.721307196E-4,1.581342891E-3,1.142697409E-3,2.007314157E-3
6.485775542E0,-4.113637842E-4,1.446706243E-3,1.952433027E-3,2.464583909E-3
6.495732542E0,-1.404456561E-3,-3.424054012E-4,-3.573261201E-4,1.489100953E-3
6.505689542E0,3.189157229E-3,2.658475190E-3,4.311874509E-4,4.174222896E-3
6.515646542E0,2.054384211E-3,-4.377160221E-4,1.816564240E-3,2.777047972E-3
6.525603542E0,2.328418661E-3,-1.508397050E-3,-1.404570416E-3,3.109600163E-3
6.535560542E0,-1.290018321E-3,-1.800545491E-3,-5.829855800E-4,2.290411212E-3
6.545516542E0,-1.188350841E-3,-1.565632410E-3,2.766316757E-4,1.984920062E-3
6.555473542E0,-8.208346553E-4,3.182878718E-4,3.712109290E-3,3.815079564E-3
6.565430542E0,-2.942705527E-3,9.036976844E-4,-1.900178380E-3,3.617576979E-3
6.575387542E0,-1.632696716E-3,-2.310737967E-3,1.720273867E-4,2.834572621E-3
6.585344542E0,-1.760589308E-3,-6.234254688E-4,1.727985218E-3,2.544458084E-3
6.595301542E0,-2.113191877E-3,-1.384023577E-3,-6.739199162E-4,2.614434781E-3
6.605258542E0,2.700559562E-3,6.330013275E-5,-1.340789720E-3,3.015749646E-3
6.615215542E0,3.389519406E-3,-1.656035893E-3,-6.100181490E-4,3.821441983E-3
6.625171542E0,-1.848050160E-4,-4.582945257E-5,-1.246429048E-3,1.260888023E-3
6.635128542E0,-6.023886381E-4,5.283486098E-4,-7.330719382E-5,8.046106322E-4
6.645085542E0,-1.205526292E-3,-7.397448644E-4,-2.822708338E-4,1.442287395E-3
6.655042542E0,1.658703550E-3,-8.420096710E-4,1.357704401E-3,2.302963090E-3
6.664999542E0,6.070327945E-4,6.093811244E-4,4.017529078E-3,4.108573239E-3
6.674956542E0,-1.907257596E-3,4.882076755E-4,1.984206028E-3,2.795183685E-3
6.684913542E0,-9.022922022E-4,-3.121234477E-5,-1.942394301E-4,9.234903274E-4
6.694870542E0,8.916130755E-4,1.274002716E-3,2.110727131E-3,2.621683776E-3
6.704826542E0,2.623761538E-4,9.718928486E-4,4.780339077E-4,1.114420644E-3
6.714783542E0,-4.361709580E-4,1.069630496E-3,-2.947590314E-3,3.165855834E-3
6.724740542E0,-1.134719001E-3,-1.026157290E-3,-1.139711589E-3,1.907754832E-3
6.734697542E0,-7.839808241E-4,-2.513266169E-3,1.867529936E-3,3.227816728E-3
6.744654542E0,-1.448368421E-4,1.401425339E-3,-9.713210166E-4,1.711267136E-3
6.754611542E0,1.407519681E-3,-1.062264666E-3,2.494516782E-3,3.054853818E-3
6.764568542E0,-1.428088523E-3,7.353900000E-4,1.550096087E-3,2.232270853E-3
6.774525542E0,-1.654457184E-3,2.090939321E-3,1.378217712E-4,2.669878398E-3
6.784481542E0,2.647184068E-3,-1.085424796E-3,-2.954547293E-3,4.112794693E-3
6.794438542E0,-1.187235117E-3,-3.053843975E-4,-9.886017069E-4,1.574839734E-3
6.804395542E0,4.974323092E-4,-1.076139510E-3,8.252579719E-4,1.444495021E-3
6.814352542E0,1.150023891E-4,-1.098509878E-3,6.023515016E-4,1.258084589E-3
6.824309542E0,1.545144478E-4,-4.474273883E-3,3.129621036E-3,5.462373964E-3
6.834266542E0,2.363872947E-3,2.131564543E-4,1.040371135E-3,2.591467361E-3
6.844223542E0,-2.264780924E-4,-1.539546065E-3,-5.634352565E-4,1.654978459E-3
6.854180542E0,-2.007600153E-3,-8.378028870E-4,-1.279825345E-3,2.523950270E-3
6.864136542E0,5.385059630E-4,3.212867305E-4,1.700346358E-3,1.812289042E-3
6.874093542E0,9.775278158E-5,-5.032280460E-4,1.209525391E-3,1.313676423E-3
6.884050542E0,7.836229634E-4,-1.454055309E-4,-3.484208137E-4,8.698303171E-4
6.894007542E0,1.004132675E-3,1.108677126E-3,2.970676869E-3,3.326013900E-3
6.903964542E0,9.459221037E-4,1.566503197E-4,9.980071336E-4,1.383953102E-3
6.913921542E0,1.434079488E-3,2.000357024E-3,1.095744781E-3,2.694191684E-3
6.923878542E0,-1.726101618E-3,1.684594899E-3,-3.364773933E-3,4.139926375E-3
6.933835542E0,7.682151627E-4,-2.331472933E-4,-2.330668736E-3,2.465061653E-3
6.943791542E0,-7.561200764E-4,-1.311647706E-3,1.694196835E-3,2.272100392E-3
6.953748542E0,-1.678639092E-3,-7.619708776E-4,3.198882565E-3,3.692056132E-3
6.963705542E0,-3.468533978E-4,-1.415347680E-3,7.840692997E-4,1.654775212E-3
6.973662542E0,9.935154812E-4,-3.404961899E-4,6.874464452E-5,1.052490614E-3
6.983619542E0,-8.907604497E-4,-3.214254975E-4,1.689873636E-3,1.937121946E-3
6.993576542E0,1.840912737E-4,-3.837430850E-4,-8.382648230E-4,9.401256649E-4
7.003533542E0,5.515160738E-4,1.111733727E-3,1.626735553E-3,2.046067061E-3
7.013490542E0,-2.295891754E-4,-6.416914985E-4,9.055519477E-4,1.133359386E-3
7.023446542E0,-8.550425991E-5,-1.054180786E-3,1.787751913E-3,2.077177174E-3
7.033403542E0,6.736116484E-5,-1.783620566E-3,4.609646276E-4,1.843455516E-3
7.043360542E0,3.262212267E-4,-1.066317782E-3,-1.561435871E-3,1.918732884E-3
7.053317542E0,-2.841753885E-4,-2.315733582E-5,-8.876556531E-4,9.323220860E-4
7.063274542E0,-3.677774454E-3,3.560492769E-4,-1.206807792E-4,3.696939257E-3
7.073231542E0,1.005128026E-3,2.593371086E-3,-8.943285793E-4,2.921588531E-3
7.083188542E0,1.831499394E-4,8.046282455E-4,1.825850457E-3,2.003671731E-3
7.093145542E0,7.895516464E-4,1.315955073E-3,1.643423922E-3,2.248548808E-3
7.103101542E0,4.567755386E-4,-5.152355880E-4,1.067412086E-3,1.270228391E-3
7.113058542E0,5.089734914E-4,-1.294743270E-3,-3.086852841E-3,3.385863939E-3
7.123015542E0,-1.713796519E-3,4.896363243E-4,2.573992126E-3,3.130858940E-3
7.132972542E0,-1.275173854E-3,1.137317158E-3,-8.863583207E-5,1.710969020E-3
7.142929542E0,5.215230631E-4,3.054896370E-4,-1.711796969E-3,1.815367480E-3
7.152886542E0,2.670694143E-3,-3.293772228E-3,3.068791702E-4,4.251554718E-3
7.162843542E0,-1.354235457E-3,3.279754892E-4,1.660997979E-3,2.168048865E-3
7.172800542E0,6.966649089E-4,1.522060484E-4,2.287495881E-4,7.488892111E-4
7.182756542E0,6.327809533E-4,-4.827901721E-4,-4.996825010E-5,7.974928910E-4
7.192713542E0,-1.810669433E-3,6.365366280E-4,-1.700595021E-3,2.564317863E-3
7.202670542E0,-1.621762291E-3,-5.296431482E-4,-1.613406464E-3,2.348130152E-3
7.212627542E0,1.160708256E-3,1.483973116E-3,-2.095438540E-3,2.817850695E-3
7.222584542E0,-2.567648422E-3,3.540605307E-3,1.158863306E-4,4.375172453E-3
7.232541542E0,1.012172550E-3,4.412177950E-4,1.263975166E-3,1.678332397E-3
7.242498542E0,1.971765887E-4,1.213252544E-4,-8.585024625E-5,2.469183859E-4
7.252455542E0,1.617706730E-3,1.706705429E-3,2.607936971E-3,3.511574252E-3
7.262412542E0,-7.873459253E-4,-8.959770203E-4,2.054477111E-3,2.375618788E-3
7.272368542E0,6.691369927E-4,1.046266407E-3,1.284796745E-4,1.248569075E-3
7.282325542E0,2.334404970E-3,1.789219677E-4,-3.167110961E-3,3.938534178E-3
7.292282542E0,2.176479669E-3,9.091608226E-4,2.294500358E-3,3.290648727E-3
7.302239542E0,-7.314793766E-5,-1.606455073E-3,2.140489407E-3,2.677264167E-3
7.312196542E0,5.652118707E-4,-9.859390557E-4,1.236777753E-4,1.143169485E-3
7.322153542E0,-2.431919798E-3,7.243864238E-4,-7.795300335E-4,2.654550182E-3
7.332110542E0,-7.762324531E-4,2.215490676E-3,2.134234644E-3,3.172679195E-3
7.342067542E0,-6.503199693E-4,-9.476393461E-4,3.507314250E-4,1.201644259E-3
7.352023542E0,-1.050859457E-3,1.442572102E-4,-1.595299691E-4,1.072644187E-3
7.361980542E0,1.272261958E-3,-8.419873193E-4,-8.415216580E-4,1.742340907E-3
7.371937542E0,-8.103300352E-4,5.670916289E-4,1.612048596E-3,1.891276912E-3
7.381894542E0,-1.484643668E-3,-1.843720675E-4,9.436476976E-4,1.768793616E-3
7.391851542E0,1.937252120E-3,2.276189625E-4,4.962459207E-5,1.951209566E-3
7.401808542E0,-1.392193371E-3,-2.013979480E-3,-1.369519159E-4,2.452156511E-3
7.411765542E0,-3.986644559E-3,-1.862524077E-4,5.160551518E-4,4.024218895E-3
7.421722542E0,-3.094467334E-3,7.045222446E-4,-6.701666862E-4,3.243640403E-3
7.431678542E0,2.741051139E-3,1.321576536E-3,-2.408677712E-3,3.880934708E-3
7.441635542E0,-1.173257362E-3,4.717800766E-5,2.132956870E-3,2.434802582E-3
7.451592542E0,6.256625056E-6,1.403791830E-3,1.586209983E-3,2.118190916E-3
7.461549542E0,-1.504355227E-3,-1.192696393E-3,7.026074454E-4,2.044325452E-3
7.471506542E0,6.770399632E-4,-1.971404999E-3,5.587972701E-4,2.158025758E-3
7.481463542E0,-1.213683514E-3,6.333915517E-4,5.337446928E-4,1.469386242E-3
7.491420542E0,1.688629505E-3,2.485886216E-5,-2.438984811E-4,1.706333507E-3
7.501377542E0,-1.213536132E-3,6.281435490E-4,-1.954420935E-3,2.384742220E-3
7.511333542E0,-6.761103868E-4,-1.134070568E-3,-2.681072801E-4,1.347264941E-3
7.521290542E0,-2.052093390E-3,4.055695608E-4,1.238787547E-3,2.431083820E-3
7.531247542E0,-3.692419268E-4,-1.156115904E-4,-4.776194692E-4,6.146755223E-4
7.541204542E0,-1.054753084E-3,1.631881110E-3,3.481144086E-4,1.974012074E-3
7.551161542E0,-2.311498625E-3,1.229477115E-3,1.547602005E-3,3.041333891E-3
7.561118542E0,1.150656492E-3,-1.387762837E-3,-1.536808908E-3,2.368897987E-3
7.571075542E0,-7.665532175E-4,3.896309063E-4,-1.224687323E-3,1.496420769E-3
7.581032542E0,1.500614453E-4,-3.398090601E-3,-4.310993478E-3,5.491284270E-3
7.590988542E0,4.142470425E-4,-9.280089289E-4,1.453951001E-3,1.773915076E-3
7.600945542E0,-1.596005168E-4,-1.625698060E-4,2.140970901E-3,2.153057748E-3
7.610902542E0,6.715719355E-4,1.814028248E-3,-1.191175543E-3,2.271696838E-3
7.620859542E0,-1.884592697E-3,9.716870263E-4,3.638040274E-3,4.210843425E-3
7.630816542E0,1.114126528E-3,2.148160711E-4,8.385246620E-4,1.410867631E-3
7.640773542E0,-8.705155924E-4,-2.173101529E-4,-4.276226740E-3,4.369340480E-3
7.650730542E0,9.925570339E-6,-1.350184903E-4,-7.699085400E-4,7.817209666E-4
7.660687542E0,2.095480449E-3,8.503366262E-4,6.607593969E-4,2.355995262E-3
7.670643542E0,-9.820684791E-4,-7.102759555E-4,2.264781855E-3,2.568693692E-3
7.680600542E0,9.734631167E-4,-6.804270670E-4,1.314297318E-3,1.771436952E-3
7.690557542E0,-7.480041822E-4,6.040157750E-4,2.462918870E-3,2.643920323E-3
7.700514542E0,1.920860494E-3,-6.546527147E-4,-1.161123626E-3,2.338051173E-3
7.710471542E0,-3.039443400E-4,1.403705217E-3,2.700584009E-4,1.461404132E-3
7.720428542E0,-9.654028108E-4,-9.370688349E-5,-1.455601305E-3,1.749159434E-3
7.730385542E0,-2.172081266E-3,-7.507083938E-4,5.945004523E-4,2.373800940E-3
7.740342542E0,-1.730554737E-3,3.850916401E-4,2.050483599E-3,2.710645359E-3
7.750298542E0,1.561911311E-3,1.591769978E-3,1.746350899E-3,2.832497144E-3
7.760255542E0,-2.527751727E-3,-2.495031804E-4,2.752133645E-3,3.745132872E-3
7.770212542E0,1.527177170E-3,1.054955646E-4,-1.112977043E-4,1.534857193E-3
7.780169542E0,2.111321548E-3,9.535960853E-4,4.072394222E-4,2.352204949E-3
7.790126542E0,-1.570764929E-3,9.685102850E-4,-2.981899772E-3,3.506713687E-3
7.800083542E0,-1.103786984E-3,-7.268628106E-4,-1.398082823E-4,1.328992704E-3
7.810040333E0,-6.249104626E-5,3.378689289E-4,3.104987554E-3,3.123941142E-3
7.819997333E0,5.563168088E-4,2.276236191E-4,1.481212676E-4,6.190644665E-4
7.829953333E0,3.278866410E-3,-1.845647581E-3,-1.077199355E-3,3.913788239E-3
7.839910333E0,-3.962757997E-3,9.919498116E-4,2.757638693E-3,4.928690144E-3
7.849867333E0,1.158767380E-3,-9.657405317E-4,-2.653372474E-3,3.052176617E-3
7.859824333E0,-1.784148742E-3,-2.000887878E-3,-1.793412492E-3,3.225378645E-3
7.869781333E0,2.053998876E-3,1.124598086E-3,3.027617931E-4,2.361206671E-3
7.879738333E0,-1.971317222E-3,2.127428539E-3,2.118601464E-3,3.591728824E-3
7.889695333E0,6.950395182E-4,2.285949886E-4,3.906114958E-3,3.974049530E-3
7.899652333E0,1.967470394E-3,1.077844761E-3,1.104923896E-3,2.500709079E-3
7.909608333E0,-8.640023880E-4,2.900818363E-4,2.592831850E-3,2.748349432E-3
7.919565333E0,-2.767367288E-3,-5.548400804E-4,2.269158140E-4,2.831547282E-3
7.929522333E0,2.183981473E-3,-1.035007648E-3,-1.395481639E-3,2.790767799E-3
7.939479333E0,-1.566195162E-3,1.733447425E-3,-9.669205174E-4,2.528387341E-3
7.949436333E0,-2.608925570E-5,1.914808527E-3,2.203572541E-3,2.919401358E-3
7.959393333E0,-4.249694757E-5,7.877051830E-4,1.426933333E-3,1.630467474E-3
7.969350333E0,8.443356492E-4,1.115540974E-3,4.066126421E-3,4.300083537E-3
7.979307333E0,-1.310884370E-3,1.294680871E-3,2.842807211E-3,3.387649514E-3
7.989263333E0,4.635798978E-4,-1.843854785E-3,2.590082586E-4,1.918799642E-3
7.999220333E0,1.232666546E-3,7.112985477E-4,-3.128229640E-3,3.436747462E-3
8.009177333E0,2.568843774E-4,-1.215497963E-3,-1.430463977E-3,1.894637715E-3
8.019134333E0,-1.630229992E-3,2.047554590E-3,1.399358734E-3,2.967883841E-3
8.029091333E0,2.315858146E-4,-8.694054559E-4,2.284860238E-3,2.455622965E-3
8.039048333E0,-1.630854560E-3,-6.952993572E-4,9.092641994E-4,1.992458074E-3
8.049005333E0,-3.844951279E-4,8.525298908E-4,1.865604892E-3,2.086893704E-3
8.058962333E0,-3.064494813E-3,2.737697214E-4,1.824889332E-3,3.577191551E-3
8.068918333E0,-4.261010326E-4,1.157673076E-3,-3.365612123E-3,3.584566083E-3
8.078875333E0,1.614539651E-3,3.868909553E-4,-3.348925617E-3,3.737877163E-3
8.088832333E0,-1.928796060E-3,5.421536043E-4,5.499422550E-4,2.077648011E-3
8.098789333E0,2.205636119E-3,1.471398398E-3,4.879314452E-3,5.553157072E-3
8.108746333E0,2.307901625E-3,1.706289127E-3,1.611881889E-3,3.291807364E-3
8.118703333E0,-7.622123230E-4,1.747541130E-3,1.491404139E-3,2.420568927E-3
8.128660333E0,1.347011188E-3,-2.558257431E-3,8.471850306E-4,3.012779896E-3
8.138617333E0,-2.419448923E-3,4.726741463E-5,-2.916198689E-3,3.789483091E-3
8.148574333E0,-1.444732188E-3,-1.804325730E-4,-1.284746453E-3,1.941746754E-3
8.158530333E0,-1.443939982E-4,1.437180676E-3,3.151856363E-4,1.478404514E-3
8.168487333E0,-3.422212321E-3,-1.255541109E-3,6.139921024E-4,3.696607492E-3
8.178444333E0,1.377504086E-3,6.112689152E-4,2.173887566E-3,2.645175673E-3
8.188401333E0,-2.423092956E-3,-4.185754806E-4,3.304472193E-4,2.481084495E-3
8.198358333E0,-8.053632919E-4,-1.197109930E-3,1.445493661E-3,2.042335462E-3
8.208315333E0,1.197600155E-3,-6.967019290E-4,9.546726942E-4,1.682569363E-3
8.218272333E0,-4.913231824E-4,2.294545993E-4,-2.194092609E-3,2.260108462E-3
8.228229333E0,2.791821724E-3,1.752249897E-3,-1.688092016E-3,3.703282718E-3
8.238185333E0,1.458451152E-5,-1.138273627E-3,1.550190151E-3,1.923270407E-3
8.248142333E0,-1.704219729E-3,-7.997853681E-4,4.990408197E-4,1.947578820E-3
8.258099333E0,5.784211680E-6,1.517740078E-3,2.166135237E-3,2.644940503E-3
8.268056333E0,-4.647963215E-4,9.747212753E-4,2.548831515E-3,2.768150877E-3
8.278013333E0,-1.199159538E-3,5.052750930E-4,-2.135899384E-3,2.501070310E-3
8.287970333E0,6.434816169E-4,-5.314936861E-4,-1.307656057E-3,1.551295747E-3
8.297927333E0,-1.528688241E-3,-3.626635298E-4,1.510133035E-3,2.179200394E-3
8.307884333E0,-3.867247142E-4,1.329500228E-4,1.870724373E-3,1.914899838E-3
8.317840333E0,-1.054468332E-3,-2.653459087E-4,1.669015735E-3,1.991965220E-3
8.327797333E0,1.607320737E-4,-2.077893354E-3,-2.003483474E-3,2.890920549E-3
8.337754333E0,-5.515140947E-5,6.472012028E-4,8.697705343E-4,1.085546801E-3
8.347711333E0,1.988025615E-3,1.578775235E-3,-2.530179918E-4,2.551234053E-3
8.357668333E0,-2.883349080E-4,4.048757255E-4,-1.991450787E-3,2.052544179E-3
8.367625333E0,-2.311005956E-3,6.520170718E-4,-1.721406356E-3,2.954507510E-3
8.377582333E0,-1.438426203E-3,-5.787955597E-4,-4.659993574E-4,1.619021199E-3
8.387539333E0,9.376460221E-4,1.495787874E-4,-1.215679571E-3,1.542540338E-3
8.397496333E0,-1.417603809E-3,1.889085397E-4,-4.698056728E-5,1.430906765E-3
8.407452333E0,-3.302632831E-5,2.262978815E-3,1.708575524E-3,2.835735209E-3
8.417409333E0,-3.313906491E-4,-2.826238051E-4,1.135611907E-3,1.216269041E-3
8.427366333E0,-1.330875093E-3,2.583470196E-3,-1.047381200E-3,3.089102482E-3
8.437323333E0,9.190208511E-4,-6.667580456E-4,1.704159193E-3,2.047760770E-3
8.447280333E0,1.410373952E-3,-2.651531249E-4,-3.581931815E-4,1.479108928E-3
8.457237333E0,1.041927375E-3,-2.072630450E-4,2.404572442E-3,2.628790455E-3
8.467194333E0,-1.575427363E-3,-7.259659469E-6,2.626947127E-3,3.063147938E-3
8.477151333E0,-1.955235843E-3,2.462550066E-3,1.531243324E-4,3.148102141E-3
8.487107333E0,1.409380930E-4,-4.797102883E-4,1.646891236E-3,1.721114828E-3
8.497064333E0,-5.719063338E-4,1.552676782E-3,3.258148208E-4,1.686427390E-3
8.507021333E0,-4.187745508E-4,-2.042101696E-4,-1.934942789E-3,1.990245592E-3
8.516978333E0,-1.696218504E-3,-1.040892676E-4,-1.170523465E-4,1.703435658E-3
8.526935333E0,9.743995033E-4,-8.038710803E-5,2.081919461E-3,2.300066330E-3
8.536892333E0,1.080448274E-4,1.312767155E-3,1.967625692E-3,2.367822239E-3
8.546849333E0,-1.660294132E-3,1.569229178E-3,7.297880948E-4,2.398259261E-3
8.556806333E0,-2.908606548E-3,7.406258956E-4,3.456275910E-3,4.577593465E-3
8.566762333E0,-5.245448556E-4,5.235783756E-4,-1.436484046E-3,1.616405901E-3
8.576719333E0,2.064293250E-3,1.237296499E-3,-3.369888756E-3,4.141057773E-3
8.586676333E0,-5.019288510E-4,9.568659589E-4,-1.175710931E-3,1.596815966E-3
8.596633333E0,6.702918326E-4,9.300261736E-4,-1.064418815E-3,1.564361607E-3
8.606590333E0,1.316108392E-3,-1.244444400E-3,-6.233993918E-4,1.915570402E-3
8.616547333E0,1.529229223E-3,-4.845950752E-5,2.863373607E-3,3.246505622E-3
8.626504333E0,-1.099310815E-3,-5.621835589E-4,2.427414060E-3,2.723393772E-3
8.636461333E0,-1.226440654E-3,1.109042205E-3,-1.725344919E-3,2.389758644E-3
8.646417333E0,2.059101127E-3,-1.262502745E-3,-3.529370297E-3,4.276711976E-3
8.656374333E0,-3.821928985E-3,-1.743982546E-3,3.751963377E-4,4.217746861E-3
8.666331333E0,-3.340962343E-3,2.897107974E-3,-7.214937359E-4,4.480604557E-3
8.676288333E0,2.279806184E-3,-1.115972176E-3,-1.554171555E-3,2.976299608E-3
8.686245333E0,8.257202571E-4,-3.945222124E-4,1.180629246E-3,1.493769439E-3
8.696202333E0,-2.847830299E-3,1.040815376E-3,1.939022914E-3,3.599061533E-3
8.706159333E0,3.948347876E-4,-4.271185026E-4,1.259427518E-4,5.951355320E-4
8.716116333E0,-2.624043263E-3,4.008412361E-5,-2.711623441E-3,3.773607223E-3
8.726073333E0,-3.534844145E-3,-2.858862281E-4,-2.582557499E-5,3.546480090E-3
8.736029333E0,-1.544039696E-5,2.515831962E-3,2.122335136E-3,3.291497425E-3
8.745986333E0,-7.278360426E-4,4.782471806E-4,9.167222306E-4,1.264454554E-3
8.755943333E0,-8.059979882E-4,-9.175129235E-4,1.998287626E-3,2.341925737E-3
8.765900333E0,1.181252766E-3,-4.277573898E-4,1.431300305E-3,1.904456627E-3
8.775857333E0,8.771599969E-4,-1.381663606E-4,-1.192796044E-3,1.487031273E-3
8.785814333E0,-2.110374160E-3,1.475175843E-3,-3.313205205E-3,4.196087653E-3
8.795771333E0,-3.901773598E-4,-7.564099506E-4,-4.321580287E-3,4.404594256E-3
8.805728333E0,-1.493258635E-3,-6.544115022E-4,-8.011478931E-4,1.816566462E-3
8.815684167E0,-4.236197565E-4,-6.641224027E-4,2.084843814E-3,2.228696030E-3
8.825641167E0,6.477698917E-4,-6.550671533E-4,2.544238232E-3,2.705894859E-3
8.835598167E0,5.757436156E-4,1.129030250E-3,2.753827721E-3,3.031461221E-3
8.845555167E0,-2.663991880E-3,1.429434866E-3,-2.293395344E-3,3.794706705E-3
8.855512167E0,7.156971842E-4,2.501731738E-3,-4.044991918E-3,4.809661502E-3
8.865469167E0,-1.057968009E-3,-7.537156343E-4,-1.458263956E-3,1.952925327E-3
8.875426167E0,-2.432490001E-3,-1.402103342E-3,-2.046311274E-4,2.815097739E-3
8.885383167E0,-1.825022977E-3,1.108724624E-3,5.282713100E-4,2.199784020E-3
8.895339167E0,-8.905946743E-4,4.223147407E-4,2.698223107E-3,2.872614932E-3
8.905296167E0,4.894555314E-4,1.537379809E-3,2.418857068E-3,2.907571651E-3
8.915253167E0,1.197864534E-3,-2.198377624E-4,-2.210990526E-3,2.524220115E-3
8.925210167E0,-4.463710357E-4,5.255807191E-4,-1.892742701E-3,2.014437173E-3
8.935167167E0,2.113877796E-3,-2.222022973E-3,-1.531192102E-3,3.427887787E-3
8.945124167E0,-1.105617732E-3,-1.192178577E-3,-3.833696246E-4,1.670524647E-3
8.955081167E0,-1.511566574E-3,-1.046973281E-3,3.348493949E-3,3.820130663E-3
8.965038167E0,-5.919770338E-4,-2.039266750E-3,1.227285713E-3,2.452605942E-3
8.974995167E0,-1.756379148E-3,-1.148520038E-3,1.303355210E-3,2.470364506E-3
8.984951167E0,-1.909730490E-4,-1.801950857E-4,4.647253081E-4,5.337701625E-4
8.994908167E0,-2.823229413E-3,-1.427585259E-3,-2.179987263E-3,3.842000580E-3
9.004865167E0,-3.116023727E-4,-1.195818186E-6,-2.481723670E-3,2.501209676E-3
9.014822167E0,-1.238416880E-3,3.019468859E-4,2.232236788E-3,2.570550402E-3
9.024779167E0,-1.120971516E-3,1.202095300E-3,1.951273531E-3,2.551289604E-3
9.034736167E0,-3.003915772E-4,7.841400802E-4,9.990632534E-4,1.305081664E-3
9.044693167E0,-6.949552335E-5,4.632398486E-6,3.404696472E-3,3.405408809E-3
9.054650167E0,-7.497393526E-4,-1.130603254E-3,-1.383138821E-3,1.937381173E-3
9.064606167E0,-9.713142645E-4,1.474234276E-3,-2.692614682E-3,3.219781347E-3
9.074563167E0,1.086937729E-3,-5.969591439E-4,-6.816191599E-4,1.415061315E-3
9.084520167E0,4.139569355E-4,-9.109452367E-4,-3.702957183E-4,1.066911659E-3
9.094477167E0,2.823044779E-4,-1.442618668E-6,3.688579425E-3,3.699366983E-3
9.104434167E0,6.495544221E-4,6.773974746E-4,3.709352575E-3,3.826236377E-3
9.114391167E0,-6.937470753E-4,-8.305879310E-4,2.134181559E-3,2.392883667E-3
9.124348167E0,-2.550769132E-3,1.113520004E-3,2.976539545E-3,4.075062898E-3
9.134305167E0,-2.127517946E-4,-1.199458726E-3,-2.152082510E-3,2.472938271E-3
9.144261167E0,3.763241693E-6,-1.296930946E-3,-2.689241897E-3,2.985643318E-3
9.154218167E0,2.349101007E-3,1.001839526E-3,3.747781739E-4,2.581165755E-3
9.164175167E0,3.374880180E-5,7.887864485E-4,2.896524966E-3,3.002195850E-3
9.174132167E0,7.658818504E-4,1.207331195E-3,4.238849506E-3,4.473485080E-3
9.184089167E0,1.446319511E-3,-2.163946629E-4,8.233459666E-4,1.678262601E-3
9.194046167E0,-6.494228728E-4,9.258305654E-4,-6.860503927E-4,1.322715935E-3
9.204003167E0,-4.787142389E-4,-2.403678373E-4,5.190297961E-4,7.458793126E-4
9.213960167E0,-8.072976489E-4,-7.725553587E-4,-7.534595206E-4,1.347691554E-3
9.223917167E0,-7.175491191E-4,-2.873789519E-3,-1.175038517E-3,3.186574721E-3
9.233873167E0,1.387911034E-3,-4.606582224E-4,1.657517627E-3,2.210399900E-3
9.243830167E0,1.864883234E-3,-4.641199484E-4,3.473793156E-3,3.969941523E-3
9.253787167E0,2.052995842E-3,5.245525390E-4,6.401557475E-4,2.213537141E-3
9.263744167E0,3.094824497E-3,-7.907832041E-4,1.303016208E-3,3.449801151E-3
9.273701167E0,-8.176439442E-4,-1.095005311E-3,-1.674062572E-3,2.161033028E-3
9.283658167E0,-6.618490443E-4,-8.465331048E-4,-4.775039852E-4,1.175870958E-3
9.293615167E0,1.581154182E-3,-5.399808288E-5,1.610640436E-3,2.257681766E-3
9.303572167E0,-5.586957559E-4,5.657188594E-4,9.475126863E-4,1.236915141E-3
9.313528167E0,5.948643666E-4,-8.534239605E-4,1.157815568E-3,1.556513078E-3
9.323485167E0,-1.673323568E-4,1.175905578E-3,-1.620464027E-4,1.198754805E-3
9.333442167E0,8.990241913E-4,-2.165408805E-3,8.708070964E-4,2.501108712E-3
9.343399167E0,6.353713106E-4,7.028160617E-4,2.747913823E-4,9.864874164E-4
9.353356167E0,8.456711657E-5,-1.073237509E-3,-2.840278205E-3,3.037461214E-3
9.363313167E0,-6.973368581E-4,6.173364818E-4,-1.508165151E-3,1.772553285E-3
9.373270167E0,-5.283467472E-4,1.106244512E-3,1.169817522E-3,1.694520652E-3
9.383227167E0,-1.751270378E-3,-4.881899804E-4,3.105136566E-3,3.598214903E-3
9.393184167E0,9.836909594E-4,1.452240162E-3,1.779177226E-3,2.498423702E-3
9.403140167E0,1.949353144E-3,-2.347558737E-3,1.173041761E-3,3.269103344E-3
9.413097167E0,-2.407845808E-3,6.474414840E-4,5.679810420E-4,2.557245466E-3
9.423054167E0,2.922737505E-3,5.086883903E-6,-2.649916802E-3,3.945184337E-3
9.433011167E0,8.552480722E-4,-1.507103443E-4,-1.303534955E-3,1.566322525E-3
9.442968167E0,-1.068353187E-3,2.284217626E-3,2.232077532E-3,3.367669640E-3
9.452925167E0,9.654929163E-4,-4.193847999E-4,3.168262541E-3,3.338554734E-3
9.462882167E0,-1.389540266E-3,-2.603605390E-5,2.682236023E-3,3.020908822E-3
9.472839167E0,-3.428733908E-5,5.116667598E-4,2.470314503E-3,2.522980824E-3
9.482795167E0,-2.553297672E-4,1.376128756E-3,1.563241705E-3,2.098248858E-3
9.492752167E0,1.666312106E-3,-1.574618742E-3,-1.583724283E-3,2.786431916E-3
9.502709167E0,1.829297515E-3,1.473808661E-4,-2.740068827E-3,3.297882304E-3
9.512666167E0,1.357770409E-3,-1.353479922E-3,-3.344824538E-3,3.855295004E-3
9.522623167E0,6.376516540E-4,-3.401478752E-4,1.452061348E-3,1.621968670E-3
9.532580167E0,9.610968409E-4,-7.642433047E-5,-9.365314618E-4,1.344112717E-3
9.542537167E0,1.387469005E-3,-9.475443512E-4,-1.173286699E-3,2.049271142E-3
9.552494167E0,3.121331800E-3,1.714006066E-5,1.592637971E-3,3.504211993E-3
9.562451167E0,7.796144346E-4,4.815952852E-4,-1.851095818E-3,2.065499555E-3
9.572407167E0,-1.064487034E-3,3.189397976E-4,-3.180828411E-3,3.369350772E-3
9.582364167E0,1.148866257E-3,-7.174536586E-5,3.859438002E-4,1.214081418E-3
9.592321167E0,5.515828962E-4,1.019211486E-4,2.586882561E-3,2.646996977E-3
9.602278167E0,-1.184531720E-3,4.409421235E-4,1.978617162E-3,2.347865248E-3
9.612235167E0,-1.520181773E-3,-1.762080006E-3,1.517691649E-3,2.778356801E-3
9.622192167E0,8.452379843E-4,-9.174551815E-5,1.275213435E-4,8.597128493E-4
9.632149167E0,9.803287685E-4,8.577480912E-6,-6.544524804E-4,1.178739206E-3
9.642106167E0,-7.721246220E-5,5.281595513E-4,-4.582881462E-3,4.613861373E-3
9.652062167E0,1.286231680E-3,-3.472249955E-5,-1.807034016E-3,2.218325837E-3
9.662019167E0,-1.432589488E-3,-1.293066889E-3,2.361345105E-3,3.049636917E-3
9.671976167E0,8.979121922E-4,-2.553146333E-3,1.016713679E-3,2.891108646E-3
9.681933167E0,-2.018515486E-3,-1.221566461E-3,2.921139821E-3,3.754955025E-3
9.691890167E0,-6.357980892E-4,1.427772455E-3,1.799507067E-3,2.383484650E-3
9.701847167E0,4.273358500E-4,-3.525502980E-4,1.005352475E-3,1.147885552E-3
9.711804167E0,-2.347002737E-5,1.887023449E-3,-2.939714119E-3,3.493326128E-3
9.721761167E0,-2.358796075E-3,-1.433406025E-3,-1.736763865E-3,3.261122579E-3
9.731717167E0,-7.864108775E-4,2.454733476E-4,1.513144933E-3,1.722877483E-3
9.741674167E0,-1.424583606E-4,-7.090996951E-5,4.143282771E-3,4.146337508E-3
9.751631167E0,-8.923166897E-4,8.526127785E-4,7.363511249E-4,1.437146688E-3
9.761588167E0,2.030502539E-3,-1.327572390E-4,2.732276917E-4,2.053099710E-3
9.771545167E0,4.546565469E-4,3.700712696E-4,-1.691402867E-4,6.101424070E-4
9.781502167E0,1.232299488E-3,-7.254630327E-5,-9.800735861E-4,1.576188196E-3
9.791459167E0,-7.323441096E-4,-2.109780908E-3,-3.492856864E-3,4.145787313E-3
9.801416167E0,-3.573710565E-4,2.684220672E-4,-7.873512805E-4,9.053654052E-4
9.811373167E0,4.932839656E-4,-1.170852222E-3,1.180124469E-3,1.734046642E-3
9.821329417E0,-3.069958184E-4,2.598320134E-3,1.324201934E-3,2.932409370E-3
9.831286417E0,-6.785455626E-4,-1.597149298E-3,-7.423581555E-4,1.887433599E-3
9.841243417E0,1.760626910E-4,-1.602475531E-3,7.399572060E-4,1.773827096E-3
9.851200417E0,-5.873127375E-4,2.038261853E-3,-1.692168415E-3,2.713463023E-3
9.861157417E0,1.433760161E-3,-2.163704485E-4,-8.255755529E-4,1.668550078E-3
9.871114417E0,1.979244174E-3,-1.348503865E-3,-2.009484917E-3,3.126323689E-3
9.881071417E0,4.871864803E-5,4.994636402E-4,3.196994774E-3,3.236141687E-3
9.891028417E0,-5.015089642E-3,-4.709511995E-4,1.047256403E-3,5.144867843E-3
9.900985417E0,-5.700075999E-4,-2.403074875E-3,2.364988439E-3,3.419480638E-3
9.910941417E0,-5.584664177E-4,1.347400248E-3,3.383847885E-3,3.684806464E-3
9.920898417E0,8.873636834E-4,2.269120887E-3,-4.780022427E-4,2.482903552E-3
9.930855417E0,1.061521005E-3,-6.381869316E-4,-7.079448551E-4,1.426637768E-3
9.940812417E0,1.370447688E-3,-2.107499167E-4,-1.706363633E-3,2.198685799E-3
9.950769417E0,7.723954041E-4,1.592354849E-3,-1.686709002E-4,1.777818466E-3
9.960726417E0,-9.020254947E-5,-7.738638669E-4,-5.958415568E-4,9.808307424E-4
9.970683417E0,-1.859422773E-4,-1.069803722E-3,7.311766967E-4,1.309073679E-3
9.980640417E0,1.033255830E-5,-1.183521003E-3,7.993541658E-4,1.428214202E-3
9.990596417E0,1.335395500E-3,-2.711701207E-3,-3.263673745E-3,4.448389696E-3
1.000055342E1,-1.000196673E-3,-8.368352428E-4,-2.763532102E-3,3.055780798E-3
1.001051042E1,-1.327852951E-3,1.153981313E-3,-1.477539539E-3,2.297387521E-3
1.002046742E1,1.266332227E-3,2.405168489E-4,2.336905338E-3,2.668814760E-3
1.003042442E1,-2.609648742E-3,-6.932262331E-4,4.075430334E-3,4.888758694E-3
1.004038142E1,-1.419215696E-3,-2.336928621E-3,-4.812385887E-4,2.776148258E-3
1.005033842E1,-3.977949731E-3,-1.311104745E-3,1.097182743E-3,4.329767856E-3
1.006029542E1,-1.276971772E-3,1.623165794E-3,1.573355868E-3,2.596299827E-3
1.007025242E1,-5.716113374E-4,-1.253916882E-3,-2.192690969E-3,2.589776197E-3
1.008020842E1,-1.776159042E-3,-8.264798671E-4,-2.586306073E-3,3.244501351E-3
1.009016542E1,2.241248731E-4,2.401295118E-3,1.197282225E-3,2.692570320E-3
1.010012242E1,-1.574574038E-3,-6.442954764E-4,3.457507119E-3,3.853408302E-3
1.011007942E1,-2.655640710E-4,3.425590694E-5,1.356837340E-3,1.383005896E-3
1.012003642E1,2.517173067E-3,-2.461746335E-4,1.982945949E-3,3.213850780E-3
1.012999342E1,-2.751988824E-3,-1.364728436E-3,-3.932779655E-4,3.096868378E-3
1.013995042E1,2.127987565E-3,-2.524267882E-3,2.815667540E-4,3.313538781E-3
1.014990742E1,-1.389117679E-3,-2.233767882E-3,-2.295991872E-3,3.491553458E-3
1.015986342E1,-1.409091288E-3,-9.706299752E-4,1.342951320E-3,2.175127365E-3
1.016982042E1,-5.520631094E-4,2.018045634E-4,-2.344338689E-3,2.416903525E-3
1.017977742E1,-9.981426410E-4,2.327805385E-3,-1.947794110E-3,3.195132006E-3
1.018973442E1,1.591070322E-3,-2.058973536E-3,1.332290471E-3,2.923332805E-3
1.019969142E1,-8.949905168E-4,-6.280569360E-4,2.068920992E-3,2.340063592E-3
1.020964842E1,6.313234335E-4,-8.797002956E-4,-1.105844975E-3,1.547686982E-3
1.021960542E1,-2.397967037E-4,6.063440815E-4,-1.670967788E-3,1.793680281E-3
1.022956242E1,-6.641028449E-5,-1.388915814E-3,-1.282090321E-3,1.891362751E-3
1.023951942E1,-1.527154120E-3,1.674359664E-4,1.366956159E-3,2.056405517E-3
1.024947542E1,-1.064626966E-3,1.694476232E-4,2.312350087E-3,2.551294965E-3
1.025943242E1,-7.008390967E-4,1.942314208E-3,1.938441768E-3,2.832192862E-3
1.026938942E1,-3.110125661E-3,1.328169368E-3,1.175595447E-3,3.580354752E-3
1.027934642E1,-3.537537996E-4,-2.361640334E-3,-4.575501196E-3,5.161172155E-3
1.028930342E1,2.363737440E-3,-3.771390766E-5,-2.051635180E-3,3.130157174E-3
1.029926042E1,-2.045392059E-3,2.744086087E-4,8.890274912E-4,2.247064449E-3
1.030921742E1,-3.077136353E-4,-8.451957256E-4,1.425193623E-3,1.685295333E-3
1.031917442E1,-6.608488038E-4,-2.268655226E-3,-2.389784902E-3,3.360742411E-3
1.032913042E1,3.199838102E-4,-1.443722285E-3,1.516563818E-3,2.118180703E-3
1.033908742E1,4.834146239E-5,5.949269980E-4,2.433061600E-4,6.445718869E-4
1.034904442E1,-1.489246730E-3,-1.307629980E-3,2.365969121E-4,1.995928377E-3
1.035900142E1,5.960083799E-4,1.853378490E-4,-3.604746889E-3,3.658384376E-3
1.036895842E1,2.013811609E-3,-7.058661431E-4,-1.047151163E-3,2.377016989E-3