"Time (s)","Gyroscope x (rad/s)","Gyroscope y (rad/s)","Gyroscope z (rad/s)","Absolute (rad/s)"
5.202583332E-3,-1.578173600E-3,-1.807405613E-3,1.938317902E-2,1.953112839E-2
1.515858333E-2,-3.166343085E-4,-2.284377813E-3,2.206764370E-2,2.218782409E-2
2.511558333E-2,3.033890389E-3,-3.829617053E-4,1.980371401E-2,2.003841908E-2
3.507258333E-2,-1.339397859E-4,3.648642451E-5,1.992488652E-2,1.992537011E-2
4.502958333E-2,-8.844607510E-5,-2.228058875E-4,2.153301984E-2,2.153435415E-2
5.498658333E-2,-3.832578659E-4,1.510645263E-3,1.827837154E-2,1.834469411E-2
6.494358333E-2,-1.058365451E-3,3.764377907E-4,1.895787194E-2,1.899112297E-2
7.490058333E-2,-7.353241090E-4,1.138634980E-3,1.857144758E-2,1.862084468E-2
8.485758333E-2,-3.141302150E-4,-1.480495557E-4,1.831332222E-2,1.831661451E-2
9.481458333E-2,-6.430305075E-4,6.676772609E-4,1.731730066E-2,1.734209282E-2
1.047715833E-1,-2.989160828E-3,-1.683440059E-3,1.438289229E-2,1.478636681E-2
1.147285833E-1,1.610917156E-3,3.030337393E-5,1.746230572E-2,1.753647894E-2
1.246855833E-1,-1.901740907E-4,6.561409682E-4,1.506680343E-2,1.508228275E-2
1.346425833E-1,6.644342793E-4,3.943527117E-4,1.705245674E-2,1.706995219E-2
1.445995833E-1,-2.070377115E-3,5.747312680E-4,1.982839778E-2,1.994447633E-2
1.545565833E-1,-2.362526022E-3,6.397124380E-4,1.728188433E-2,1.745434866E-2
1.645125833E-1,-1.530479640E-3,1.015818678E-3,1.833215356E-2,1.842395478E-2
1.744695833E-1,-9.861295111E-4,4.480857868E-3,1.984802261E-2,2.037141478E-2
1.844265833E-1,-1.632450148E-4,2.469581552E-3,1.813552901E-2,1.830363064E-2
1.943835833E-1,5.092032952E-4,1.646159217E-4,1.751314476E-2,1.752131918E-2
2.043405833E-1,-1.162658678E-3,1.498031430E-3,1.741700061E-2,1.751992533E-2
2.142975833E-1,-5.389463622E-4,8.847052231E-4,1.457221061E-2,1.460898657E-2
2.242545833E-1,-2.204901539E-4,1.116040163E-3,1.463751495E-2,1.468165540E-2
2.342115833E-1,-3.347396851E-4,-1.131934114E-3,1.698455773E-2,1.702552574E-2
2.441685833E-1,3.118305467E-4,5.972795188E-4,1.622105204E-2,1.623503958E-2
2.541255833E-1,5.025127903E-4,6.798375398E-4,1.688764244E-2,1.690878959E-2
2.640825833E-1,4.889251431E-4,1.708474010E-3,1.606973819E-2,1.616769671E-2
2.740395833E-1,5.781410728E-4,-1.404494978E-3,1.574456505E-2,1.581765412E-2
2.839965833E-1,3.075077664E-3,4.705535248E-4,1.658281498E-2,1.687208570E-2
2.939535833E-1,-6.722564576E-4,-2.204858698E-3,1.717510261E-2,1.732909346E-2
3.039105833E-1,-1.031480264E-3,6.814347580E-4,1.674553379E-2,1.679110499E-2
3.138665833E-1,7.427175296E-4,2.950103953E-4,1.804728433E-2,1.806496976E-2
3.238235833E-1,-2.539395820E-3,7.616765797E-4,1.436221693E-2,1.460486075E-2
3.337805833E-1,-1.157481689E-3,-1.129700802E-3,1.489298511E-2,1.498055384E-2
3.437375833E-1,-6.023023743E-4,-9.896950796E-4,1.648048498E-2,1.652115763E-2
3.536945833E-1,-6.727327127E-5,-1.266663894E-3,1.417951286E-2,1.423613529E-2
3.636515833E-1,6.537564332E-4,-2.763718367E-4,1.627085917E-2,1.628633283E-2
3.736085833E-1,-1.775579061E-3,-2.638548613E-4,1.681441255E-2,1.690996067E-2
3.835653750E-1,-5.314542213E-4,2.858871594E-4,1.291746274E-2,1.293155128E-2
3.935223750E-1,7.228448521E-5,1.895501278E-3,1.373851672E-2,1.386884969E-2
4.034793750E-1,-1.699541463E-4,-1.587280072E-3,1.396169886E-2,1.405266443E-2
4.134363750E-1,1.672686893E-3,2.108868212E-4,1.403813064E-2,1.413900515E-2
4.233933750E-1,7.496161852E-4,-1.957314089E-4,1.277194824E-2,1.279542485E-2
4.333503750E-1,-2.160459990E-4,3.515481949E-4,1.446491946E-2,1.447080360E-2
4.433073750E-1,-5.577851553E-4,2.102609724E-3,1.325718127E-2,1.343446862E-2
4.532643750E-1,-4.102459643E-4,8.141724393E-4,1.605882868E-2,1.608468704E-2
4.632203750E-1,1.577937976E-3,1.772336662E-3,1.599241234E-2,1.616750810E-2
4.731773750E-1,2.009902615E-3,1.845601946E-4,1.506722905E-2,1.520181444E-2
4.831343750E-1,1.990734600E-3,-2.488596365E-4,1.682789251E-2,1.694706233E-2
4.930913750E-1,1.651447848E-3,3.817770630E-4,1.680259407E-2,1.688787142E-2
5.030483750E-1,1.312444103E-3,-7.863594219E-4,1.724065840E-2,1.730841335E-2
5.130053750E-1,-6.811982021E-4,6.958097219E-5,1.647872478E-2,1.649294524E-2
5.229623750E-1,7.361022290E-5,3.898655996E-4,1.463311352E-2,1.463849121E-2
5.329193750E-1,2.513332060E-3,2.503616735E-3,1.608986221E-2,1.647630422E-2
5.428763750E-1,-5.687500816E-4,-2.562493086E-3,1.532826200E-2,1.555138140E-2
5.528333750E-1,-4.302656744E-4,7.819039747E-4,1.802471280E-2,1.804679401E-2
5.627903750E-1,7.515879115E-4,-2.072755247E-3,1.403813064E-2,1.421021853E-2
5.727473750E-1,-9.725426789E-4,1.693600789E-4,1.632924750E-2,1.635906006E-2
5.827043750E-1,1.267873798E-3,-7.739020512E-4,1.642720029E-2,1.649422134E-2
5.926613750E-1,-2.266922966E-4,-1.058860682E-3,1.736250147E-2,1.739623617E-2
6.026183750E-1,-2.805234399E-4,-2.909079194E-4,1.553304307E-2,1.553829939E-2
6.125743750E-1,-8.203461766E-4,1.598604955E-3,1.347574964E-2,1.359501137E-2
6.225313750E-1,-3.679341171E-5,2.591446973E-3,1.279703528E-2,1.305683970E-2
6.324883750E-1,8.266034420E-4,5.123177543E-4,1.092030481E-2,1.096352132E-2
6.424453750E-1,-1.893628738E-3,7.476992905E-4,1.049311087E-2,1.068879131E-2
6.524023750E-1,1.747711329E-3,1.636928879E-3,1.507801004E-2,1.526697147E-2
6.623593750E-1,-1.797828590E-4,-1.442236826E-4,1.090245880E-2,1.090489479E-2
6.723163750E-1,8.839741349E-5,3.071818501E-4,1.616992429E-2,1.617308339E-2
6.822733750E-1,-1.286164625E-4,1.457670704E-3,1.481508650E-2,1.488718019E-2
6.922303750E-1,8.884447743E-4,1.129569486E-3,1.542574726E-2,1.549254465E-2
7.021873750E-1,-1.149064978E-3,1.728816889E-3,1.311424561E-2,1.327752221E-2
7.121443750E-1,-4.313166719E-3,1.305374317E-3,1.436992548E-2,1.505995245E-2
7.221013750E-1,-1.825780142E-3,1.554013230E-3,1.352146082E-2,1.373238264E-2
7.320583750E-1,-4.670354538E-4,-4.958212376E-4,1.298057288E-2,1.299843195E-2
7.420153750E-1,1.496059122E-4,-2.008478157E-3,1.218147576E-2,1.234685053E-2
7.519723750E-1,-3.337578382E-4,1.640851609E-3,1.555357128E-2,1.564344489E-2
7.619283750E-1,-4.823105410E-4,9.094635025E-4,1.479548775E-2,1.483125770E-2
7.718853750E-1,-3.888336942E-4,-8.322438225E-4,1.515261643E-2,1.518043497E-2
7.818423750E-1,-4.286431940E-4,-7.263617590E-4,1.423108950E-2,1.425605993E-2
7.917993750E-1,-4.313063109E-4,-1.093611121E-3,1.132691279E-2,1.138775499E-2
8.017563750E-1,2.535542939E-3,3.653569147E-4,1.302126423E-2,1.327086228E-2
8.117133750E-1,-8.306925884E-4,-3.065541387E-5,1.405883208E-2,1.408338558E-2
8.216703750E-1,-8.827435086E-4,-1.435987651E-3,1.306585595E-2,1.317413710E-2
8.316273750E-1,-2.474781126E-3,7.030628622E-4,1.105437055E-2,1.134979944E-2
8.415843750E-1,-8.097949903E-4,-2.318848856E-3,1.291250437E-2,1.314403276E-2
8.515413750E-1,1.387312892E-3,3.107571974E-4,1.260064915E-2,1.268059802E-2
8.614983750E-1,-4.805778153E-4,-7.182080299E-4,1.423850656E-2,1.426470633E-2
8.714553750E-1,2.566078445E-3,-5.538910627E-4,1.150530390E-2,1.180099876E-2
8.814123750E-1,2.768685808E-4,5.010701716E-5,1.215201430E-2,1.215527122E-2
8.913693750E-1,1.292331843E-3,7.638335228E-4,1.376429200E-2,1.384591267E-2
9.013263750E-1,2.647123765E-4,1.074588858E-3,1.592756063E-2,1.596596384E-2
9.112833750E-1,-5.632643588E-4,2.988101915E-4,1.671132818E-2,1.672348779E-2
9.212393750E-1,-1.281340490E-3,2.848234028E-3,1.040389389E-2,1.086256317E-2
9.311963750E-1,8.555799723E-4,-1.310436055E-4,1.300074160E-2,1.302952308E-2
9.411533750E-1,2.059481107E-3,6.051473320E-4,1.158286072E-2,1.178008184E-2
9.511103750E-1,-4.106007982E-4,2.359105274E-3,1.158179529E-2,1.182674735E-2
9.610673750E-1,1.997265499E-3,-7.383525372E-6,1.115830615E-2,1.133564820E-2
9.710243750E-1,1.399769681E-4,9.191306308E-4,1.316286810E-2,1.319566183E-2
9.809813750E-1,2.016730141E-4,-1.751953736E-3,1.434162445E-2,1.444964380E-2
9.909383750E-1,1.065336168E-3,-4.664463922E-4,1.457065530E-2,1.461699385E-2
1.000895375E0,2.674013376E-5,-1.001106575E-4,1.355515979E-2,1.355555584E-2
1.010852375E0,5.236859433E-4,2.754531801E-3,1.339483820E-2,1.368515191E-2
1.020809375E0,-8.212088142E-5,-6.375676021E-4,8.448217064E-3,8.472638777E-3
1.030766375E0,-2.027560025E-3,-1.011208631E-3,8.766464889E-3,9.054526448E-3
1.040723375E0,-2.125090919E-3,-5.034357309E-5,1.190822199E-2,1.209645803E-2
1.050680375E0,9.370115586E-4,-9.947009385E-4,1.036518626E-2,1.045487957E-2
1.060637375E0,-1.782566076E-3,1.419837587E-3,9.017299861E-3,9.300815952E-3
1.070593375E0,1.913689775E-4,1.624369062E-3,1.244984753E-2,1.255682685E-2
1.080550375E0,-1.061351621E-3,1.283940859E-3,1.127807051E-2,1.140043183E-2
1.090507375E0,1.953941537E-4,2.333242446E-4,1.080083102E-2,1.080511776E-2
1.100464375E0,2.973635215E-3,-6.127720699E-4,1.485482231E-2,1.516191748E-2
1.110421375E0,1.720351633E-3,-2.248219214E-3,1.167207956E-2,1.201047629E-2
1.120378375E0,6.480268203E-4,1.500565559E-3,1.481498592E-2,1.490487985E-2
1.130335375E0,-2.102485858E-3,9.535523131E-4,1.398221217E-2,1.417151954E-2
1.140292375E0,-3.150758101E-3,9.746691212E-4,1.034430042E-2,1.085733889E-2
1.150249375E0,2.431744942E-4,-3.840755671E-4,1.287803426E-2,1.288605504E-2
1.160206375E0,-2.007181756E-4,-7.814913988E-4,9.569477290E-3,9.603432313E-3
1.170163375E0,-1.847390085E-4,-7.585883141E-4,1.032714546E-2,1.035661711E-2
1.180120375E0,1.909141894E-3,-1.385330223E-3,1.128037460E-2,1.152435741E-2
1.190077375E0,-1.158553408E-3,-2.018213272E-4,1.053788513E-2,1.060330141E-2
1.200034375E0,-2.941909712E-3,-2.653440461E-4,1.543679647E-2,1.571686755E-2
1.209991375E0,-2.034038072E-3,2.640697174E-3,1.134698093E-2,1.182643516E-2
1.219947375E0,9.644745151E-4,-5.631679669E-4,1.279750466E-2,1.284614708E-2
1.229904375E0,1.814022893E-3,-6.995219737E-4,1.169575565E-2,1.185625194E-2
1.239861375E0,-2.979283454E-4,-9.074462578E-4,1.192433201E-2,1.196252122E-2
1.249818375E0,2.821698552E-3,-2.003869042E-3,1.155415177E-2,1.206133894E-2
1.259775375E0,-4.271698417E-4,1.782965846E-3,1.376134157E-2,1.388293784E-2
1.269732375E0,1.636247383E-3,-1.076470129E-3,1.306306198E-2,1.320907574E-2
1.279689375E0,-7.850255352E-4,1.564581878E-3,1.046995819E-2,1.061528172E-2
1.289646375E0,5.335055757E-4,1.349970698E-4,1.037887856E-2,1.039345817E-2
1.299603375E0,-2.338871825E-3,-2.140747383E-3,1.098976657E-2,1.143801075E-2
1.309560375E0,9.839541744E-4,2.555651590E-4,9.731689468E-3,9.784644054E-3
1.319517375E0,-2.673219424E-3,1.610652544E-3,1.137963496E-2,1.179984727E-2
1.329474375E0,-1.448141411E-4,8.844081312E-4,8.368663490E-3,8.416512192E-3
1.339431375E0,-2.222837880E-3,-1.997015439E-3,1.103437692E-2,1.143182194E-2
1.349388375E0,2.060324419E-3,-2.346687950E-3,1.041039824E-2,1.086868312E-2
1.359345375E0,1.636409317E-3,-1.620820723E-3,9.030647576E-3,9.319736633E-3
1.369301375E0,-4.937162157E-5,3.824084997E-4,1.070045121E-2,1.070739604E-2
1.379258375E0,2.011002507E-4,1.653647050E-4,1.239662431E-2,1.239935809E-2
1.389215750E0,2.231494291E-3,-5.009574816E-4,1.148209535E-2,1.170764873E-2
1.399172750E0,-1.048301347E-3,1.158544794E-3,1.216495596E-2,1.226488138E-2
1.409129750E0,-1.603836892E-3,1.428322867E-3,1.223659329E-2,1.242363129E-2
1.419086750E0,-6.660565268E-4,7.748296484E-4,1.363004744E-2,1.366829124E-2
1.429043750E0,-6.921554450E-4,1.172971912E-3,1.147608273E-2,1.155661789E-2
1.439000750E0,2.537586261E-3,-1.453613862E-3,1.254237071E-2,1.287879654E-2
1.448957750E0,8.608601638E-4,-3.103185445E-4,1.095299609E-2,1.099115559E-2
1.458914750E0,5.465844879E-4,4.416154698E-4,1.281044260E-2,1.282970063E-2
1.468871750E0,6.877320120E-4,-7.224520668E-4,1.045381278E-2,1.050129106E-2
1.478828750E0,-2.022081520E-3,1.782210544E-3,1.066664793E-2,1.100193011E-2
1.488785750E0,2.461083699E-3,-1.288414001E-3,1.304192096E-2,1.333449084E-2
1.498742750E0,-2.048665425E-3,2.132330090E-3,9.551100433E-3,9.998368923E-3
1.508699750E0,8.629686199E-4,1.332582906E-3,9.258951992E-3,9.394077072E-3
1.518655750E0,-3.318816889E-4,1.029425301E-3,9.898686782E-3,9.957603221E-3
1.528612750E0,1.500905724E-3,9.034583345E-4,9.668322280E-3,9.825752422E-3
1.538569750E0,4.196176305E-4,-6.939750165E-5,1.188488677E-2,1.189249463E-2
1.548526750E0,-7.548362482E-4,5.516512319E-4,1.185505837E-2,1.189186721E-2
1.558483750E0,-1.358255278E-3,3.626551479E-4,9.968003258E-3,1.006665114E-2
1.568440750E0,-2.096749842E-3,2.497977577E-3,1.217256859E-2,1.260189184E-2
1.578397750E0,5.803237436E-4,5.371728912E-4,1.213918999E-2,1.216491940E-2
1.588354750E0,-5.491228076E-4,8.375775069E-4,1.251602545E-2,1.255603302E-2
1.598311750E0,-2.075874945E-4,2.555253915E-3,1.147277094E-2,1.175571726E-2
1.608268750E0,-1.834246214E-3,1.083416864E-4,1.035237685E-2,1.051417631E-2
1.618225750E0,-6.079312880E-4,6.494326517E-4,8.868450299E-3,8.912954276E-3
1.628182750E0,-3.525339998E-4,-2.805432305E-4,9.331839159E-3,9.342708752E-3
1.638139750E0,-1.643931610E-3,8.683521301E-4,1.155203953E-2,1.170069075E-2
1.648096750E0,-2.013578545E-3,2.888478339E-4,1.255711541E-2,1.272081283E-2
1.658053750E0,-7.940013893E-5,8.618533611E-4,1.140934974E-2,1.144213079E-2
1.668009750E0,-2.679977100E-3,1.709815115E-5,1.128471643E-2,1.159859450E-2
1.677966750E0,9.476841078E-4,1.414387487E-3,9.323775768E-3,9.477942377E-3
1.687923750E0,4.806835204E-5,1.842889935E-3,8.566640317E-3,8.762755286E-3
1.697880750E0,-1.716860570E-3,-6.962697953E-4,7.908111438E-3,8.122230504E-3
1.707837750E0,6.320475368E-4,-6.936062127E-4,5.500614643E-3,5.580083791E-3
1.717794750E0,-2.655336633E-3,9.169057012E-5,8.201679215E-3,8.621296987E-3
1.727751750E0,-1.774895703E-3,4.317760468E-4,1.016389579E-2,1.032673534E-2
1.737708750E0,-7.102241507E-4,-6.600311026E-4,8.478205651E-3,8.533465326E-3
1.747665750E0,-2.160315402E-3,-1.229681075E-3,7.987918332E-3,8.365758630E-3
1.757622750E0,-4.796041176E-4,-1.325299963E-3,1.034359261E-2,1.043917373E-2
1.767579750E0,8.035069332E-4,1.140787266E-3,9.582459927E-3,9.683519878E-3
1.777536750E0,-4.973364994E-4,-1.957055181E-3,1.175957173E-2,1.193167783E-2
1.787493750E0,-6.030639634E-4,-4.984419793E-4,1.099630818E-2,1.102410650E-2
1.797450750E0,2.099969424E-3,-2.582377754E-3,1.251124591E-2,1.294642115E-2
1.807407750E0,-1.541370759E-3,-6.742225960E-4,1.145823300E-2,1.158108386E-2
1.817364750E0,-9.111758554E-4,-2.126023173E-5,1.133640483E-2,1.137298413E-2
1.827320750E0,-1.636265079E-4,1.678243279E-4,1.091695577E-2,1.091947169E-2
1.837277750E0,1.315581147E-3,-2.717208117E-4,1.233884878E-2,1.241175956E-2
1.847234750E0,5.890708417E-4,2.016127110E-5,1.114761643E-2,1.116318785E-2
1.857191750E0,-1.245026710E-3,-5.617924035E-5,1.108177379E-2,1.115163476E-2
1.867148750E0,-1.380848000E-3,2.807108685E-4,1.067484543E-2,1.076744467E-2
1.877105750E0,-1.869178843E-3,3.371783532E-3,1.090360433E-2,1.156509149E-2
1.887062750E0,9.444507887E-4,-1.046933234E-3,9.703585878E-3,9.805490063E-3
1.897019750E0,-2.989098430E-3,-2.405418083E-3,1.032387838E-2,1.101377366E-2
1.906976750E0,2.461327007E-3,-1.030427404E-3,1.049778238E-2,1.083159020E-2
1.916933750E0,1.839056495E-3,-1.592335291E-3,1.045859791E-2,1.073778053E-2
1.926890750E0,-2.438017400E-4,-1.493798569E-3,1.073024049E-2,1.083646319E-2
1.936847750E0,-3.278130665E-3,1.157111488E-3,9.898854420E-3,1.049153785E-2
1.946804750E0,-1.455463236E-3,-2.961754799E-4,1.420465298E-2,1.428209576E-2
1.956761750E0,2.025886904E-3,1.419903710E-4,8.638838306E-3,8.874339767E-3
1.966717750E0,4.634103971E-4,-3.126105294E-4,7.397806272E-3,7.418895617E-3
1.976674750E0,-1.648265054E-3,-1.464148052E-3,1.147267781E-2,1.168258719E-2
1.986631750E0,-1.546266139E-3,-1.562418416E-3,9.318444878E-3,9.574210423E-3
1.996588750E0,3.405966330E-3,-1.744051464E-3,9.592892602E-3,1.032791899E-2
2.006545750E0,-2.654322889E-3,6.343610585E-5,8.457053453E-3,8.864040119E-3
2.016502750E0,2.977703232E-3,-7.114177570E-4,8.975222707E-3,9.483008721E-3
2.026459750E0,1.853787107E-4,2.108355984E-4,8.201573044E-3,8.206376625E-3
2.036416750E0,2.662850311E-4,9.908555076E-4,1.069854945E-2,1.074763521E-2
2.046373750E0,-1.111101825E-3,2.972129732E-5,1.083969697E-2,1.089653436E-2
2.056330750E0,-2.291623969E-5,8.787503466E-4,1.186458208E-2,1.189710197E-2
2.066287750E0,7.494004676E-4,-9.146220982E-4,1.070051454E-2,1.076564657E-2
2.076244750E0,6.917783758E-4,7.286947221E-4,1.145924255E-2,1.150320795E-2
2.086201750E0,-6.480580196E-4,-2.420274541E-4,1.214740425E-2,1.216708620E-2
2.096158750E0,3.905511694E-4,-6.014471874E-4,8.550316095E-3,8.580336489E-3
2.106115750E0,1.268329099E-3,1.149848104E-3,9.608123451E-3,9.759449043E-3
2.116071750E0,2.348554553E-4,-1.297122799E-3,1.038652845E-2,1.046984517E-2
2.126028750E0,6.473790854E-4,-2.643616870E-3,9.924471378E-3,1.029091551E-2
2.135985750E0,-1.867571729E-3,-1.880196854E-3,1.187060773E-2,1.216282419E-2
2.145942750E0,3.471130040E-4,-2.721489407E-3,9.469769895E-3,9.859185255E-3
2.155899750E0,-1.228365116E-3,-3.707371652E-4,9.261809289E-3,9.350264072E-3
2.165856750E0,-6.480622105E-4,-4.849489778E-5,9.902298450E-3,9.923600707E-3
2.175813750E0,6.654794561E-4,5.399370566E-4,8.464271203E-3,8.507542649E-3
2.185770750E0,2.898403909E-5,1.189215109E-3,9.777475148E-3,9.849573236E-3
2.195727750E0,-1.366899116E-3,2.256722189E-3,1.061332412E-2,1.093635484E-2
2.205684750E0,2.173507120E-3,-1.867283136E-4,9.423157200E-3,9.672377799E-3
2.215641750E0,4.765868653E-5,2.841502428E-4,1.008978672E-2,1.009389958E-2
2.225598750E0,9.470081422E-4,3.407988697E-5,7.935289294E-3,7.991670791E-3
2.235555750E0,5.659996532E-5,-4.798267037E-5,8.126290515E-3,8.126629278E-3
2.245512750E0,-7.549289148E-5,1.341775060E-4,8.747871965E-3,8.749226634E-3
2.255469750E0,-2.806558041E-4,-1.729503274E-4,1.146211661E-2,1.146685645E-2
2.265425750E0,-2.926506568E-3,-1.050462015E-3,1.187517308E-2,1.227548967E-2
2.275382750E0,2.574077807E-4,-7.671471685E-4,8.993368596E-3,9.029698347E-3
2.285339750E0,-1.098673907E-3,-1.297648996E-3,7.054055110E-3,7.256078194E-3
2.295296750E0,-3.477369901E-4,1.055003144E-3,1.151008159E-2,1.156356047E-2
2.305253750E0,1.288775471E-3,-1.088841818E-3,8.779542521E-3,8.940183756E-3
2.315210750E0,-9.513912955E-4,-1.704801805E-3,9.261954576E-3,9.465479235E-3
2.325167750E0,-4.671548959E-5,-2.270136029E-4,1.156265847E-2,1.156498113E-2
2.335124750E0,1.639366383E-3,-3.006961197E-3,1.136124134E-2,1.186621855E-2
2.345081750E0,-6.743879057E-4,-6.468677893E-4,9.071189910E-3,9.119195325E-3
2.355038750E0,-1.295193913E-3,1.047451980E-3,1.069777459E-2,1.082668297E-2
2.364995750E0,1.831357135E-3,-1.275624149E-3,1.086182520E-2,1.108874802E-2
2.374952750E0,-6.303451955E-4,5.026459694E-4,1.073565334E-2,1.076588318E-2
2.384910333E0,7.748138160E-6,2.126907930E-3,9.133497253E-3,9.377876596E-3
2.394867333E0,-2.845824929E-4,-1.155581325E-3,7.136411965E-3,7.234965869E-3
2.404824333E0,8.922683191E-4,-1.369167119E-3,4.407737404E-3,4.700947817E-3
2.414780333E0,-7.503684610E-4,6.625568494E-4,9.602639824E-3,9.654673790E-3
2.424737333E0,-2.246532124E-3,-2.314662561E-4,8.723799139E-3,9.011390272E-3
2.434694333E0,-4.137717187E-4,3.532385454E-4,9.833835065E-3,9.848872859E-3
2.444651333E0,-1.479302533E-3,-1.959046349E-4,7.554702461E-3,7.700665158E-3
2.454608333E0,1.969234087E-3,3.270478919E-4,8.833125234E-3,9.055879008E-3
2.464565333E0,2.778973430E-5,-1.225841232E-3,7.625116035E-3,7.723072805E-3
2.474522333E0,-1.131753321E-3,-4.292186350E-5,8.129704744E-3,8.208215828E-3
2.484479333E0,1.064023003E-3,-5.198940635E-4,8.598687127E-3,8.679853403E-3
2.494436333E0,3.661809023E-5,3.487737849E-4,6.833694875E-3,6.842687315E-3
2.504393333E0,8.771117427E-4,1.151982695E-3,7.112527266E-3,7.258404318E-3
2.514350333E0,-2.414614428E-4,-1.403687522E-3,9.158421308E-3,9.268512456E-3
2.524307333E0,-6.036646664E-5,-3.312641755E-3,9.267609566E-3,9.842043821E-3
2.534264333E0,-7.981732488E-4,-1.050057821E-3,1.128550619E-2,1.136232159E-2
2.544221333E0,-1.588599524E-3,-9.991917759E-4,6.450803950E-3,6.718251577E-3
2.554177333E0,-1.291599125E-3,6.409306079E-4,8.795609698E-3,8.913011292E-3
2.564134333E0,-6.223467644E-4,-8.275369182E-4,5.347080529E-3,5.446411941E-3
2.574091333E0,9.359105024E-5,7.901564240E-4,5.578057840E-3,5.634521784E-3
2.584048333E0,-6.374467630E-4,-4.008095711E-4,7.756523788E-3,7.792987101E-3
2.594005333E0,-5.365209654E-5,-4.787584767E-4,7.420429960E-3,7.436051978E-3
2.603962333E0,-6.057636347E-5,-2.267870121E-3,6.502438337E-3,6.886843159E-3
2.613919333E0,2.135907998E-4,-3.582946956E-4,9.821858257E-3,9.830711863E-3
2.623876333E0,-7.371576503E-4,6.864638999E-4,9.691365063E-3,9.743571772E-3
2.633833333E0,8.475244977E-4,-5.276035517E-5,1.099681854E-2,1.102955572E-2
2.643790333E0,4.367670044E-6,4.319343716E-4,9.229011834E-3,9.239114990E-3
2.653747333E0,-5.725605879E-4,-7.257284597E-4,9.384812787E-3,9.430228973E-3
2.663704333E0,-1.436756458E-3,8.284924552E-4,9.001320228E-3,9.152837523E-3
2.673661333E0,-3.766739974E-4,-1.478133723E-3,1.164745912E-2,1.174691732E-2
2.683618333E0,-2.338358667E-3,-9.505618364E-4,9.938776493E-3,1.025430481E-2
2.693575333E0,2.020064509E-3,4.560463130E-4,7.874570787E-3,8.142327919E-3
2.703531333E0,-1.242307946E-3,-2.568772063E-3,6.155766547E-3,6.784937783E-3
2.713488333E0,-9.723500116E-4,-9.828805923E-5,6.766218692E-3,6.836434778E-3
2.723445333E0,9.246197296E-4,-3.749482334E-3,6.420008838E-3,7.491999259E-3
2.733402333E0,4.778892035E-4,-1.335657202E-3,6.203437224E-3,6.363567525E-3
2.743359333E0,-9.338525124E-4,-8.498970419E-4,7.600000128E-3,7.704181166E-3
2.753316333E0,6.157706957E-5,1.638820395E-4,6.556397304E-3,6.558734227E-3
2.763273333E0,-1.378935995E-4,-5.527744070E-4,8.642185479E-3,8.660943600E-3
2.773230333E0,-4.928333219E-4,-1.023330726E-3,1.161095500E-2,1.166637761E-2
2.783187333E0,-3.222839907E-3,-3.684591502E-4,1.145463064E-2,1.190508389E-2
2.793144333E0,-1.302983146E-4,-2.597076818E-4,8.178835735E-3,8.183995339E-3
2.803101333E0,2.653237665E-3,8.700052276E-4,7.189204916E-3,7.712408608E-3
2.813058333E0,2.757714130E-3,1.052715816E-3,7.701877505E-3,8.248158274E-3
2.823015333E0,-7.952090818E-4,-2.319645137E-3,8.687246591E-3,9.026702852E-3
2.832972333E0,-1.515192795E-3,-2.521911636E-3,7.976308465E-3,8.501608332E-3
2.842929333E0,9.037564159E-4,-7.791388780E-4,7.287882268E-3,7.384921192E-3
2.852885333E0,-2.181987511E-4,-6.986567751E-4,7.147613913E-3,7.184992459E-3
2.862842333E0,3.663649550E-4,1.696856692E-3,9.052308276E-3,9.217257241E-3
2.872799333E0,-3.200767096E-3,-2.126283944E-4,7.693223655E-3,8.335215117E-3
2.882756333E0,-1.147203729E-3,-2.264762297E-4,9.978480637E-3,1.004676285E-2
2.892713333E0,1.707873307E-4,1.355046406E-3,8.008213714E-3,8.123841823E-3
2.902670333E0,5.217919825E-4,-9.014504030E-4,5.353309214E-3,5.453695925E-3
2.912627333E0,-1.196588273E-3,-5.281157792E-4,4.194138572E-3,4.393350445E-3
2.922584333E0,-2.111117821E-3,1.433835365E-3,5.586706102E-3,6.141985622E-3
2.932541333E0,-9.086262435E-4,-2.540741116E-5,5.949269980E-3,6.018310434E-3
2.942498333E0,5.017839139E-4,8.680857718E-6,5.446998402E-3,5.470068926E-3
2.952455333E0,-2.504867967E-3,-6.894217804E-4,9.374277666E-3,9.727628061E-3
2.962412333E0,-5.056330701E-4,-4.707761109E-4,8.261611685E-3,8.290447671E-3
2.972369333E0,-7.476829924E-4,1.533428207E-3,7.045302540E-3,7.248911629E-3
2.982326333E0,5.037364317E-4,2.119680867E-4,9.490616620E-3,9.506339184E-3
2.992282333E0,-6.541468902E-4,-8.696150035E-4,6.387371570E-3,6.479402286E-3
3.002239333E0,-1.201160136E-3,1.537616365E-3,8.358377963E-3,8.583095708E-3
3.012196333E0,-7.180650719E-4,-3.429790959E-4,7.012888789E-3,7.057893544E-3
3.022153333E0,5.099184345E-4,-1.403450035E-3,1.023957506E-2,1.034787834E-2
3.032110333E0,-1.694440492E-3,-1.571671106E-3,7.193218917E-3,7.555374050E-3
3.042067333E0,-1.463278080E-3,-3.605527803E-3,5.507703871E-3,6.743575862E-3
3.052024333E0,-3.047779435E-3,-1.964684576E-3,8.908363059E-3,9.618101547E-3
3.061981333E0,8.484251448E-4,5.107233301E-4,7.598619908E-3,7.662877270E-3
3.071938333E0,9.592332644E-4,4.990613088E-4,3.337511793E-3,3.508300958E-3
3.081895333E0,-1.295931404E-3,-3.840429708E-4,6.402276456E-3,6.543399043E-3
3.091852333E0,-1.771973912E-4,-1.291121356E-3,8.097097278E-3,8.201303408E-3
3.101809333E0,-1.210046466E-4,-5.550235510E-4,8.622806519E-3,8.641497876E-3
3.111766333E0,-9.243640816E-4,-4.244968295E-6,5.972344428E-3,6.043456374E-3
3.121723333E0,6.362483837E-4,-1.470315270E-3,5.571272224E-3,5.797043487E-3
3.131680333E0,-2.454683650E-3,-1.257574186E-4,8.753504604E-3,9.092036604E-3
3.141636333E0,8.782623336E-4,-1.609111205E-4,7.792104036E-3,7.843093931E-3
3.151593333E0,-6.884698523E-4,5.338089541E-4,6.289757788E-3,6.349802814E-3
3.161550333E0,-1.103922841E-3,-2.582147717E-4,7.871676236E-3,7.952899300E-3
3.171507333E0,-2.225147327E-3,1.233664341E-3,5.157658830E-3,5.751056681E-3
3.181464333E0,-5.493720528E-5,-1.516049728E-3,6.417067721E-3,6.593950486E-3
3.191421333E0,1.685819589E-3,-7.802890614E-4,6.220679730E-3,6.492125616E-3
3.201378333E0,-2.624467015E-6,-3.596582450E-3,9.797306731E-3,1.043660057E-2
3.211335333E0,-1.726688584E-3,-1.218230464E-3,5.871271715E-3,6.239981609E-3
3.221292333E0,-4.470397253E-4,2.618319355E-3,7.062502205E-3,7.545487271E-3
3.231249333E0,-8.617673302E-4,-8.673239499E-4,8.995741606E-3,9.078450353E-3
3.241206333E0,-3.214403987E-3,-4.041288048E-5,9.596284479E-3,1.012041017E-2
3.251163333E0,7.868581451E-5,-2.935547382E-4,8.579857647E-3,8.585238674E-3
3.261120333E0,9.285004926E-4,4.284279421E-4,7.273308933E-3,7.344840808E-3
3.271077333E0,-4.299780121E-4,5.898252130E-5,7.220692933E-3,7.233724245E-3
3.281033333E0,2.920050174E-4,-3.255782649E-4,6.745317951E-3,6.759480926E-3
3.290990333E0,-4.106634296E-4,-1.004624180E-3,7.779983804E-3,7.855320629E-3
3.300947333E0,-2.192850923E-3,1.658359542E-4,8.598906919E-3,8.875657550E-3
3.310904333E0,-3.295495408E-3,1.187786460E-3,9.305514395E-3,9.943023927E-3
3.320861333E0,-7.540406659E-4,-3.853421658E-4,9.032540023E-3,9.072146669E-3
3.330818333E0,1.550452202E-3,-7.522432134E-4,6.772605702E-3,6.988416121E-3
3.340775333E0,-1.236013137E-3,1.550858840E-3,6.412811577E-3,6.712454390E-3
3.350732333E0,5.862236721E-4,-2.486169338E-3,4.969131202E-3,5.587214071E-3
3.360689333E0,-2.498515882E-3,-1.332487911E-3,5.780596286E-3,6.436878053E-3
3.370646333E0,-6.192277651E-4,1.384730451E-3,3.250705078E-3,3.587200155E-3
3.380603333E0,-6.999215111E-4,-1.169772819E-3,5.645951256E-3,5.808185961E-3
3.390559000E0,4.764955956E-4,-1.478948630E-3,7.534133270E-3,7.692691417E-3
3.400516000E0,-1.464416157E-3,6.422596052E-4,7.940797135E-3,8.100201925E-3
3.410473000E0,3.129743272E-4,-7.328568026E-4,9.723996744E-3,9.756594933E-3
3.420430000E0,-1.046302961E-3,-5.917092785E-4,6.305828691E-3,6.419372651E-3
3.430386000E0,-3.678697627E-3,9.351503104E-5,8.931724355E-3,9.660085985E-3
3.440343000E0,-2.921827137E-3,-2.319226041E-4,5.195841193E-3,5.965536658E-3
3.450300000E0,2.630237490E-3,8.620880544E-5,4.938745871E-3,5.596140812E-3
3.460257000E0,-8.579707937E-4,-9.082155302E-4,6.871137768E-3,6.983802944E-3
3.470214000E0,2.597310580E-3,1.184416004E-3,5.981136113E-3,6.627431835E-3
3.480171000E0,-1.297562616E-3,1.234482974E-3,1.033220813E-2,1.048628350E-2
3.490128000E0,-1.947502140E-3,-9.754421189E-4,8.148437366E-3,8.434529235E-3
3.500085000E0,-1.842041034E-3,1.207152382E-4,6.071439013E-3,6.345869446E-3
3.510042000E0,-3.091208171E-3,1.201655716E-3,6.169904023E-3,7.004802643E-3
3.519999000E0,-1.870312262E-4,-4.756264389E-6,5.052175373E-3,5.055638367E-3
3.529956000E0,-7.687601028E-4,1.390921883E-3,5.246857181E-3,5.482259211E-3
3.539913000E0,2.728236606E-3,2.844817936E-5,5.041262135E-3,5.732225414E-3
3.549870000E0,-6.883948809E-4,1.647124067E-3,7.637538016E-3,7.843397998E-3
3.559827000E0,3.036325797E-4,3.144787624E-4,9.152345359E-3,9.162778793E-3
3.569784000E0,-1.288592699E-3,-2.315204591E-3,9.645093232E-3,1.000242305E-2
3.579740000E0,5.923978752E-4,1.504301094E-3,5.740633234E-3,5.963952293E-3
3.589697000E0,3.666959703E-3,1.451743767E-3,4.199426621E-3,5.761018779E-3
3.599654000E0,-1.276666182E-3,1.591293141E-3,5.350712687E-3,5.726448870E-3
3.609611000E0,-4.120871425E-3,-7.668482140E-4,5.877591670E-3,7.219121921E-3
3.619568000E0,7.708227495E-4,2.315705642E-4,5.513004959E-3,5.571446519E-3
3.629525000E0,-2.087478992E-3,-4.478469491E-4,6.231596693E-3,6.587179425E-3
3.639482000E0,-2.174074762E-4,-1.061438583E-3,3.719968721E-3,3.874543220E-3
3.649439000E0,1.754813129E-4,4.281140864E-4,5.569126457E-3,5.588313239E-3
3.659396000E0,-1.250641420E-3,9.021572769E-4,4.004253075E-3,4.290924656E-3
3.669353000E0,1.114186598E-4,3.970200196E-4,3.969244659E-3,3.990606743E-3
3.679310000E0,-2.985305153E-3,1.697175205E-3,6.446782500E-3,7.304344949E-3
3.689267000E0,-7.342228200E-4,8.150897920E-4,6.729291752E-3,6.818124522E-3
3.699224000E0,-4.535256885E-4,-9.401999414E-4,4.871204495E-3,4.981796334E-3
3.709181000E0,-1.389986137E-3,9.101415053E-4,6.692467257E-3,6.895617232E-3
3.719137000E0,-4.781198222E-4,-4.331562668E-4,5.043702200E-3,5.084796436E-3
3.729094000E0,1.821281970E-3,-1.969438978E-3,7.452080026E-3,7.920180214E-3
3.739051000E0,1.160285436E-3,-5.318643525E-4,4.833661020E-3,4.999342040E-3
3.749008000E0,-4.424599465E-4,7.828418165E-5,8.026728407E-3,8.039295251E-3
3.758965000E0,-1.671242528E-3,3.594066948E-5,5.039727315E-3,5.309726427E-3
3.768922000E0,-1.001572236E-3,-1.947526820E-3,8.780311793E-3,9.049302893E-3
3.778879000E0,-4.153689835E-3,-9.006382897E-4,6.425011903E-3,7.703574919E-3
3.788836000E0,-2.363370731E-5,2.313083038E-3,7.319767028E-3,7.676581338E-3
3.798793000E0,2.243065974E-4,1.890705898E-3,4.510931671E-3,4.896282956E-3
3.808750000E0,2.019884065E-3,-1.893332228E-4,5.876908079E-3,6.217220221E-3
3.818707000E0,-2.605760470E-3,8.016284555E-4,4.541067407E-3,5.296592206E-3
3.828664000E0,-3.923331387E-4,-1.687347889E-3,4.722313955E-3,5.030041479E-3
3.838621000E0,7.674735971E-4,1.415766776E-3,5.747098476E-3,5.968463133E-3
3.848578000E0,3.310495522E-3,-1.937608235E-3,8.658442646E-3,9.470075783E-3
3.858535000E0,5.362805678E-4,5.644317716E-4,5.842417479E-3,5.894066683E-3
3.868491000E0,-9.226994589E-4,2.304947935E-3,6.105178967E-3,6.590703263E-3
3.878448000E0,-1.533122268E-4,-7.899124175E-4,6.062302738E-3,6.115470608E-3
3.888405000E0,-1.902071061E-3,2.482253127E-3,6.247963756E-3,6.986880993E-3
3.898362000E0,2.135014860E-3,-2.025679685E-3,6.828267127E-3,7.435516028E-3
3.908319000E0,5.298012402E-4,5.133450031E-6,5.700750276E-3,5.725318281E-3
3.918276000E0,-4.251208156E-5,1.939507201E-4,5.196878687E-3,5.200670365E-3
3.928233000E0,-6.133657880E-4,5.862088874E-4,5.443304777E-3,5.509031253E-3
3.938190000E0,-2.679446014E-3,2.057339065E-3,6.349580362E-3,7.192304620E-3
3.948147000E0,-7.056666072E-4,2.282786183E-3,5.718547851E-3,6.197650171E-3
3.958104000E0,-1.966673182E-3,1.325646415E-3,7.361719385E-3,7.734342514E-3
3.968061000E0,-8.119968697E-5,-6.543677300E-4,5.615768954E-3,5.654348014E-3
3.978018000E0,-2.021578839E-3,9.224899113E-4,6.168108433E-3,6.556167347E-3
3.987975000E0,-6.572247948E-4,1.243736595E-3,4.524011165E-3,4.737668432E-3
3.997932000E0,-2.786954865E-3,-1.170152798E-3,3.477122635E-3,4.607250461E-3
4.007889000E0,1.768811489E-3,-1.016614959E-3,6.680671126E-3,6.985239205E-3
4.017845000E0,-5.782323424E-4,5.863420665E-4,4.553070292E-3,4.626942699E-3
4.027802000E0,2.134945244E-3,1.624021679E-4,7.222954184E-3,7.533620166E-3
4.037759000E0,-2.181506483E-3,8.409759030E-4,9.452819824E-3,9.737659556E-3
4.047716000E0,1.187241403E-3,1.449949108E-3,3.117494285E-3,3.637398134E-3
4.057673000E0,-3.867438296E-3,8.930824697E-4,7.458448410E-3,8.448853647E-3
4.067630000E0,-2.406655112E-3,1.072870567E-3,7.477642968E-3,7.928315360E-3
4.077587000E0,-1.570688561E-3,-8.051907644E-4,4.281850532E-3,4.631375465E-3
4.087544000E0,-4.723472521E-4,-1.127807423E-3,5.950141698E-3,6.074475100E-3
4.097501000E0,2.586559393E-3,-5.514994264E-4,3.511752933E-3,4.396231315E-3
4.107458000E0,1.087256591E-3,-1.004894264E-3,6.607484072E-3,6.771320783E-3
4.117415000E0,-5.630473606E-5,1.873982139E-3,5.457529798E-3,5.770581494E-3
4.127372000E0,1.350539504E-3,-1.023895107E-3,5.161337554E-3,5.432469373E-3
4.137329000E0,3.554038936E-3,-1.016426831E-4,3.651058301E-3,5.096248690E-3
4.147286000E0,-2.614650875E-4,1.208076254E-3,3.855071962E-3,4.048381412E-3
4.157242000E0,-3.882497549E-5,-1.827128232E-3,4.281708971E-3,4.655420138E-3
4.167199000E0,-1.946585719E-3,-1.035569236E-3,3.323571756E-3,3.988449426E-3
4.177156000E0,1.916862093E-3,8.374322206E-4,5.178462714E-3,5.584991413E-3
4.187113000E0,-1.119333087E-3,1.453580335E-3,4.258017987E-3,4.636433923E-3
4.197070000E0,6.668489659E-4,2.880502492E-3,6.707860157E-3,7.330577742E-3
4.207027000E0,-8.007648867E-4,3.416724503E-4,7.021894678E-3,7.075660347E-3
4.216984000E0,1.298871357E-3,1.549148932E-3,5.706293508E-3,6.053818202E-3
4.226941000E0,2.668922534E-4,2.318667248E-4,3.946794197E-3,3.962597391E-3
4.236898000E0,-1.546187792E-3,2.311263233E-3,3.455972299E-3,4.435806460E-3
4.246855000E0,-3.059022827E-3,1.435482875E-3,2.063661814E-3,3.959410540E-3
4.256812000E0,4.883075599E-4,8.437288925E-4,5.992088467E-3,6.070868711E-3
4.266769000E0,4.027171526E-4,-7.558455691E-4,4.156621173E-3,4.243934873E-3
4.276726000E0,-5.115459207E-4,2.727835439E-3,5.908980966E-3,6.528309235E-3
4.286683000E0,-9.472016245E-6,-1.259362325E-4,4.517590627E-3,4.519355566E-3
4.296639000E0,-1.796186669E-3,-9.813439101E-4,4.925854504E-3,5.334169571E-3
4.306596000E0,-4.725612234E-4,-5.270885304E-4,4.035869613E-3,4.097484590E-3
4.316553000E0,1.214817632E-3,-8.144434541E-4,1.999350265E-3,2.477196298E-3
4.326510000E0,9.372860659E-4,-1.599282026E-3,5.440482870E-3,5.747613594E-3
4.336467000E0,9.732388426E-4,-6.759641692E-4,4.617568105E-3,4.767185397E-3
4.346424000E0,6.790223997E-4,7.602330297E-4,6.564224139E-3,6.642895771E-3
4.356381000E0,3.280131845E-3,1.607650891E-3,7.293930277E-3,8.157525679E-3
4.366338000E0,-8.760695346E-5,-4.385830835E-4,3.993576393E-3,4.018542336E-3
4.376295000E0,-6.205055397E-4,1.142002642E-3,8.775280789E-3,8.871006148E-3
4.386252500E0,3.025121987E-4,-2.702502534E-4,7.136063650E-3,7.147583735E-3
4.396209500E0,-7.102880627E-4,2.344185486E-4,4.371168092E-3,4.434700855E-3
4.406166500E0,1.128522446E-3,2.755963244E-3,6.415005773E-3,7.072566393E-3
4.416123500E0,-5.479375832E-4,1.429975033E-3,5.263451487E-3,5.481695517E-3
4.426080500E0,7.317940472E-4,1.058441587E-3,4.215648398E-3,4.407665202E-3
4.436037500E0,1.998127205E-3,-5.144206807E-4,4.218844697E-3,4.696359392E-3
4.445994500E0,-2.838885412E-3,1.582693309E-3,6.249293685E-3,7.043994609E-3
4.455950500E0,2.306874376E-3,-1.127871685E-3,5.227707326E-3,5.824318657E-3
4.465907500E0,2.498661634E-3,-4.406869411E-4,5.269102752E-3,5.848158578E-3
4.475864500E0,2.903994871E-3,-5.219131708E-4,4.658970982E-3,5.514670451E-3
4.485821500E0,-1.251081936E-3,1.701889560E-3,4.460124299E-3,4.935011940E-3
4.495778500E0,-5.265953951E-5,-3.246529959E-3,3.558909521E-3,4.817527040E-3
4.505735500E0,-4.619034007E-4,-3.662528470E-4,4.387384281E-3,4.426808865E-3
4.515692500E0,1.687533921E-3,7.093977183E-4,5.030004308E-3,5.352752487E-3
4.525649500E0,1.676535234E-3,3.308001906E-4,4.749853164E-3,5.047900973E-3
4.535606500E0,1.757495338E-3,-6.630914286E-4,4.955716431E-3,5.299774094E-3
4.545563500E0,2.406519139E-3,-2.153249457E-3,6.972732022E-3,7.684192179E-3
4.555520500E0,-9.783587884E-4,2.222323790E-3,3.768414259E-3,4.482951592E-3
4.565477500E0,1.929138554E-3,6.364751607E-4,4.795381799E-3,5.207913478E-3
4.575434500E0,4.998201039E-4,2.069072798E-4,6.440414116E-3,6.463092506E-3
4.585391500E0,8.521454874E-4,1.548882574E-4,3.889977932E-3,3.985231564E-3
4.595347500E0,5.639914889E-4,-6.174286827E-4,2.925114706E-3,3.042301862E-3
4.605304500E0,-6.297375076E-4,-4.100566730E-4,3.578316420E-3,3.656373095E-3
4.615261500E0,3.452457022E-4,2.609701827E-3,5.051841959E-3,5.696564351E-3
4.625218500E0,-1.347840065E-3,-8.558835834E-4,4.227558151E-3,4.519010674E-3
4.635175500E0,-3.012848552E-3,2.046962269E-3,5.055533722E-3,6.231029782E-3
4.645132500E0,8.451117901E-4,5.936631933E-4,6.303524598E-3,6.387571705E-3
4.655089500E0,1.070947852E-3,-1.261494122E-3,3.695491701E-3,4.049068490E-3
4.665046500E0,8.087231545E-4,-1.774476841E-3,3.693085164E-3,4.176323650E-3
4.675003500E0,-1.309821382E-3,9.414153174E-4,3.287753090E-3,3.662132608E-3
4.684960500E0,2.134604845E-3,-4.204316065E-4,4.342881963E-3,4.857357751E-3
4.694917500E0,-6.382784341E-4,-1.042812131E-3,5.776461214E-3,5.904435676E-3
4.704874500E0,8.531829808E-4,1.393267885E-3,2.768866718E-3,3.214924493E-3
4.714831500E0,-1.866170904E-3,-7.849307731E-4,5.967322737E-3,6.301400702E-3
4.724788500E0,7.589313900E-4,-1.154510304E-3,4.915509373E-3,5.105987005E-3
4.734744500E0,7.919967175E-6,-1.193126664E-3,5.346942693E-3,5.478449609E-3
4.744701500E0,-1.654957188E-3,5.233632401E-4,3.957310691E-3,4.321238281E-3
4.754658500E0,2.965627238E-3,-2.212561667E-4,4.508584738E-3,5.401040228E-3
4.764615500E0,1.297716051E-3,1.663539559E-3,5.036976188E-3,5.461003565E-3
4.774572500E0,-3.313396592E-4,1.595363021E-3,5.891852081E-3,6.113009904E-3
4.784529500E0,-8.369088173E-4,1.244173385E-3,4.128547385E-3,4.392412469E-3
4.794486500E0,1.740271691E-4,2.715867013E-4,4.320828244E-3,4.332851429E-3
4.804443500E0,-5.581120495E-4,-1.894529909E-3,4.347153008E-3,4.774774540E-3
4.814400500E0,-1.627637539E-3,3.073718399E-4,2.690134570E-3,3.159193791E-3
4.824357500E0,-1.538713463E-3,2.621058375E-4,4.882264882E-3,5.125704729E-3
4.834314500E0,-1.463079825E-3,3.728941083E-4,3.975458443E-3,4.252519538E-3
4.844271500E0,-2.030974720E-4,-5.319677293E-4,4.650712013E-3,4.685441332E-3
4.854228500E0,7.085024845E-4,2.268612385E-3,4.967894405E-3,5.507136528E-3
4.864185500E0,-1.267105807E-3,6.200522184E-4,4.150899127E-3,4.384060383E-3
4.874142500E0,1.139060245E-3,-4.667835310E-4,5.540803075E-3,5.675900265E-3
4.884098500E0,-3.682249226E-4,2.851673402E-3,4.040287808E-3,4.958987432E-3
4.894055500E0,5.409782752E-4,1.318225637E-3,6.759166718E-4,1.577098498E-3
4.904012500E0,-1.332784770E-3,-2.168947831E-4,2.115463838E-3,2.509690387E-3
4.913969500E0,-1.722937915E-3,6.933733821E-4,2.033704892E-3,2.754130951E-3
4.923926500E0,5.920134718E-4,1.232591458E-3,4.957484081E-3,5.142607322E-3
4.933883500E0,-7.627364248E-4,-4.372103140E-4,6.683209911E-3,6.740787374E-3
4.943840500E0,-7.587461732E-4,-9.241979569E-5,4.794256762E-3,4.854805359E-3
4.953797500E0,-4.681954160E-4,2.079848200E-4,3.119926900E-3,3.161709742E-3
4.963754500E0,1.084923977E-3,5.778335035E-4,1.910043880E-3,2.271391472E-3
4.973711500E0,-9.049898945E-4,2.491995692E-4,3.140689805E-3,3.277962719E-3
4.983668500E0,1.351709943E-3,6.631100550E-4,3.061458468E-3,3.411651018E-3
4.993625500E0,-2.023580251E-3,6.782896817E-4,4.825003445E-3,5.275946566E-3
5.003582500E0,-8.178693242E-4,-2.921307459E-4,5.276773125E-3,5.347764506E-3
5.013539500E0,6.479343865E-4,-5.222270265E-4,2.736648545E-3,2.860382019E-3
5.023496500E0,6.209438434E-4,1.909050159E-3,1.911703497E-3,2.772120854E-3
5.033452500E0,-5.580375437E-4,-7.415944710E-4,1.963635907E-3,2.171919481E-3
5.043409500E0,-7.090973668E-4,4.938459024E-4,3.047101200E-5,8.646567720E-4
5.053366500E0,9.439266287E-4,-3.631589934E-4,4.163697362E-3,4.284770432E-3
5.063323500E0,-5.892375484E-4,-2.918165177E-3,7.257482037E-3,7.844356851E-3
5.073280500E0,9.484715993E-4,1.832914539E-3,7.024986669E-3,7.321858493E-3
5.083237500E0,1.296116970E-3,-6.006369367E-4,5.537929013E-3,5.719208135E-3
5.093194500E0,2.085478045E-3,1.617243513E-3,1.672882587E-3,3.124617002E-3
5.103151500E0,-1.070156693E-3,1.432393678E-3,1.758234575E-3,2.507663418E-3
5.113108500E0,-8.052610792E-5,-1.096011139E-3,1.494582742E-3,1.855128687E-3
5.123065500E0,4.113188479E-4,-2.124235034E-4,1.495311037E-3,1.565331286E-3
5.133022500E0,-1.514072064E-4,2.850545570E-4,5.378199741E-3,5.387876455E-3
5.142979500E0,-3.095238702E-3,2.741287462E-3,4.701547325E-3,6.260966924E-3
5.152936500E0,-1.995619619E-3,2.358058468E-3,5.606491119E-3,6.401224888E-3
5.162893500E0,2.253210405E-3,3.348039463E-3,7.721610367E-3,8.712611092E-3
5.172850500E0,6.704936968E-4,-1.651247032E-3,3.379857168E-3,3.820943997E-3
5.182806500E0,1.075793989E-5,1.917216927E-3,-9.057968855E-4,2.120449121E-3
5.192763500E0,1.039004419E-3,-1.236498356E-3,6.641354412E-4,1.746291571E-3
5.202720500E0,-4.820153117E-4,-7.075276226E-4,1.560119912E-3,1.779580916E-3
5.212677500E0,1.200303668E-3,8.046152070E-4,3.557756543E-3,3.840021634E-3
5.222634500E0,3.223456675E-3,-1.349006779E-3,8.087649941E-3,8.810253901E-3
5.232591500E0,-1.020024065E-3,-1.124768518E-3,6.315585226E-3,6.495550020E-3
5.242548500E0,-2.083455445E-3,1.668307930E-3,4.579804838E-3,5.300816003E-3
5.252505500E0,-4.879557528E-4,1.589211635E-3,1.699063927E-3,2.377080703E-3
5.262462500E0,4.733400419E-5,8.324338123E-4,1.061564311E-3,1.349853824E-3
5.272419500E0,-6.456205156E-4,-8.901953697E-5,3.876259550E-3,3.930666410E-3
5.282376500E0,1.147978590E-3,-1.756211743E-3,4.872024059E-3,5.304597342E-3
5.292333500E0,-1.503464533E-3,-1.167120412E-3,5.265105516E-3,5.598563365E-3
5.302290500E0,-2.284093294E-3,-2.157627605E-3,5.899924785E-3,6.684426043E-3
5.312247500E0,3.825300373E-4,1.202216372E-3,5.800589919E-3,5.936202224E-3
5.322203500E0,4.566230346E-4,4.312479869E-4,4.416791722E-3,4.461225004E-3
5.332160500E0,2.116837539E-3,6.506312639E-5,-2.397466451E-4,2.131364077E-3
5.342117500E0,-1.893673791E-3,1.321970485E-3,2.626620233E-3,3.497533451E-3
5.352074500E0,7.919594646E-5,1.405860297E-3,1.694513485E-3,2.203200201E-3
5.362031500E0,-1.116977539E-3,-4.017846659E-4,3.863720223E-3,4.041955431E-3
5.371988500E0,-3.675641492E-4,-1.418579370E-3,5.503427237E-3,5.695189390E-3
5.381945500E0,-1.595629146E-3,-9.026769549E-4,8.237332106E-3,8.438868305E-3
5.391902833E0,-5.514037330E-4,1.035039313E-3,4.011962563E-3,4.179855986E-3
5.401859833E0,-1.444403315E-3,6.577251479E-4,1.836521551E-3,2.427285462E-3
5.411816833E0,-1.383891795E-4,1.223647036E-3,3.214707598E-3,3.442500338E-3
5.421773833E0,-1.720170025E-3,3.107893281E-3,2.970885485E-3,4.630782453E-3
5.431730833E0,1.305447309E-3,1.326770522E-3,4.868119955E-3,5.211823538E-3
5.441687833E0,-3.695155028E-4,-3.488427028E-4,2.457723022E-3,2.509708228E-3
5.451644833E0,-5.386262201E-4,1.475688070E-3,5.595192313E-3,5.811535985E-3
5.461601833E0,7.651407504E-4,-2.896301448E-4,6.426814944E-3,6.478678593E-3
5.471558833E0,2.076481236E-3,7.103867829E-4,4.810277373E-3,5.287266979E-3
5.481514833E0,-1.395155676E-3,1.819252968E-3,2.340191975E-3,3.276070695E-3
5.491471833E0,2.552052028E-4,7.606465369E-4,1.618476585E-3,1.806427221E-3
5.501428833E0,3.608410480E-4,9.508440271E-4,7.481388748E-4,1.262546000E-3
5.511385833E0,1.781482715E-4,-8.023148403E-4,5.479242653E-3,5.540536613E-3
5.521342833E0,1.501465566E-3,1.028766856E-3,4.372298717E-3,4.736006352E-3
5.531299833E0,2.572367666E-4,-2.546105534E-4,6.874337792E-3,6.883859192E-3
5.541256833E0,-8.990394417E-4,-1.266171224E-3,5.281548947E-3,5.505108606E-3
5.551213833E0,-4.050228745E-4,-1.289873384E-3,2.484697849E-3,2.828699396E-3
5.561170833E0,-3.066470381E-4,1.908408478E-3,2.582084388E-3,3.225401542E-3
5.571127833E0,-1.702930313E-4,3.717653453E-4,2.263570204E-3,2.300208525E-3
5.581084833E0,-5.440176465E-4,8.674841374E-4,3.052322194E-3,3.219496033E-3
5.591041833E0,-1.716873841E-3,1.444591209E-3,3.444071859E-3,4.110490302E-3
5.600998833E0,-5.211238749E-4,-9.057167917E-4,7.436327636E-3,7.509384909E-3
5.610955833E0,1.339893090E-3,-2.122514881E-3,3.545181826E-3,4.343811355E-3
5.620912833E0,-1.200634753E-3,2.466440201E-4,4.468565807E-3,4.633620340E-3
5.630868833E0,5.828841822E-4,-1.237269491E-3,3.257360309E-3,3.532843890E-3
5.640825833E0,3.775757505E-4,2.083955333E-4,1.545945182E-3,1.604973100E-3
5.650782833E0,2.161627403E-3,-3.159438260E-3,2.250084653E-3,4.440446384E-3
5.660739833E0,-3.833482042E-4,-6.530499086E-4,3.828642890E-3,3.902811347E-3
5.670696833E0,-2.248901874E-4,1.449516043E-3,4.591904581E-3,4.820504126E-3
5.680653833E0,-1.538064796E-3,1.605600119E-5,5.464561284E-3,5.676912113E-3
5.690610833E0,1.971449004E-3,-1.254005358E-3,3.877319396E-3,4.526891462E-3
5.700567833E0,7.705227472E-5,-1.082783565E-4,4.512103274E-3,4.514059948E-3
5.710524833E0,-1.245739870E-3,-1.021539792E-4,1.367442310E-3,1.852620233E-3
5.720481833E0,1.161629916E-3,7.794145495E-4,2.933062613E-3,3.249573417E-3
5.730438833E0,2.253792249E-3,2.494223416E-3,3.496320918E-3,4.850256685E-3
5.740395833E0,3.177375067E-3,9.736977518E-4,1.200817525E-3,3.533519826E-3
5.750352833E0,4.907783587E-4,6.129872054E-5,2.855971456E-3,2.898481307E-3
5.760309833E0,2.095963340E-3,1.639509574E-3,4.008732736E-3,4.811547788E-3
5.770265833E0,-3.964889329E-4,-3.010102548E-3,4.059065133E-3,5.068918088E-3
5.780222833E0,4.585473798E-4,2.934411168E-4,2.867370844E-3,2.918593659E-3
5.790179833E0,-9.060562588E-4,1.697459258E-3,4.002410918E-3,4.440900701E-3
5.800136833E0,3.334104083E-3,-9.891074151E-4,4.559641704E-3,5.734537121E-3
5.810093833E0,2.264312236E-3,1.736370847E-3,3.620877862E-3,4.610081356E-3
5.820050833E0,7.684540469E-4,-9.485948831E-4,3.431562334E-3,3.642248472E-3
5.830007833E0,-2.319481457E-3,5.475692451E-4,3.986829892E-3,4.644850793E-3
5.839964833E0,-1.876693452E-3,9.622173384E-4,3.407202661E-3,4.007102506E-3
5.849921833E0,2.274908125E-3,-5.347458646E-4,1.918228343E-3,3.023368998E-3
5.859878833E0,-6.764158607E-4,5.381535739E-4,2.517450601E-3,2.661710956E-3
5.869835833E0,-3.690870944E-4,7.046014071E-4,2.117710188E-3,2.262163758E-3
5.879792833E0,-1.159520354E-3,-9.054634720E-4,2.230832353E-3,2.672258322E-3
5.889749833E0,-1.078027766E-3,4.937611520E-4,4.212491214E-3,4.376188544E-3
5.899706833E0,-1.266386127E-3,1.721485518E-3,4.453526810E-3,4.939751740E-3
5.909663833E0,-1.457334729E-3,1.867059618E-4,5.078302696E-3,5.286571848E-3
5.919620833E0,7.645393489E-4,-1.683359034E-3,3.860954195E-3,4.280792608E-3
5.929576833E0,-9.638522752E-4,-9.667025879E-4,7.330719382E-4,1.549490099E-3
5.939533833E0,2.196524758E-3,1.091081649E-4,2.179894596E-3,3.096540982E-3
5.949490833E0,-1.446600072E-4,-1.564421691E-3,2.525635064E-4,1.591266813E-3
5.959447833E0,1.033972250E-3,9.835092351E-4,3.828179091E-3,4.085504153E-3
5.969404833E0,5.042694975E-4,-3.222003579E-5,3.110721707E-3,3.151494153E-3
5.979361833E0,-1.200348139E-3,-4.071071744E-4,6.785534322E-3,6.902901415E-3
5.989318833E0,1.620472060E-3,-6.124367937E-4,4.333298653E-3,4.666742519E-3
5.999275833E0,1.367502613E-3,-9.529311210E-4,1.131506637E-3,2.014559105E-3
6.009232833E0,-9.864654858E-4,1.275129616E-4,1.096885651E-3,1.480720042E-3
6.019189833E0,5.466674920E-4,-1.339209266E-3,3.508862108E-3,3.795318181E-3
6.029146833E0,7.768487558E-5,-1.034543850E-3,4.303548485E-3,4.426832443E-3
6.039103833E0,-2.634281060E-3,2.040913329E-3,5.119353533E-3,6.108399505E-3
6.049060833E0,-1.088315854E-3,2.965296619E-3,6.789952517E-3,7.488716219E-3
6.059017833E0,9.587081149E-5,-1.745270565E-4,4.843151197E-3,4.847242971E-3
6.068974833E0,-7.542101666E-4,1.359187998E-3,1.810608432E-3,2.386320993E-3
6.078930833E0,2.603821922E-4,2.723705955E-3,3.738531843E-3,4.632817000E-3
6.088887833E0,-1.330057625E-3,-7.634367794E-4,2.664746717E-3,3.074534772E-3
6.098844833E0,9.825573070E-4,-2.650059760E-4,1.756647602E-3,2.030137391E-3
6.108801833E0,-1.886199694E-3,2.699892037E-3,2.748142928E-3,4.289458689E-3
6.118758833E0,-5.359230563E-4,1.046988182E-3,2.808293328E-3,3.044652556E-3
6.128715833E0,9.817560203E-5,1.314102672E-3,3.498850390E-3,3.738777653E-3
6.138672833E0,-1.014217967E-3,-1.194812357E-4,2.931289375E-3,3.104089440E-3
6.148629833E0,-2.858433872E-4,1.015616581E-4,2.516368404E-3,2.534586980E-3
6.158586833E0,1.456691185E-3,1.838058233E-4,2.312730998E-3,2.739426666E-3
6.168543833E0,-5.545164458E-5,-4.377765581E-4,2.358537167E-3,2.399462600E-3
6.178500833E0,1.583594363E-3,3.713741899E-4,3.324439749E-3,3.701025472E-3
6.188457833E0,-2.034842502E-3,1.844204962E-4,5.204631016E-3,5.591312810E-3
6.198414833E0,6.998587633E-4,-5.240496248E-4,1.163197681E-3,1.455149183E-3
6.208371833E0,-1.371281687E-3,3.827568144E-4,2.855369821E-3,3.190619542E-3
6.218327833E0,4.032909637E-4,-1.052675769E-3,-1.575293019E-3,1.937090079E-3
6.228284833E0,-3.353363834E-3,1.323662698E-3,3.275388852E-3,4.870862765E-3
6.238241833E0,-7.154189516E-4,5.631344393E-4,-1.060049981E-4,9.166142769E-4
6.248198833E0,-1.309570158E-3,2.319755033E-3,1.198144630E-3,2.920922451E-3
6.258155833E0,6.610620767E-5,-1.108741388E-3,3.370407969E-3,3.548707845E-3
6.268112833E0,-8.990233764E-4,1.659881324E-3,1.608196646E-3,2.479868039E-3
6.278069833E0,-1.881169155E-4,-3.787176684E-4,1.079337671E-3,1.159217346E-3
6.288026833E0,7.916600443E-4,-7.778033614E-5,1.419156790E-3,1.626893174E-3
6.297983833E0,5.046046572E-4,8.860854432E-4,-8.252132684E-4,1.311773689E-3
6.307940833E0,6.603995571E-4,2.048490569E-4,5.140900612E-4,8.616143581E-4
6.317897833E0,1.222532941E-3,-2.644257620E-3,2.717819065E-3,3.984121688E-3
6.327854833E0,1.180987572E-3,6.516706198E-4,3.346592188E-3,3.608196989E-3
6.337811833E0,-1.316240290E-3,5.374643952E-4,5.091890693E-3,5.286653696E-3
6.347768833E0,-9.718935471E-4,5.776779726E-4,1.548552886E-3,1.917369278E-3
6.357725833E0,-1.493593678E-3,-1.165620051E-3,1.640586182E-3,2.506195364E-3
6.367682833E0,-3.364502918E-4,-7.704067975E-4,1.924479380E-3,2.100082455E-3
6.377638833E0,-3.973224200E-3,2.742120996E-4,3.394670784E-3,5.233114996E-3
6.387596208E0,-6.189725827E-4,1.860391349E-3,3.526233137E-3,4.034662707E-3
6.397553208E0,-7.152911276E-4,1.260916702E-3,4.061771557E-3,4.312718459E-3
6.407510208E0,-2.666322980E-3,-5.087535828E-4,2.053216100E-3,3.403498905E-3
6.417467208E0,-1.049769111E-3,7.114009932E-4,3.622461110E-3,3.838011341E-3
6.427424208E0,-3.108925419E-3,7.774475962E-4,1.509241760E-3,3.542266607E-3
6.437381208E0,-6.504876073E-4,3.377604298E-3,5.795788020E-4,3.488159473E-3
6.447338208E0,1.679245732E-3,-1.361490227E-3,2.038069069E-4,2.171418689E-3
6.457295208E0,7.671255153E-4,-6.566038355E-4,1.836307347E-3,2.095622777E-3
6.467252208E0,-1.187901013E-3,-1.543703489E-3,2.710355446E-3,3.337687211E-3
6.477209208E0,2.284010407E-3,-5.202731118E-4,3.595843911E-3,4.291559283E-3
6.487166208E0,4.815829452E-4,-1.365114003E-4,2.224316821E-3,2.279943599E-3
6.497123208E0,-7.524813991E-4,6.264420226E-4,6.384845823E-3,6.459482491E-3
6.507080208E0,-8.502195124E-4,9.002145380E-4,1.126967371E-3,1.674310272E-3
6.517037208E0,3.236296121E-3,1.589404419E-3,2.398896962E-3,4.330649562E-3
6.526993208E0,-1.064975280E-3,-7.978528738E-4,4.248196259E-3,4.451731462E-3
6.536950208E0,1.058816095E-3,7.337052375E-4,2.884814516E-3,3.159362228E-3
6.546907208E0,1.089442521E-3,-2.591209486E-4,3.841420636E-3,4.001317430E-3
6.556864208E0,-1.043673605E-3,2.367701381E-5,2.588154748E-3,2.790763371E-3
6.566821208E0,-8.609807119E-4,-6.732726470E-4,3.886446357E-3,4.037208086E-3
6.576778208E0,-1.800618134E-3,7.125474513E-4,1.019170508E-3,2.188300267E-3
6.586735208E0,-2.654427662E-3,1.436965540E-4,1.463651657E-3,3.034618772E-3
6.596692208E0,1.516503165E-3,3.811903298E-5,6.128799170E-3,6.313748030E-3
6.606649208E0,-8.752818685E-4,-1.161634922E-3,3.946073353E-3,4.205592580E-3
6.616606208E0,-1.524817664E-3,1.674904488E-3,2.398870885E-3,3.299235590E-3
6.626563208E0,-7.532997988E-4,-1.507839188E-3,4.578404129E-3,4.878813787E-3
6.636520208E0,-1.158959465E-3,-6.940029562E-4,2.444474027E-3,2.792898210E-3
6.646477208E0,-1.886021346E-5,9.220037609E-4,3.836508840E-3,3.945788479E-3
6.656434208E0,-3.212862648E-4,4.712762311E-4,2.208840102E-3,2.281293656E-3
6.666390208E0,-8.573806845E-4,3.796629608E-4,3.444014117E-3,3.569380736E-3
6.676347208E0,2.494987566E-4,-1.200811006E-3,5.197480321E-3,5.340224563E-3
6.686304208E0,-2.399281366E-3,2.838139422E-3,2.426726744E-3,4.438534571E-3
6.696261208E0,1.476652455E-3,3.153933212E-4,2.424757928E-3,2.856470974E-3
6.706218208E0,-1.776398858E-3,-6.590569392E-4,3.100669011E-3,3.633744249E-3
6.716175208E0,2.231865656E-4,6.764885038E-4,2.103131264E-3,2.220497704E-3
6.726132208E0,-1.018112758E-3,3.459900618E-4,2.568384632E-3,2.784396224E-3
6.736089208E0,-1.278490294E-3,-1.665117219E-3,4.013614729E-3,4.529487386E-3
6.746046208E0,3.201479092E-3,-1.078955829E-3,1.927293837E-3,3.889482690E-3
6.756003208E0,4.409346730E-5,-1.090732403E-3,3.790371120E-3,3.944433373E-3
6.765960208E0,-2.398025244E-3,-1.224156469E-3,2.224965021E-3,3.492785919E-3
6.775917208E0,6.042753812E-4,1.397975720E-3,2.730097622E-4,1.547261834E-3
6.785874208E0,-7.318325806E-4,2.941543236E-3,4.098905250E-3,5.097968202E-3
6.795831208E0,1.188211143E-3,-2.133804373E-3,3.481427208E-3,4.252681769E-3
6.805788208E0,-1.333535882E-3,1.701147296E-3,2.071550116E-3,2.993917158E-3
6.815745208E0,1.601322321E-3,1.798413694E-3,3.377761692E-3,4.148228422E-3
6.825701208E0,-7.582383696E-4,-9.968401864E-4,1.737788320E-3,2.142084038E-3
6.835658208E0,1.825554413E-3,3.621050157E-3,-7.485244423E-4,4.123704887E-3
6.845615208E0,-1.048795180E-3,3.986256197E-4,-8.060410619E-5,1.124886989E-3
6.855572208E0,7.551853778E-4,6.039394066E-4,1.728354022E-3,1.980468477E-3
6.865529208E0,3.146985546E-4,-5.284370854E-4,3.083636984E-3,3.144375611E-3
6.875486208E0,-4.058843479E-4,1.820341684E-3,2.850037068E-3,3.406038350E-3
6.885443208E0,-4.153750837E-3,1.416074112E-3,1.763733104E-3,4.729658166E-3
6.895400208E0,7.199378451E-4,-5.698045716E-4,7.053110749E-4,1.157778676E-3
6.905357208E0,-1.077429624E-3,1.764988527E-3,1.031547785E-3,2.310872114E-3
6.915314208E0,-2.545695752E-4,-1.316966489E-3,-1.237116754E-3,1.824736766E-3
6.925271208E0,-1.093465136E-3,1.570167020E-3,1.902217045E-3,2.698058591E-3
6.935228208E0,7.726710755E-4,-5.421461537E-4,2.810284495E-3,2.964564384E-3
6.945185208E0,-3.336060327E-4,-1.078773290E-3,4.853729159E-3,4.983345417E-3
6.955142208E0,1.201143372E-3,9.696567431E-4,1.662947237E-3,2.269002669E-3
6.965099208E0,2.454160713E-3,-1.364338212E-3,1.776663586E-3,3.322778515E-3
6.975056208E0,-1.861875644E-3,-1.479112543E-3,2.431394532E-3,3.400887267E-3
6.985012208E0,-1.079438953E-3,-3.960048780E-4,1.374918967E-3,1.792319861E-3
6.994969208E0,-1.528996974E-3,3.045778722E-4,1.190539449E-3,1.961627796E-3
7.004926208E0,1.890768297E-3,-5.236649886E-4,3.814553842E-3,4.289528038E-3
7.014883208E0,8.698101155E-4,1.787180081E-3,1.314463094E-3,2.382938418E-3
7.024840208E0,3.156062448E-4,-1.261606812E-3,2.080921084E-3,2.453872777E-3
7.034797208E0,9.787246818E-4,1.097424887E-3,1.241855323E-3,1.924694269E-3
7.044754208E0,1.030773856E-4,5.136607215E-4,1.205636188E-3,1.314545892E-3
7.054711208E0,1.951981103E-3,-1.072609797E-3,2.375757322E-3,3.256523431E-3
7.064668208E0,2.967178123E-3,3.718892112E-4,-1.106590033E-3,3.188571639E-3
7.074625208E0,-3.251421731E-4,-2.521825954E-4,1.379791647E-3,1.439839742E-3
7.084582208E0,1.141460612E-3,1.111621968E-3,1.457557082E-3,2.159423159E-3
7.094539208E0,3.309194464E-3,9.102132171E-4,1.988619566E-3,3.966593486E-3
7.104496208E0,1.451107091E-3,1.425801776E-3,2.058658749E-3,2.894252639E-3
7.114453208E0,2.032716060E-3,7.150266320E-4,4.273250699E-3,4.785798701E-3
7.124410208E0,6.928796647E-4,8.961213753E-4,4.481244832E-3,4.622193310E-3
7.134366208E0,-2.990223002E-4,1.700538211E-3,8.994061500E-4,1.946837426E-3
7.144323208E0,1.226702589E-3,2.748757601E-3,-2.017021179E-3,3.623374398E-3
7.154280208E0,2.212507883E-3,-2.406976186E-3,5.735438317E-4,3.319288782E-3
7.164237208E0,-1.340415329E-3,1.210661605E-3,3.803160042E-3,4.210278028E-3
7.174194208E0,-7.324682083E-4,5.547869951E-4,7.661934942E-4,1.196390721E-3
7.184151208E0,1.047854894E-3,-3.469586372E-4,-2.060219646E-3,2.337281575E-3
7.194108208E0,1.161660766E-3,2.645250410E-3,4.122063518E-3,5.033707690E-3
7.204065208E0,-9.480954614E-4,1.816741191E-3,3.859158605E-4,2.085273270E-3
7.214022208E0,1.208741451E-3,-2.229865640E-4,3.701446578E-3,3.900190466E-3
7.223979208E0,-4.211131018E-4,-3.402801231E-3,1.662530005E-3,3.810564063E-3
7.233936208E0,-2.226046752E-3,5.676439032E-4,2.136137336E-4,2.307191923E-3
7.243893208E0,3.183373483E-4,-2.374616452E-3,6.253384054E-4,2.476124003E-3
7.253850208E0,-5.949304905E-4,-2.536112443E-4,1.594631001E-3,1.720787315E-3
7.263807208E0,9.933788097E-4,3.787469119E-3,6.952807307E-4,3.976825251E-3
7.273764208E0,-1.620813739E-3,-9.677372873E-5,9.424686432E-4,1.877404984E-3
7.283721208E0,3.856117837E-4,2.622203901E-4,1.544876024E-3,1.613721758E-3
7.293677208E0,-9.022941813E-4,-2.322485670E-4,2.736523747E-3,2.890784739E-3
7.303634208E0,1.137017971E-4,1.218108460E-3,-4.230495542E-4,1.294483389E-3
7.313591208E0,-1.386950258E-3,-1.098332927E-3,3.183878958E-3,3.642396389E-3
7.323548208E0,2.213110914E-3,4.801228642E-4,-2.121850848E-4,2.274511023E-3
7.333505208E0,3.948030062E-4,1.029589213E-3,-7.838066667E-4,1.352877028E-3
7.343462208E0,-6.214592140E-4,1.707896590E-3,3.818932921E-3,4.229346400E-3
7.353419208E0,2.252477454E-3,-1.302854158E-3,1.670081168E-3,3.091966162E-3
7.363376208E0,2.852221252E-3,1.132340170E-3,1.501768827E-3,3.416528932E-3
7.373333208E0,-2.175115515E-4,2.761305310E-3,8.533895016E-4,2.898342963E-3
7.383290208E0,-2.888843883E-4,7.282486185E-4,1.267245039E-3,1.489869199E-3
7.393247208E0,-1.484853216E-3,3.756839782E-3,3.451924771E-3,5.313606952E-3
7.403204208E0,-5.500835832E-4,-3.175307065E-4,-8.623972535E-4,1.071049355E-3
7.413161208E0,1.822621794E-3,5.943123251E-4,4.272501916E-3,4.682886926E-3
7.423118208E0,-3.068806138E-3,1.429058611E-4,1.560604200E-3,3.445791443E-3
7.433075208E0,8.825744735E-4,1.179948449E-4,1.910323277E-3,2.107651657E-3
7.443031208E0,-8.434201591E-4,9.385142475E-4,1.792879775E-3,2.192392402E-3
7.452988208E0,-1.819232712E-3,1.605380327E-3,3.062201664E-3,3.906908328E-3
7.462945208E0,7.547124987E-4,1.811217517E-4,5.263406783E-4,9.377795873E-4
7.472902208E0,-5.019582808E-3,-3.223938867E-3,4.493128508E-4,5.982631146E-3
7.482859208E0,7.368400693E-4,1.645650715E-3,2.326307818E-3,2.943264791E-3
7.492816208E0,-2.587342169E-4,1.966369338E-3,2.759756520E-3,3.398500820E-3
7.502773208E0,2.802896779E-4,1.357837580E-3,1.574914902E-3,2.098247399E-3
7.512730208E0,-2.278226428E-3,1.615101472E-3,2.241682261E-3,3.581062381E-3
7.522687208E0,-4.401125479E-4,1.815637574E-3,4.380732775E-3,4.762463490E-3
7.532644208E0,1.635018620E-3,5.057863891E-4,-3.224331886E-4,1.741570819E-3
7.542601208E0,-2.000728855E-3,1.672517508E-3,6.887689233E-4,2.697152831E-3
7.552558208E0,6.101444596E-4,1.796456985E-3,1.361848786E-3,2.335415611E-3
7.562515208E0,-1.106795389E-3,7.655471563E-4,2.015123144E-3,2.423175554E-3
7.572472208E0,-6.490289234E-4,2.092206851E-4,3.888048232E-4,7.849719925E-4
7.582429208E0,1.133158454E-3,5.333274603E-4,1.513456926E-3,1.964443465E-3
7.592385208E0,1.094128238E-3,3.151474521E-4,2.625584602E-4,1.168491105E-3
7.602342208E0,-4.955125041E-4,-1.305919141E-3,2.679908648E-3,3.022063501E-3
7.612299208E0,1.094097970E-4,-3.266567364E-4,9.289067239E-4,9.907284334E-4
7.622256208E0,3.008260624E-3,-7.402449846E-4,1.046352088E-3,3.269930781E-3
7.632213208E0,1.669624704E-3,1.459137537E-3,1.840958372E-3,2.881988329E-3
7.642170208E0,3.300546668E-4,3.059888259E-4,4.635713995E-4,6.461142987E-4
7.652127208E0,-7.408496458E-4,-1.242999919E-3,4.097420722E-3,4.345430194E-3
7.662084208E0,4.302710295E-6,-4.368610680E-4,2.914179116E-3,2.946744989E-3
7.672041208E0,-2.062549815E-3,2.197395079E-3,2.543834969E-3,3.943824695E-3
7.681998208E0,4.807688529E-4,1.601379365E-3,1.544350758E-3,2.276087394E-3
7.691955208E0,-9.197520558E-4,1.331372187E-3,1.882640645E-3,2.482505094E-3
7.701912208E0,7.973238826E-5,2.164674923E-3,1.964131370E-3,2.924036049E-3
7.711869208E0,-1.723543275E-3,1.791752875E-3,2.175934613E-3,3.303887290E-3
7.721826208E0,-4.361711908E-4,-2.213641070E-3,3.013763577E-3,3.764734119E-3
7.731783208E0,-2.115762327E-4,1.777564175E-3,2.333778888E-3,2.941262110E-3
7.741740208E0,2.110966481E-3,-3.343960270E-3,4.882086068E-4,3.984544819E-3
7.751696208E0,-1.538287965E-3,1.359998249E-3,2.941247076E-3,3.587040488E-3
7.761653208E0,-4.658329999E-4,7.211053744E-4,1.027500257E-3,1.338936191E-3
7.771610208E0,-1.616473659E-3,9.056739509E-5,2.406068146E-3,2.900060942E-3
7.781567208E0,-8.167264750E-4,-4.809470847E-4,3.733389080E-3,3.851823757E-3
7.791524208E0,-8.722917410E-4,-1.365406439E-3,1.602385193E-3,2.278786065E-3
7.801481208E0,-8.371380391E-4,-2.014419064E-3,3.432426602E-4,2.208279825E-3
7.811438208E0,1.088578487E-3,-3.748759627E-5,-6.625521928E-4,1.274905428E-3
7.821395208E0,6.046821363E-4,1.604084857E-3,1.425100490E-3,2.229268966E-3
7.831352208E0,1.415173057E-3,2.241310664E-3,-1.179361716E-3,2.901220834E-3
7.841309208E0,-2.081823768E-3,3.057252616E-4,2.774368972E-3,3.482036951E-3
7.851266208E0,1.639951486E-3,-6.274888292E-4,3.175811842E-3,3.628906717E-3
7.861223208E0,-2.591811586E-3,-8.599832654E-4,-8.469447494E-5,2.732074609E-3
7.871180208E0,-7.545963163E-4,-1.307474449E-3,1.642435789E-3,2.230807109E-3
7.881137208E0,-3.296583891E-3,5.157254636E-4,1.706887037E-3,3.747919618E-3
7.891094208E0,5.269091344E-4,1.472113654E-4,-1.094890758E-3,1.223964948E-3
7.901051208E0,1.898437040E-3,-1.146019436E-3,-2.783648670E-4,2.234929695E-3
7.911007208E0,-2.590102376E-4,3.434726968E-4,2.240352333E-3,2.281279985E-3
7.920964208E0,4.134379560E-4,-6.171297282E-4,-6.172209978E-4,9.657855896E-4
7.930921208E0,-1.953559695E-3,-1.322208904E-3,3.694701940E-3,4.383543577E-3
7.940878208E0,4.904232919E-4,-2.460710704E-3,8.656270802E-4,2.654227273E-3
7.950835208E0,1.255362062E-3,-1.544122584E-3,3.121364862E-4,2.014367803E-3
7.960792208E0,8.934384678E-4,5.946615711E-4,6.956309080E-4,1.278967177E-3
7.970749208E0,-3.580102930E-4,6.437422708E-4,-9.187757969E-4,1.177592649E-3
7.980706208E0,2.908622846E-3,6.109857932E-4,-1.994557679E-4,2.978787187E-3
7.990663208E0,9.062899044E-4,-9.963056073E-4,4.995670170E-4,1.436507382E-3
8.000620208E0,2.964380663E-3,-1.302302815E-3,2.872012556E-5,3.237957718E-3
8.010577208E0,4.106478300E-4,1.175443642E-3,3.387242556E-3,3.608837974E-3
8.020534208E0,-1.967022428E-3,1.455992460E-4,3.896970302E-3,4.367694347E-3
8.030491208E0,-2.405710984E-4,3.146398813E-4,4.808124155E-3,4.824409870E-3
8.040448208E0,-1.428873744E-3,-1.054224558E-3,1.538295299E-3,2.349345020E-3
8.050405208E0,5.502586719E-4,4.252307117E-4,-5.379151553E-4,8.791805721E-4
8.060361208E0,-6.340490654E-4,-1.068803482E-3,-7.738713175E-4,1.463979479E-3
8.070318208E0,-1.820535865E-3,2.798382193E-4,7.853060961E-4,2.002340113E-3
8.080275208E0,8.314399747E-4,5.266629159E-6,8.462928236E-4,1.186394417E-3
8.090232208E0,-1.823544735E-3,-4.227571189E-4,5.794692785E-3,6.089540496E-3
8.100189208E0,-2.052043797E-3,2.255051397E-3,2.953365445E-3,4.244821316E-3
8.110146208E0,1.033542794E-3,1.745095477E-3,4.034377635E-4,2.067929147E-3
8.120103208E0,-2.735362854E-3,-1.809028909E-4,-9.683575481E-4,2.907344517E-3
8.130060208E0,2.012156416E-3,7.509291172E-4,-1.852026209E-3,2.835959989E-3
8.140017208E0,-8.249089587E-4,-8.834525943E-4,-1.881854609E-3,2.236591166E-3
8.149974208E0,-1.839776756E-3,1.141650602E-3,1.163553447E-3,2.458048257E-3
8.159931208E0,6.012234371E-5,-1.491416246E-3,1.098571345E-3,1.853320295E-3
8.169888208E0,9.094147244E-4,3.491854295E-4,3.391996026E-3,3.529107911E-3
8.179845208E0,2.532119397E-4,-4.649423063E-4,4.781633615E-3,4.810853112E-3
8.189802208E0,-6.876604166E-4,1.440351829E-3,3.136232495E-3,3.519011865E-3
8.199759208E0,-1.327618025E-3,1.373772509E-3,-1.053450629E-3,2.181645882E-3
8.209715208E0,8.729257388E-4,-1.038090326E-3,5.244649947E-5,1.357343547E-3
8.219672208E0,-7.968762657E-4,-9.752390906E-4,3.008287400E-3,3.261272167E-3
8.229629208E0,-9.528133087E-4,2.396713011E-3,1.636359841E-3,3.054465581E-3
8.239586208E0,2.885600785E-3,-2.635186538E-4,2.137031406E-3,3.600421809E-3
8.249543208E0,-1.039011404E-3,1.331949607E-3,2.161491662E-3,2.743297406E-3
8.259500208E0,-9.103806224E-4,2.831965685E-4,2.518087626E-3,2.692537551E-3
8.269457208E0,-2.091401955E-3,1.148646697E-4,1.541037112E-3,2.600375245E-3
8.279414208E0,-1.134528080E-3,1.719419844E-3,-4.970803857E-4,2.119114786E-3
8.289371208E0,-2.018694766E-3,7.292050868E-4,-8.783712983E-4,2.319138796E-3
8.299328208E0,1.987498486E-3,-3.035439178E-3,-3.233682364E-4,3.642610088E-3
8.309285208E0,5.209541414E-4,-1.905467361E-3,-1.159422100E-3,2.290514939E-3
8.319242208E0,-1.034331974E-3,-1.063908450E-3,2.306949347E-3,2.742947158E-3
8.329199208E0,2.124193124E-3,1.663582399E-3,2.601303160E-3,3.747863520E-3
8.339156208E0,-1.988823060E-4,3.798957914E-5,2.321563661E-4,3.080486294E-4
8.349113208E0,7.961491356E-4,1.199050806E-3,1.942235976E-4,1.452342621E-3
8.359070208E0,2.001495799E-3,-2.145080827E-3,7.340479642E-4,3.024265796E-3
8.369026208E0,2.604876645E-4,-7.003638893E-4,1.658856869E-3,1.819387125E-3
8.378983208E0,-2.818126697E-3,2.630984411E-3,2.192553133E-3,4.435223364E-3
8.388943333E0,-8.943560533E-4,-2.005258575E-4,-2.325147390E-3,2.499278647E-3
8.398900333E0,1.767673530E-4,-8.641863242E-4,1.010729000E-3,1.341505800E-3
8.408857333E0,5.666334182E-4,-2.383437008E-3,1.076485962E-3,2.675942344E-3
8.418814333E0,2.041901462E-5,-4.901960492E-4,-2.555534244E-3,2.602203753E-3
8.428771333E0,-3.252106253E-4,1.315651461E-4,-1.412369311E-4,3.781788059E-4
8.438728333E0,-1.389409881E-3,1.166509464E-4,5.610398948E-4,1.502941457E-3
8.448685333E0,-1.587758306E-3,2.414708957E-3,7.422957569E-4,2.983755817E-3
8.458642333E0,1.366219949E-3,-6.247563288E-4,1.715794206E-4,1.512057180E-3
8.468599333E0,7.243334549E-4,6.220750511E-4,5.626641214E-4,1.108254139E-3
8.478556333E0,-1.675591338E-4,1.472337171E-4,-8.267071098E-4,8.562700954E-4
8.488513333E0,2.280500485E-4,1.177067868E-3,2.109277993E-4,1.217368526E-3
8.498470333E0,3.544218140E-3,6.891768426E-4,-2.380814403E-4,3.618442996E-3
8.508427333E0,1.198479906E-3,-1.450155862E-3,1.809203997E-3,2.610081457E-3
8.518384333E0,5.649138475E-4,-1.143093221E-3,6.478000432E-4,1.430186933E-3
8.528341333E0,-1.545059495E-3,-2.924352884E-4,1.037687063E-3,1.884017431E-3
8.538297333E0,-4.297276028E-4,-9.425133467E-4,1.423321664E-4,1.045588670E-3
8.548254333E0,1.555401599E-3,4.503941163E-4,-1.390334219E-3,2.134281667E-3
8.558211333E0,7.790901000E-4,2.804845572E-4,1.521687955E-4,8.419075442E-4
8.568168333E0,-1.341158058E-4,2.783151343E-3,1.061931252E-4,2.788403742E-3
8.578125333E0,-1.113626407E-3,3.631366417E-4,-1.193750650E-4,1.177404944E-3
8.588082333E0,3.219844075E-4,-2.331769094E-3,2.261646092E-3,3.264332108E-3
8.598039333E0,1.621606993E-3,7.606940344E-4,1.151107252E-3,2.129157711E-3
8.607996333E0,-2.993103117E-3,-1.797365956E-3,5.133785307E-4,3.528845160E-3
8.617953333E0,-4.436592571E-4,-1.137700863E-3,2.621270716E-3,2.891756725E-3
8.627910333E0,1.060564304E-3,-3.883729689E-3,-6.223618984E-4,4.073755917E-3
8.637867333E0,-8.760865312E-4,-1.587552950E-3,1.846389845E-3,2.587857693E-3
8.647824333E0,-1.694646897E-3,2.219127491E-4,1.661773771E-3,2.383813214E-3
8.657781333E0,8.862225804E-4,3.990130499E-4,2.068970352E-3,2.285878430E-3
8.667738333E0,2.683734521E-3,3.403425217E-5,2.277463675E-3,3.520004276E-3
8.677695333E0,-5.517399404E-4,2.592799254E-3,-6.216522306E-4,2.722769992E-3
8.687651333E0,2.454444766E-4,1.232156530E-3,2.225302160E-5,1.256561937E-3
8.697608333E0,3.159255721E-5,-1.364958473E-3,-1.668056473E-3,2.155579300E-3
8.707565333E0,-4.255496897E-4,-3.135334700E-4,2.006899565E-3,2.075341331E-3
8.717522333E0,-2.209867351E-3,2.153702080E-4,1.355223358E-3,2.601255155E-3
8.727479333E0,-1.111665973E-3,-6.872070953E-4,2.212330699E-3,2.569525627E-3
8.737436333E0,-1.870468259E-5,-1.323702745E-3,-2.825185657E-4,1.353645287E-3
8.747393333E0,6.598844193E-4,7.889745757E-4,9.141415358E-4,1.376075243E-3
8.757350333E0,-1.465051901E-3,2.286204137E-3,-4.837512970E-4,2.758101112E-3
8.767307333E0,2.551445272E-3,-9.795753285E-4,-1.571873203E-3,3.152812422E-3
8.777264333E0,1.122659422E-3,1.180514693E-3,8.007362485E-4,1.815256912E-3
8.787221333E0,-6.437574048E-4,-3.886846825E-4,3.623649478E-3,3.700855971E-3
8.797178333E0,-1.591576263E-3,-1.392163336E-3,1.353573054E-3,2.510656044E-3
8.807135333E0,-1.869512256E-3,7.291743532E-4,3.500916064E-4,2.036991764E-3
8.817092333E0,-6.497844588E-4,8.868342265E-4,-1.460591331E-3,1.828119751E-3
8.827049333E0,3.357819747E-3,2.132328227E-4,-2.375775948E-3,4.118826659E-3
8.837006333E0,1.171630807E-3,-6.216680631E-4,-4.913229495E-4,1.414421497E-3
8.846963333E0,-1.671675127E-4,-5.300277844E-4,1.691313460E-3,1.780285272E-3
8.856919333E0,-4.366794601E-4,1.456160098E-4,2.107566223E-3,2.157250184E-3
8.866876333E0,8.957382524E-4,-1.162150875E-4,1.241605729E-3,1.535394982E-3
8.876833333E0,-1.579137286E-3,2.457089722E-4,1.722838730E-3,2.349940586E-3
8.886790333E0,-1.675827196E-3,1.586019993E-3,9.253341705E-4,2.485980598E-3
8.896747333E0,-2.414588118E-3,2.296817489E-3,8.212048560E-4,3.432198096E-3
8.906704333E0,-5.378900096E-5,7.731467485E-4,2.155208960E-3,2.290321989E-3
8.916661333E0,-8.090613410E-4,-8.519142866E-4,1.200200990E-3,1.679529881E-3
8.926618333E0,-1.342830947E-3,-4.081623629E-4,3.966674209E-3,4.207647293E-3
8.936575333E0,-6.908890791E-4,-2.143744379E-3,1.428414136E-3,2.667083543E-3
8.946532333E0,5.496889353E-4,-5.285758525E-4,1.159043983E-3,1.387419659E-3
8.956489333E0,5.132036749E-4,-1.800501719E-3,-1.852458343E-3,2.633777964E-3
8.966446333E0,-1.344603021E-3,-7.659476250E-4,-1.624226570E-4,1.555960850E-3
8.976403333E0,-3.451188095E-4,-1.598121598E-4,-6.761401892E-5,3.862882015E-4
8.986360333E0,-9.657049086E-4,-1.133940183E-3,4.416164011E-4,1.553522241E-3
8.996317333E0,-1.816703007E-4,2.642199397E-4,1.369196922E-3,1.406241972E-3
9.006274333E0,9.854621021E-4,-2.062356099E-3,2.533337101E-3,3.412073432E-3
9.016230333E0,6.834595697E-4,-1.415207982E-3,1.696037129E-3,2.312244052E-3
9.026187333E0,-5.173545796E-4,1.929515041E-3,-2.661067992E-4,2.015315579E-3
9.036144333E0,-1.790878363E-3,-7.882406935E-4,1.943517476E-3,2.757866727E-3
9.046101333E0,1.840113779E-3,-7.997062057E-4,1.194758341E-3,2.335165139E-3
9.056058333E0,8.747179527E-4,-1.363130286E-4,1.139095053E-3,1.442653901E-3
9.066015333E0,-1.245171530E-3,-1.243612729E-3,-5.814116448E-4,1.853392635E-3
9.075972333E0,1.106399694E-3,-2.938448451E-3,1.918764785E-3,3.679708940E-3
9.085929333E0,2.035163809E-3,2.347190864E-3,-4.054307938E-4,3.132981138E-3
9.095886333E0,-2.179821488E-3,1.812418923E-4,7.027108222E-4,2.297449203E-3
9.105843333E0,-4.611760378E-4,-1.436630264E-4,-2.555092797E-3,2.600350285E-3
9.115800333E0,-8.976683021E-4,1.000963151E-3,-4.591848701E-4,1.420769635E-3
9.125757333E0,-9.643023368E-4,1.221551560E-3,1.990411431E-3,2.526619258E-3
9.135714333E0,3.475708654E-4,1.078539528E-3,3.447957337E-3,3.629388766E-3
9.145671333E0,-6.654676981E-4,-8.492544293E-5,4.583783448E-5,6.724289518E-4
9.155628333E0,1.227773493E-3,2.051196061E-3,-6.215497851E-4,2.470052058E-3
9.165585333E0,1.099449000E-3,2.784226090E-4,-1.024350524E-3,1.528267401E-3
9.175541333E0,5.692136474E-4,1.849792898E-5,-9.996816516E-5,5.782213969E-4
9.185498333E0,-1.790654380E-3,1.430513337E-3,-2.278557047E-3,3.231815857E-3
9.195455333E0,5.766295362E-4,-5.953535438E-4,-1.707842574E-3,1.898334459E-3
9.205412333E0,9.873292875E-4,-3.766156733E-4,-2.040099353E-4,1.076233497E-3
9.215369333E0,-5.589020438E-4,8.899839595E-4,1.556873322E-3,1.878376289E-3
9.225326333E0,2.071357332E-3,-1.085922122E-6,-1.888293773E-4,2.079946853E-3
9.235283333E0,-1.992093865E-3,-1.744581386E-4,1.487363130E-3,2.492212408E-3
9.245240333E0,-7.316982374E-5,-6.474135444E-4,1.463662833E-3,1.602125778E-3
9.255197333E0,-7.849605754E-5,3.707129508E-4,-4.514157772E-4,5.893775758E-4
9.265154333E0,4.433059366E-4,-1.125036739E-3,-4.826392978E-4,1.301986370E-3
9.275111333E0,-2.008666517E-3,-8.102506399E-4,-1.615813002E-3,2.702239615E-3
9.285068333E0,8.252670523E-4,1.696418971E-3,-2.224305645E-3,2.916579955E-3
9.295025333E0,-1.601024996E-4,-7.984302938E-4,1.187738031E-3,1.440085197E-3
9.304982333E0,-3.665667027E-4,6.088428199E-4,-1.180358231E-4,7.204118145E-4
9.314939333E0,6.087077782E-5,-1.439660788E-3,1.298233867E-3,1.939520458E-3
9.324896333E0,-5.555646494E-4,-2.193713561E-3,3.809314221E-4,2.294807185E-3
9.334852333E0,1.629561884E-4,7.157120854E-5,-1.147190109E-3,1.160914425E-3
9.344809333E0,3.381606657E-4,1.021499746E-3,-1.037605107E-4,1.081009070E-3
9.354766333E0,-1.261067577E-3,1.703801565E-3,1.583617181E-3,2.645954380E-3
9.364723333E0,-6.984584033E-4,-1.264267601E-3,1.419622451E-3,2.025227052E-3
9.374680333E0,6.906464696E-4,-1.965211704E-3,-6.685610861E-4,2.187698223E-3
9.384637333E0,4.927464761E-5,-5.595674738E-4,5.729068071E-4,8.023502715E-4
9.394590500E0,7.076080656E-4,-1.393403858E-3,-3.634598106E-4,1.604489489E-3
9.404547500E0,-1.463013468E-3,-3.102328628E-5,-1.672590151E-3,2.222370056E-3
9.414504500E0,9.950842941E-4,-1.247664914E-4,8.118730038E-4,1.290308957E-3
9.424461500E0,-1.328529092E-3,-1.255450770E-4,1.014761627E-3,1.676452288E-3
9.434418500E0,1.263791812E-3,-6.535742432E-5,7.567014545E-4,1.474462081E-3
9.444375500E0,-2.115893643E-3,-6.175469607E-4,2.037215978E-3,3.001436173E-3
9.454332500E0,3.035883419E-4,1.443829387E-4,9.431913495E-4,1.001310260E-3
9.464289500E0,1.689829049E-3,2.625801601E-3,1.864716411E-3,3.636966257E-3
9.474246500E0,1.173708471E-3,7.882211357E-4,9.829439223E-4,1.721935797E-3
9.484203500E0,-1.509664580E-3,-7.544616237E-4,-1.372992992E-3,2.175639962E-3
9.494160500E0,2.253848361E-4,3.664623946E-4,-4.241093993E-4,6.041206780E-4
9.504116500E0,2.745167119E-3,3.914507106E-4,-5.799103528E-4,2.832926436E-3
9.514073500E0,1.579767792E-3,-1.320961863E-3,2.974346280E-3,3.617643199E-3
9.524030500E0,-2.391731367E-3,-9.099738672E-4,-1.634204760E-3,3.036289935E-3
9.533987500E0,1.253869850E-3,6.610248238E-4,6.771534681E-4,1.570885177E-3
9.543944500E0,2.123387065E-3,6.481604651E-4,5.151070654E-4,2.279083128E-3
9.553901500E0,1.542019076E-3,-2.494635992E-3,1.169180498E-3,3.157216273E-3
9.563858500E0,1.588331768E-3,7.534567267E-4,-9.234622121E-5,1.760404121E-3
9.573815500E0,-7.424668875E-4,-8.517317474E-5,-7.743816823E-4,1.076187037E-3
9.583772500E0,5.988543853E-5,-7.419046015E-4,-1.387886703E-3,1.574877203E-3
9.593729500E0,-2.855210798E-3,3.494592384E-4,-3.287475556E-4,2.895241858E-3
9.603686500E0,-2.055063378E-4,3.528148867E-3,1.268114895E-3,3.754754675E-3
9.613643500E0,1.140455250E-3,-2.454109490E-3,8.574537933E-4,2.838752996E-3
9.623600500E0,3.505616914E-4,1.520647667E-3,1.707762480E-3,2.313377512E-3
9.633557500E0,-8.230933454E-4,-8.274614811E-4,1.241974533E-3,1.704310974E-3
9.643514500E0,9.548298549E-4,-1.168340445E-3,-3.204621375E-3,3.542078147E-3
9.653471500E0,-3.282811958E-4,-1.317476854E-3,-2.499949187E-3,2.844865505E-3
9.663427500E0,3.061346244E-3,-1.173906028E-3,-1.785568893E-3,3.733383514E-3
9.673384500E0,4.562421236E-4,-4.077143967E-4,2.861041576E-4,6.754579881E-4
9.683341500E0,2.664625645E-4,-8.293883875E-4,-1.260679215E-3,1.532383594E-3
9.693298500E0,-2.950902330E-3,5.890112370E-4,1.953756437E-3,3.587746230E-3
9.703255500E0,-4.566193093E-4,-1.013032161E-3,3.047144040E-3,3.243427532E-3
9.713212500E0,1.915724482E-3,-1.423957758E-3,2.310248092E-3,3.321882333E-3
9.723169500E0,-1.639508409E-3,-2.241969109E-3,-3.129243851E-7,2.777483286E-3
9.733126500E0,2.278267872E-3,-4.019914195E-4,-1.015244052E-3,2.526424763E-3
9.743083500E0,-5.909637548E-4,2.345267683E-3,-5.062054843E-4,2.470984148E-3
9.753040500E0,-2.993401140E-3,4.818541929E-4,4.477389157E-4,3.064817121E-3
9.762997500E0,-1.221926184E-3,2.218346111E-3,-3.552008420E-4,2.557407028E-3
9.772954500E0,-1.046956517E-3,6.191181019E-4,1.907953992E-3,2.262678415E-3
9.782911500E0,6.613694131E-5,1.094359905E-4,-1.587457955E-4,2.038395413E-4
9.792868500E0,-1.205256209E-3,2.617601305E-3,-3.677420318E-5,2.881983946E-3
9.802825500E0,7.569186855E-4,8.467212319E-5,-1.116791740E-3,1.351783657E-3
9.812782500E0,9.822221473E-4,1.104928553E-3,-1.708013937E-3,2.258968584E-3
9.822739500E0,-9.536326397E-4,-1.430781558E-4,-3.087706864E-4,1.012534398E-3
9.832695500E0,1.772112795E-3,-1.657084562E-3,-8.864104748E-4,2.583028558E-3
9.842652500E0,-3.576725721E-4,-2.363743261E-4,1.258248463E-3,1.329282395E-3
9.852609500E0,3.027913626E-4,-1.192715019E-3,1.240404323E-3,1.747242001E-3
9.862566500E0,8.825002005E-4,1.114755869E-4,1.766199246E-3,1.977547265E-3
9.872523500E0,1.226846944E-3,-8.970629424E-4,-1.208819449E-3,1.941937127E-3
9.882480500E0,-6.783374120E-4,-3.800784238E-3,-7.640868425E-4,3.935724986E-3
9.892437500E0,-1.377949957E-3,2.662440762E-3,-9.049680084E-4,3.131501875E-3
9.902394500E0,-2.280829940E-3,-2.265805379E-4,8.720327169E-4,2.452338683E-3
9.912351500E0,-8.813389577E-4,1.285562292E-3,1.031557098E-3,1.869101070E-3
9.922308500E0,-6.806722376E-4,-1.034603454E-3,2.467770129E-3,2.761088266E-3
9.932265500E0,1.302317600E-3,-9.656278417E-4,1.583866775E-3,2.266517642E-3
9.942222500E0,-3.457816318E-3,-3.314167261E-4,3.731144592E-3,5.097820191E-3
9.952179500E0,-1.094260719E-3,-1.354336739E-3,2.897040918E-3,3.380011924E-3
9.962136500E0,-8.017795626E-4,-6.192419678E-4,9.910650551E-4,1.417222998E-3
9.972093500E0,8.067697054E-4,1.553897746E-3,-1.448925585E-3,2.272633035E-3
9.982050500E0,-2.390761161E-3,1.084515825E-3,8.986182511E-4,2.774784364E-3
9.992006500E0,-7.095073815E-4,-1.789035276E-3,1.121889800E-4,1.927857440E-3
1.000196350E1,-5.979477428E-4,4.132883623E-4,2.483975142E-3,2.588142438E-3
1.001192050E1,-5.255099386E-4,-1.213369891E-3,2.834714949E-3,3.127944378E-3
1.002187750E1,1.080552815E-3,8.607748896E-5,-2.927985042E-4,1.122824422E-3
1.003183450E1,-8.683484048E-4,-2.148314379E-3,-2.706944942E-4,2.332929303E-3
1.004179150E1,7.644961588E-4,-2.636387944E-4,-1.925427467E-3,2.088355985E-3
1.005174850E1,-9.007784538E-4,3.843083978E-4,-1.408241689E-3,1.715295725E-3
1.006170550E1,9.133433923E-4,1.234322786E-3,-1.291561872E-3,2.006459808E-3
1.007166250E1,2.855586819E-3,1.532330178E-3,1.774536446E-3,3.694778945E-3
1.008161950E1,1.236868324E-3,2.034642734E-3,1.994557679E-4,2.389434432E-3
1.009157650E1,2.123434562E-3,-4.969583824E-4,1.624515280E-3,2.719373433E-3
1.010153350E1,3.922358155E-4,3.367066383E-4,2.436578274E-3,2.490809904E-3
1.011149050E1,7.778615691E-4,3.774529323E-4,-1.912362874E-3,2.098730830E-3
1.012144750E1,-8.478704840E-4,-3.189565614E-4,-9.034797549E-4,1.279411315E-3
1.013140450E1,-3.099120222E-4,1.466692425E-3,-2.205232158E-3,2.666511017E-3
1.014136150E1,1.039566938E-3,-1.296482980E-3,-1.774253324E-3,2.430955037E-3
1.015131850E1,-9.812396020E-4,-3.132438287E-4,1.606894657E-3,1.908681034E-3
1.016127450E1,-6.231612060E-4,-1.896274276E-3,9.828545153E-4,2.224902024E-3
1.017123150E1,-1.041810028E-3,2.515651286E-4,1.267813146E-3,1.660121478E-3
1.018118850E1,1.832980663E-3,4.204651341E-4,2.188658342E-3,2.885625474E-3
1.019114550E1,-1.586784609E-3,2.265870571E-4,-2.420097589E-4,1.621047751E-3
1.020110250E1,6.302985130E-4,-1.010049134E-3,2.014972270E-3,2.340424901E-3
1.021105950E1,-4.655921366E-4,9.188782424E-4,1.250110567E-3,1.619842489E-3
1.022101650E1,1.721517881E-3,-5.080206320E-4,-4.198700190E-4,1.843366380E-3
1.023097350E1,-8.529599290E-4,-2.227965742E-4,3.132520244E-3,3.254206820E-3
1.024093050E1,-1.651043538E-3,-7.224706933E-4,1.075319946E-3,2.098623752E-3
1.025088750E1,-3.928578459E-3,-6.548268721E-4,9.877011180E-4,4.103423015E-3
1.026084450E1,2.266284078E-3,-1.357456669E-3,2.774614841E-4,2.656259966E-3
1.027080150E1,2.070541726E-3,7.387176156E-4,1.073481515E-3,2.446468745E-3
1.028075850E1,-1.335551264E-3,9.073968977E-5,2.076793462E-3,2.470830215E-3
1.029071550E1,2.331355121E-3,-3.129960969E-4,2.578552812E-4,2.366362737E-3
1.030067250E1,1.115191961E-3,3.899913281E-5,2.433395013E-3,2.677047876E-3
1.031062950E1,-6.712565664E-4,2.912283875E-3,1.690370962E-3,3.433560359E-3
1.032058650E1,-6.571065169E-4,-9.202808142E-4,-1.679824665E-3,2.024973249E-3
1.033054250E1,-5.869427696E-5,8.745957166E-5,-2.193469554E-4,2.433254645E-4
1.034049950E1,2.177892020E-3,-2.627437934E-4,-1.632485539E-3,2.734457348E-3
1.035045650E1,3.549582325E-4,1.323700882E-3,-1.911584288E-3,2.352091381E-3
1.036041350E1,-7.118773647E-4,-9.751124308E-4,1.358736306E-3,1.817629771E-3
1.037037050E1,-1.855971292E-3,3.567337990E-4,1.902554184E-3,2.681716029E-3
1.038032750E1,-3.020436503E-3,4.108343273E-5,-2.691522241E-6,3.020717094E-3
1.039028496E1,-2.212166786E-3,-3.519989550E-4,-2.698060125E-4,2.256187146E-3
1.040024196E1,-1.753435936E-4,-1.869220287E-4,-1.394100487E-3,1.417463012E-3
1.041019896E1,1.041454729E-3,5.630245432E-4,-1.683052629E-3,2.057739231E-3
1.042015596E1,1.467617229E-3,1.481780782E-3,-1.791771501E-3,2.749549005E-3
1.043011296E1,-2.828327939E-3,2.283658832E-3,1.700164750E-3,4.013115594E-3
1.044006996E1,-4.066890106E-4,4.896428436E-4,1.866102219E-3,1.971670245E-3
1.045002696E1,-5.140143912E-4,1.064138487E-4,2.910058945E-3,2.957021773E-3
1.045998396E1,-6.617659237E-4,-1.053549349E-4,2.130148932E-3,2.233062533E-3
1.046994096E1,1.690337900E-3,1.116925851E-4,-2.893636003E-3,3.353035456E-3
1.047989796E1,-1.677258406E-3,3.804648295E-4,8.613727987E-4,1.923515621E-3
1.048985496E1,5.299694603E-4,1.540804282E-3,-5.820598453E-4,1.730242505E-3
1.049981096E1,-9.912322275E-5,1.277567819E-3,1.362156123E-3,1.870153536E-3
1.050976796E1,1.757366234E-3,-8.463030681E-4,1.020472497E-3,2.201347105E-3
1.051972496E1,-7.358996663E-4,-1.522992738E-3,1.436892897E-3,2.219395502E-3
1.052968196E1,1.274971291E-4,4.573334008E-4,9.388811886E-4,1.052096594E-3
1.053963896E1,-1.914500259E-3,-1.216026954E-3,-1.839155331E-3,2.920021426E-3
1.054959596E1,-2.509983256E-3,8.862726390E-4,-1.808051020E-4,2.667992808E-3
1.055955296E1,-4.902898800E-4,3.151241690E-4,-1.246843487E-3,1.376337927E-3
1.056950996E1,-5.107962061E-4,-2.076542005E-4,1.410193741E-3,1.514159641E-3
1.057946696E1,1.401875634E-3,-1.349831000E-3,3.232918680E-4,1.972768778E-3
1.058942396E1,-5.286498927E-4,1.744762063E-3,1.005325466E-3,2.081908898E-3
1.059938096E1,-3.112988314E-3,1.292936504E-3,2.363819629E-3,4.117040719E-3
1.060933796E1,-1.091382699E-3,-1.665303484E-3,2.206157893E-3,2.971781374E-3
1.061929496E1,-1.314955298E-3,2.375098877E-3,-1.229364425E-4,2.717593693E-3
1.062925196E1,-2.038536128E-3,-1.985803246E-4,-1.762377098E-3,2.702043065E-3
1.063920896E1,-3.792061470E-4,-2.324894071E-3,4.835706204E-4,2.404739131E-3
1.064916596E1,5.861755926E-5,-2.329815179E-4,3.145933151E-3,3.155092994E-3
1.065912296E1,-4.498336930E-4,-4.970496520E-4,-8.086487651E-4,1.050391133E-3
1.066907896E1,-7.552984171E-4,1.290463842E-3,9.178780019E-4,1.754500685E-3
1.067903596E1,1.332596876E-4,-1.928908750E-4,8.488092571E-4,8.805919538E-4
1.068899296E1,8.925268194E-4,-1.757231541E-3,2.281857654E-3,3.015185097E-3
1.069894996E1,-2.784803510E-4,-3.469372168E-4,-8.749961853E-4,9.815982185E-4
1.070890696E1,9.718738729E-4,6.477534771E-4,1.057391986E-3,1.575500303E-3
1.071886396E1,1.426721225E-3,1.538969576E-3,3.331527114E-4,2.124841533E-3
1.072882096E1,5.793033633E-4,-1.000621356E-3,-2.583358437E-4,1.184724817E-3
1.073877796E1,1.953086234E-3,5.859546363E-4,1.065935940E-3,2.300892892E-3
1.074873496E1,1.185030676E-3,-1.250028610E-3,-7.213093340E-4,1.867392938E-3
1.075869196E1,-9.616697207E-4,-2.347163856E-3,1.525435597E-3,2.959888609E-3
1.076864896E1,-9.353044443E-4,-7.103849202E-4,-6.722044200E-4,1.353255305E-3
1.077860596E1,-8.989719208E-4,-6.744610146E-4,1.576481387E-3,1.936063464E-3
1.078856296E1,-2.887554234E-3,-4.515610635E-5,3.405064344E-4,2.907912165E-3
1.079851996E1,-6.008537021E-4,1.870943233E-4,9.537264705E-4,1.142638892E-3
1.080847696E1,-1.161582768E-4,6.510168314E-4,7.265582681E-4,9.824472388E-4
1.081843396E1,-2.035831101E-3,7.235351950E-5,1.003960148E-3,2.271074477E-3
1.082839096E1,-1.152993180E-3,-8.847871795E-4,6.777215749E-4,1.603604739E-3
1.083834696E1,-4.117423669E-4,-8.474644274E-4,-1.023771241E-3,1.391342980E-3
1.084830396E1,-1.640524715E-3,-2.136323601E-4,2.434875816E-3,2.943735784E-3
1.085826096E1,-2.134939190E-3,1.290138811E-3,-4.559028894E-4,2.535797890E-3
1.086821796E1,7.878800388E-4,-1.024681143E-3,-1.652462408E-3,2.097941470E-3
1.087817496E1,-1.046257094E-3,2.881214023E-4,-9.163934737E-4,1.420367856E-3
1.088813196E1,2.477728995E-4,-3.901859745E-4,-2.239719033E-4,5.136145616E-4
1.089808896E1,-4.590826575E-4,9.767170995E-4,3.453958780E-3,3.618641241E-3
1.090804596E1,4.147004802E-4,-7.753763348E-4,-3.935117275E-4,9.633464737E-4
1.091800296E1,-4.346922506E-4,-1.736748964E-4,3.058025613E-3,3.093645257E-3
1.092795996E1,3.835420124E-3,-3.074922599E-3,8.071232587E-4,4.981670852E-3
1.093791696E1,-3.774813376E-5,-2.425793558E-3,-5.082655698E-4,2.478756382E-3
1.094787396E1,7.228506729E-4,1.148167998E-3,-2.679808065E-3,3.003693412E-3
1.095783096E1,2.275966806E-3,-2.188710496E-4,-2.596462145E-3,3.459703038E-3
1.096778796E1,-2.349944087E-3,-2.972046845E-3,2.525877208E-4,3.797249032E-3
1.097774496E1,-1.951304497E-3,-2.969997004E-4,6.766021252E-4,2.086525461E-3
1.098770196E1,-9.201285429E-4,4.188576713E-4,1.819364727E-3,2.081385666E-3
1.099765896E1,-7.525889669E-4,-1.150508411E-3,1.165971160E-3,1.802650411E-3
1.100761496E1,1.249575522E-3,-2.121496946E-3,-4.417076707E-5,2.462547326E-3
1.101757196E1,-1.230113208E-3,-1.108786091E-4,-1.180358231E-5,1.235156628E-3
1.102752896E1,4.705813481E-4,2.513400279E-3,-2.126060426E-4,2.565897328E-3
1.103748596E1,2.232331783E-3,3.108786419E-3,1.472657546E-3,4.100802170E-3
1.104744296E1,-1.753088785E-3,-4.332177341E-4,-1.118864864E-3,2.124348483E-3
1.105739996E1,-5.598464049E-4,7.035359740E-4,7.274094969E-4,1.156510026E-3
1.106735696E1,-2.740891650E-4,2.990020439E-4,2.323443070E-3,2.358583217E-3
1.107731396E1,-4.737698473E-4,1.514483243E-3,5.246549845E-4,1.671340843E-3
1.108727096E1,-2.789655002E-3,1.984797418E-3,1.352632418E-3,3.681196854E-3
1.109722796E1,-1.829818357E-4,-8.934466168E-4,-1.824397594E-3,2.039645996E-3
1.110718496E1,1.712922473E-3,-6.413832307E-5,-3.769304603E-3,4.140757698E-3
1.111714196E1,-9.756535292E-6,-2.492032945E-4,-1.041641459E-3,1.071080950E-3
1.112709896E1,-1.742409077E-3,-5.522714928E-4,2.171995118E-3,2.838759586E-3
1.113705596E1,-2.916438971E-4,-4.283702001E-4,1.858476549E-3,1.929376136E-3
1.114701296E1,4.441874335E-4,2.559962682E-3,3.192186356E-3,4.115916075E-3
1.115696996E1,-1.435662620E-3,2.640218474E-3,1.386236399E-3,3.309612077E-3
1.116692696E1,1.728439005E-3,1.259278506E-4,-9.703952819E-4,1.986209007E-3
1.117688396E1,1.141279237E-3,4.269750789E-4,-1.986877993E-3,2.330774587E-3
1.118683996E1,-1.463824883E-3,-1.807576045E-4,2.082698047E-3,2.552075186E-3
1.119679696E1,-1.730390592E-3,-2.396605909E-3,-6.805527955E-4,3.033335390E-3
1.120675396E1,-4.621932749E-4,-1.443708315E-4,-8.006617427E-4,9.356948149E-4
1.121671096E1,-4.591941833E-4,9.037824348E-4,3.856200725E-3,3.987225353E-3
1.122666796E1,-1.179579413E-3,-3.101078793E-3,-1.066384837E-3,3.485007015E-3
1.123662496E1,1.098350622E-3,-1.788777299E-3,6.472691894E-6,2.099080801E-3
1.124658196E1,1.140428474E-3,-7.529929280E-5,-9.016636759E-4,1.455762506E-3
1.125653896E1,-1.355162822E-4,-8.519077674E-4,-9.546801448E-5,8.678857348E-4
1.126649596E1,-3.195407335E-4,-3.049814142E-3,-1.781249419E-3,3.546311052E-3
1.127645296E1,-5.532607902E-4,-6.887773052E-4,-2.463011071E-3,2.616664903E-3
1.128640996E1,1.114943298E-3,1.207926311E-3,2.295525745E-3,2.823406271E-3
1.129636696E1,-4.793612752E-4,-6.027659401E-4,1.767221838E-4,7.901548842E-4
1.130632396E1,1.129257726E-4,2.150409855E-3,5.327872932E-4,2.218305000E-3
1.131628096E1,-1.472823787E-3,-3.342853859E-3,-4.018113017E-3,5.430388020E-3
1.132623796E1,5.064376164E-4,1.336586662E-3,-1.339770854E-3,1.959063272E-3
1.133619496E1,-1.187075162E-3,-3.614574671E-4,-3.116521984E-3,3.354475849E-3
1.134615196E1,1.352781430E-3,9.655961767E-4,3.132851794E-3,3.546428336E-3
1.135610796E1,9.285850683E-4,2.116327174E-3,1.146521419E-3,2.579849279E-3
1.136606496E1,-2.224331256E-4,1.145072281E-3,1.903925091E-3,2.232845220E-3
1.137602196E1,4.712943919E-4,1.371558756E-5,2.405501902E-3,2.451274347E-3
1.138597896E1,1.288085943E-3,-2.299772575E-3,4.270393401E-4,2.670296218E-3
1.139593546E1,-7.226602174E-4,5.242070183E-4,-1.146046445E-3,1.452739908E-3
1.140589246E1,-2.275784500E-4,2.656600438E-3,-4.188975319E-3,4.965564627E-3
1.141584946E1,-8.874149062E-4,5.468735471E-4,-3.816187382E-5,1.043087830E-3
1.142580646E1,7.456355961E-4,1.380709000E-3,-1.635961235E-4,1.577686115E-3
1.143576346E1,3.659549402E-4,9.542042390E-4,1.808574423E-3,2.077346912E-3
1.144572046E1,-1.967709977E-4,-1.051155850E-3,1.297781244E-3,1.681631233E-3
1.145567746E1,-1.141803106E-3,-3.403974697E-4,-8.098706603E-4,1.440650984E-3
1.146563446E1,1.530678943E-3,1.533668488E-3,-2.269549295E-3,3.137829036E-3
1.147559146E1,1.987873111E-3,-7.276432589E-4,-1.961035654E-3,2.885613462E-3
1.148554846E1,-4.925951362E-4,-2.839602530E-4,1.658732072E-3,1.753475257E-3
1.149550546E1,-8.664345369E-4,8.812164888E-4,5.567781627E-4,1.355453145E-3
1.150546246E1,1.067020348E-3,1.038609073E-3,3.156024963E-3,3.489661129E-3
1.151541946E1,1.221663668E-3,1.722860150E-3,-7.175169885E-4,2.230591814E-3
1.152537546E1,3.699847730E-4,6.852922961E-4,1.819677651E-3,1.979328426E-3
1.153533246E1,6.141351769E-4,-3.365743905E-4,-1.697910950E-3,1.836667071E-3
1.154528946E1,-1.268187072E-3,-2.691969275E-4,-1.280326396E-3,1.822087022E-3
1.155524646E1,-1.136723207E-3,-1.243986189E-4,1.563018188E-3,1.936657048E-3
1.156520346E1,9.232319426E-4,-1.139596105E-3,2.277065068E-4,1.484212503E-3
1.157516046E1,4.940842045E-4,6.057582796E-4,-8.322633803E-4,1.141807615E-3
1.158511746E1,-7.216488011E-4,2.119503915E-5,3.499900922E-3,3.573588209E-3
1.159507446E1,-1.265699975E-4,1.447590999E-3,7.305648178E-4,1.626426948E-3
1.160503146E1,4.457542673E-6,1.001637429E-5,6.932802498E-4,6.933669319E-4
1.161498846E1,8.303280920E-4,2.742191777E-3,-4.702806473E-4,2.903484866E-3
1.162494546E1,-6.786189042E-4,-9.369654581E-4,-1.431947574E-3,1.840896994E-3
1.163490246E1,1.623951714E-3,1.725817099E-3,3.922916949E-4,2.401990134E-3
1.164485946E1,-1.311650733E-3,1.998258755E-3,-7.925499231E-4,2.518253576E-3
1.165481646E1,-2.271700650E-3,1.765554771E-4,5.392275751E-3,5.853924620E-3
1.166477346E1,1.046597958E-3,-1.852506772E-3,-2.106918022E-3,2.994370080E-3
1.167473046E1,-1.281683799E-4,5.755303428E-4,-9.486805648E-4,1.116985731E-3
1.168468746E1,-1.939118141E-3,1.418687403E-3,7.339045405E-4,2.512263718E-3
1.169464446E1,2.618630882E-3,-1.313822344E-3,-2.030380070E-3,3.564519614E-3
1.170460046E1,-1.769992290E-3,8.369460702E-4,-4.756264389E-4,2.014837944E-3
1.171455746E1,-1.797196455E-4,-4.313075915E-4,-1.686405391E-3,1.749939579E-3
1.172451446E1,-4.428399261E-4,-6.800461560E-4,2.169320360E-3,2.316143518E-3
1.173447146E1,-1.481807325E-3,2.295244485E-3,-2.062562853E-4,2.739788651E-3
1.174442846E1,-1.358236652E-3,3.898734227E-3,-1.684408635E-4,4.131985927E-3
1.175438546E1,1.254567876E-3,8.298354223E-4,-2.573020756E-4,1.526031370E-3
1.176434246E1,-5.404027179E-4,-1.304422505E-3,-1.302592456E-3,1.921015429E-3
1.177429946E1,-1.959170680E-3,-2.055978402E-4,4.143640399E-4,2.013036956E-3
1.178425646E1,-2.884885296E-3,1.789109781E-3,-1.118551940E-3,3.574162199E-3
1.179421346E1,-1.895859139E-3,-9.872624651E-4,-5.937516689E-4,2.218447677E-3
1.180417046E1,-6.652122829E-4,-1.004839316E-3,-2.880208194E-4,1.239017928E-3
1.181412746E1,-6.162237842E-4,-1.629293896E-3,-2.144748345E-3,2.763019330E-3
1.182408446E1,-1.647399738E-3,2.600871027E-3,3.279969096E-4,3.096132744E-3
1.183404146E1,-9.179813787E-5,-7.599228993E-4,-1.202089712E-3,1.425106798E-3
1.184399846E1,-8.409454022E-4,-1.835573465E-3,-5.434900522E-4,2.090909025E-3
1.185395546E1,1.492631040E-3,4.885792732E-4,-1.311909407E-3,2.046402556E-3
1.186391246E1,-6.160598714E-4,-9.965151548E-6,6.255395710E-4,8.780255260E-4
1.187386846E1,-6.277265493E-4,-1.798477024E-4,8.553098887E-4,1.076076588E-3
1.188382546E1,1.334049739E-4,-2.083433792E-4,3.498438746E-4,4.284793896E-4
1.189378246E1,8.901733672E-4,4.668999463E-4,4.871878773E-4,1.117030085E-3
1.190373946E1,-1.872856170E-3,1.558428630E-4,1.971898600E-3,2.724015661E-3
1.191369646E1,7.768768119E-4,1.125853509E-3,2.139326185E-3,2.539251904E-3
1.192365346E1,-1.011702232E-3,-3.310706466E-3,-3.571212292E-4,3.480208943E-3
1.193361046E1,1.545679988E-3,-3.054891713E-3,-8.651111275E-4,3.531275586E-3
1.194356746E1,1.675914973E-5,5.747303367E-4,2.818837762E-3,2.876880630E-3
1.195352446E1,4.316230770E-4,-1.952491701E-3,1.027617604E-3,2.248226025E-3
1.196348146E1,8.057971718E-4,-2.024130896E-3,1.935224980E-3,2.914019679E-3
1.197343846E1,1.563311554E-3,4.633832723E-4,1.466397196E-3,2.192940448E-3
1.198339546E1,8.189579239E-4,-3.318367526E-4,1.438166946E-3,1.687937166E-3
1.199335246E1,-6.898036227E-4,1.213456504E-3,-9.850617498E-4,1.708406385E-3
1.200330946E1,6.708054570E-4,-9.538242593E-4,7.625035942E-4,1.393259635E-3
1.201326646E1,1.231605886E-3,-1.152697019E-3,1.039370894E-3,1.981377130E-3
1.202322346E1,1.082468778E-3,1.295280643E-3,-3.566555679E-4,1.725309767E-3
1.203318046E1,1.477536280E-4,4.990017042E-4,-1.567106694E-3,1.651259285E-3
1.204313746E1,-4.924703389E-4,1.509938389E-3,-1.824900508E-3,2.419236003E-3
1.205309346E1,-5.584629253E-5,-3.072107211E-4,-3.260858357E-4,4.514744819E-4
1.206305046E1,2.804388758E-3,-1.931206323E-3,1.041978598E-3,3.560881010E-3