"Time (s)","Gyroscope x (rad/s)","Gyroscope y (rad/s)","Gyroscope z (rad/s)","Absolute (rad/s)"
-3.271416666E-3,-1.389372977E-3,-9.623635560E-4,-7.145946380E-3,7.343095434E-3
6.685583332E-3,2.285447204E-3,1.540219411E-3,-5.130296573E-3,5.823700515E-3
1.664158333E-2,2.298763022E-3,-3.575496376E-4,-6.244829856E-3,6.664086817E-3
2.659858333E-2,1.067501027E-3,-8.799573407E-4,-5.124380346E-3,5.307839231E-3
3.655558333E-2,7.760396693E-5,2.720636316E-3,-6.797378417E-3,7.322037809E-3
4.651258333E-2,-2.097357064E-3,9.787930176E-4,-5.216965452E-3,5.707334838E-3
5.646958333E-2,8.973674267E-4,-1.220178790E-3,-4.709899426E-3,4.947449563E-3
6.642658333E-2,-6.128723035E-4,-2.996991388E-3,-6.659277715E-3,7.328270569E-3
7.638358333E-2,1.517922850E-3,-9.893998504E-5,-5.814256147E-3,6.009946209E-3
8.634058333E-2,-5.295752781E-4,-1.064751297E-3,-6.006814539E-3,6.123394991E-3
9.629758333E-2,-1.796358265E-4,-1.406701282E-3,-5.399879999E-3,5.582990376E-3
1.062545833E-1,-7.908896077E-4,-1.191250049E-3,-4.124842584E-3,4.365651085E-3
1.162115833E-1,-1.309140818E-3,1.509994268E-3,-8.385101333E-3,8.619968488E-3
1.261675833E-1,-1.952916267E-3,-3.000982106E-4,-3.730105702E-3,4.221093393E-3
1.361245833E-1,-8.612865349E-4,1.005116850E-3,-5.641456228E-3,5.794661573E-3
1.460815833E-1,2.192110987E-3,-5.293544382E-4,-6.687897723E-3,7.057870972E-3
1.560385833E-1,-1.411678735E-3,3.518853337E-4,-6.465790328E-3,6.627450845E-3
1.659955833E-1,3.253095783E-4,4.489570856E-4,-8.672097698E-3,8.689802487E-3
1.759525833E-1,1.145030605E-3,-1.592355780E-3,-7.072071079E-3,7.338997300E-3
1.859095833E-1,1.370063168E-3,4.521012306E-5,-9.286489338E-3,9.387118901E-3
1.958665833E-1,-1.139966189E-3,-7.518744096E-4,-8.707784116E-3,8.814212515E-3
2.058235833E-1,-1.573718386E-3,-2.607479692E-4,-7.050381508E-3,7.228586201E-3
2.157805833E-1,1.048696227E-3,5.344720557E-4,-6.553967949E-3,6.658822721E-3
2.257375833E-1,-7.997595239E-4,1.430818811E-3,-3.629806917E-3,3.982757339E-3
2.356945833E-1,-2.551432699E-4,-5.732094869E-4,-3.222875763E-3,3.283381700E-3
2.456505833E-1,2.565500326E-4,-2.036011778E-3,-3.749077674E-3,4.273961311E-3
2.556075833E-1,-4.787486978E-4,1.485752873E-3,-4.756551702E-3,5.006140830E-3
2.655645833E-1,2.182943746E-3,-2.064890228E-3,-6.140166428E-3,6.835982652E-3
2.755215833E-1,2.432482084E-3,-1.254756004E-3,-5.878378171E-3,6.484343579E-3
2.854785833E-1,-6.584227085E-4,1.340163872E-3,-5.757381674E-3,5.947857043E-3
2.954355833E-1,3.842047881E-4,-1.245765947E-3,-3.372520674E-3,3.615721479E-3
3.053925833E-1,-1.873993315E-4,-7.038190961E-4,-6.112307310E-3,6.155548756E-3
3.153495833E-1,1.503974316E-3,1.294083893E-3,-4.592441022E-3,5.002709907E-3
3.253065833E-1,-4.728437634E-4,-2.708481625E-4,-5.413295701E-3,5.440653481E-3
3.352635833E-1,-9.175917367E-4,1.180574298E-3,-7.577912882E-3,7.724020580E-3
3.452205833E-1,-1.226783614E-3,3.106724471E-4,-5.222041160E-3,5.373195444E-3
3.551775833E-1,1.646500779E-3,-2.497631125E-3,-7.639924996E-3,8.204729124E-3
3.651335833E-1,2.340218518E-3,-1.198871993E-3,-6.119112018E-3,6.660138787E-3
3.750905833E-1,-2.317117527E-3,2.341001295E-3,-3.431982826E-3,4.756871537E-3
3.850475833E-1,-8.020102978E-4,-2.405993640E-3,-5.909891333E-3,6.431084006E-3
3.950045833E-1,5.447502481E-4,1.504085958E-6,-4.116518889E-3,4.152406875E-3
4.049615833E-1,-1.651755883E-3,6.214128807E-4,-5.270707887E-3,5.558310273E-3
4.149185833E-1,-2.107955515E-3,1.379348338E-3,-5.598542746E-3,6.139198577E-3
4.248755833E-1,-1.248468645E-3,1.671318896E-3,-8.245265111E-3,8.505079516E-3
4.348325833E-1,-1.879904186E-3,-5.641393363E-4,-7.012221962E-3,7.281727116E-3
4.447895833E-1,8.704758366E-4,-2.548634075E-3,-5.617293064E-3,6.229546146E-3
4.547465833E-1,1.058494905E-3,-2.524399199E-3,-4.362411331E-3,5.150110232E-3
4.647035833E-1,1.547446358E-3,1.231724396E-3,-2.821093425E-3,3.445330657E-3
4.746605833E-1,-2.859286033E-3,1.231990755E-3,-5.832595751E-3,6.611542258E-3
4.846165833E-1,-3.493247787E-4,8.723447099E-4,-7.020532154E-3,7.083140886E-3
4.945735833E-1,-1.627109363E-3,9.525064379E-4,-5.416776054E-3,5.735522313E-3
5.045305833E-1,-1.341251424E-3,-8.675921708E-5,-6.640335545E-3,6.774993630E-3
5.144875833E-1,2.590420190E-4,-1.512083225E-3,-5.675205961E-3,5.878899654E-3
5.244445833E-1,3.381490242E-4,-1.835450530E-5,-2.896788996E-3,2.916516439E-3
5.344015833E-1,-3.635939211E-4,-3.379331902E-4,-1.331916079E-3,1.421407690E-3
5.443585833E-1,-1.169077586E-5,-1.216198318E-3,-4.982444923E-3,5.128745698E-3
5.543155833E-1,1.751854550E-3,3.321627155E-4,-5.316406023E-3,5.607450350E-3
5.642725833E-1,5.966764875E-4,-1.866464503E-3,-7.102231029E-3,7.367591069E-3
5.742296250E-1,2.248102566E-3,-1.098142937E-3,-6.557615008E-3,7.018703417E-3
5.841866250E-1,1.245972933E-3,-6.047189236E-4,-4.643551540E-3,4.845689262E-3
5.941436250E-1,-1.929846592E-3,1.897321083E-3,-1.847232226E-3,3.276644939E-3
6.040996250E-1,5.128782941E-4,5.582412705E-4,-2.569830511E-3,2.679310791E-3
6.140566250E-1,1.183994813E-3,-6.186095998E-4,-4.487572704E-3,4.682182218E-3
6.240136250E-1,8.062646375E-4,2.205241472E-4,-6.613485981E-3,6.666100088E-3
6.339706250E-1,-9.141373448E-4,2.688475884E-3,-5.447287578E-3,6.143003469E-3
6.439276250E-1,-3.457594430E-4,6.429487839E-4,-7.859077305E-3,7.892910034E-3
6.538846250E-1,2.135774121E-3,1.183059067E-4,-3.756477032E-3,4.322805463E-3
6.638416250E-1,2.018782310E-3,1.931618899E-4,-1.799232792E-3,2.711094276E-3
6.737986250E-1,9.117063018E-4,-5.506584421E-4,-2.833870705E-3,3.027417427E-3
6.837556250E-1,-1.533960458E-3,-1.249265857E-3,-2.648280002E-3,3.305614442E-3
6.937126250E-1,1.045310986E-3,-6.468584761E-4,-4.898118787E-3,5.050016692E-3
7.036696250E-1,-1.221786952E-4,1.159892417E-3,-4.735591821E-3,4.877100363E-3
7.136256250E-1,-1.650566701E-3,-4.414664581E-4,-4.906566814E-3,5.195542413E-3
7.235826250E-1,2.685363870E-5,-1.197882928E-3,-2.850575838E-3,3.092155759E-3
7.335396250E-1,9.941137396E-4,7.670652121E-5,-1.059066970E-3,1.454568274E-3
7.434966250E-1,5.020261742E-4,2.676270902E-3,-3.134851344E-3,4.152318529E-3
7.534536250E-1,-1.601604628E-3,-1.482777297E-4,-3.779602237E-3,4.107616918E-3
7.634106250E-1,1.522667008E-4,1.541795209E-4,-7.153662387E-3,7.156943623E-3
7.733676250E-1,-2.091241768E-4,-6.959019229E-4,-9.760098532E-3,9.787110695E-3
7.833246250E-1,-1.725856448E-3,-1.135411672E-3,-7.287070621E-3,7.574241769E-3
7.932816250E-1,1.596170594E-3,-9.772200137E-4,-3.643334378E-3,4.095925403E-3
8.032386250E-1,4.719562130E-4,2.749543637E-5,-2.557941247E-3,2.601261634E-3
8.131956250E-1,-3.376448294E-4,6.490768865E-4,3.651445732E-4,8.177012870E-4
8.231526250E-1,-2.779356902E-3,-1.164968126E-3,-1.032602042E-3,3.185630629E-3
8.331086250E-1,-2.904792083E-3,9.418586269E-4,-2.953273710E-3,4.248145516E-3
8.430656250E-1,4.371332470E-4,-5.863243714E-4,-8.349390700E-3,8.381359485E-3
8.530226250E-1,2.293090103E-3,5.606990308E-4,-6.171457935E-3,6.607536505E-3
8.629796250E-1,1.546842046E-3,-2.188957296E-3,-4.234996159E-3,5.011930449E-3
8.729366250E-1,-1.167718088E-3,-1.184146851E-3,-2.188090701E-3,2.748365007E-3
8.828936250E-1,9.143239004E-4,-9.839050472E-5,-2.630358562E-3,2.786477176E-3
8.928506250E-1,1.853620866E-3,-2.496566623E-3,-4.783525132E-3,5.705336792E-3
9.028076250E-1,-1.395751722E-3,4.278058186E-4,-5.078610033E-3,5.284261590E-3
9.127646250E-1,2.930581104E-5,2.655273303E-3,-8.448308334E-3,8.855803117E-3
9.227216250E-1,-7.281394210E-5,-6.789406762E-4,-5.037284922E-3,5.083355358E-3
9.326786250E-1,-1.058183494E-3,3.277342767E-4,-4.791741725E-3,4.918124726E-3
9.426356250E-1,-8.903534617E-4,-1.027927734E-3,-4.109553061E-3,4.328717024E-3
9.525916250E-1,7.032820722E-4,1.465057023E-3,4.066354595E-4,1.675216449E-3
9.625486250E-1,-2.464143094E-3,-1.223385334E-4,-5.179086234E-3,5.736715273E-3
9.725056250E-1,5.974270171E-4,-1.049119048E-3,-5.084012169E-3,5.225394679E-3
9.824626250E-1,7.886439562E-4,8.017765358E-4,-6.993223913E-3,7.083077410E-3
9.924196250E-1,-1.937961206E-4,2.373041585E-3,-7.134371437E-3,7.521179369E-3
1.002376625E0,1.346052159E-3,5.726413801E-4,-7.087263279E-3,7.236648074E-3
1.012333625E0,1.659506233E-3,1.055206172E-3,-3.392660059E-3,3.921423629E-3
1.022290625E0,-2.373209689E-3,-9.977649897E-4,-1.475946512E-3,2.967503548E-3
1.032247625E0,4.973413888E-5,5.402108654E-4,-2.711386885E-3,2.765125695E-3
1.042204625E0,1.357681234E-3,-2.078133635E-3,-4.107362125E-3,4.799204243E-3
1.052161625E0,-4.314302932E-4,6.249742582E-4,-6.190221291E-3,6.236630866E-3
1.062118625E0,-1.015414018E-3,6.012227386E-4,-3.511925228E-3,3.704882349E-3
1.072074625E0,9.297588840E-4,1.088847406E-3,-3.301534802E-3,3.598634783E-3
1.082031625E0,1.517748577E-3,1.123032533E-3,-4.776356276E-3,5.135985016E-3
1.091988625E0,1.385922078E-3,-2.413379028E-3,-3.640518058E-3,4.582417492E-3
1.101945625E0,-2.429653890E-3,1.749986783E-3,-5.513580050E-3,6.274172195E-3
1.111902625E0,-4.117831588E-3,8.093584329E-4,-3.532720264E-3,5.485591173E-3
1.121859625E0,-6.162365898E-4,-9.228819981E-4,-2.313178964E-3,2.565590699E-3
1.131816625E0,7.363828481E-4,2.020373940E-4,-3.552614711E-3,3.633751518E-3
1.141773625E0,7.131241146E-4,7.387157530E-4,-2.714496572E-3,2.902195480E-3
1.151730625E0,-1.786252600E-3,-1.545744017E-3,-5.139304791E-3,5.656189234E-3
1.161687625E0,-5.251418334E-4,1.100908965E-3,-5.478393752E-3,5.612537091E-3
1.171644625E0,9.981864132E-4,6.891842932E-4,-3.839750309E-3,4.026789483E-3
1.181601625E0,1.211208291E-3,5.089538172E-4,-2.415953204E-3,2.750070799E-3
1.191557625E0,1.514275908E-3,-2.206938341E-3,-5.363273434E-3,5.994022881E-3
1.201514625E0,6.377947284E-4,7.052347064E-4,-1.289404463E-3,1.602092999E-3
1.211471625E0,2.985104918E-3,-2.155533060E-3,-5.096126813E-3,6.287104472E-3
1.221428625E0,6.896688137E-5,8.680345491E-4,-4.982737824E-3,5.058252330E-3
1.231385625E0,-5.531476345E-4,-6.547607481E-4,-5.719901063E-3,5.783766256E-3
1.241342625E0,-7.292535156E-5,-1.075175591E-3,-3.787560388E-3,3.937884502E-3
1.251299625E0,1.182896085E-4,-7.036514580E-5,-5.584395491E-3,5.586091360E-3
1.261256625E0,1.326864352E-3,7.932353765E-5,-4.778036382E-3,4.959485145E-3
1.271213625E0,-1.291821827E-3,-5.132304505E-4,-5.235300865E-3,5.416694959E-3
1.281170625E0,6.768344319E-4,-6.933873519E-4,-3.795471974E-3,3.917205429E-3
1.291127625E0,-1.060079318E-3,-7.461179048E-4,-2.372278832E-3,2.703362155E-3
1.301084625E0,-3.595461603E-4,-1.856234856E-3,-2.410897985E-3,3.063871795E-3
1.311040625E0,-1.672658836E-4,-8.551524952E-4,-5.050623789E-3,5.125237978E-3
1.320997625E0,-1.687414479E-4,-1.298025250E-3,-5.398337729E-3,5.554763133E-3
1.330954625E0,-1.852658344E-3,1.043956727E-4,-7.459358312E-3,7.686694207E-3
1.340911625E0,-3.909044899E-4,8.065132424E-4,-5.913288333E-3,5.980823424E-3
1.350868625E0,-6.183383521E-4,-1.903519966E-3,-6.900788285E-3,7.185165936E-3
1.360825625E0,-7.553100586E-4,9.301714599E-4,-3.595379181E-3,3.789784121E-3
1.370782625E0,-1.130815828E-3,1.941639930E-3,-7.995921187E-4,2.384964908E-3
1.380739625E0,-2.068554750E-3,-2.316955477E-3,-3.124150913E-3,4.405396732E-3
1.390696625E0,-7.420342881E-4,7.486091927E-4,-1.871932764E-3,2.148293015E-3
1.400653625E0,-7.731085643E-4,-2.473937348E-4,-6.257017143E-3,6.309450375E-3
1.410610625E0,-4.644482397E-4,-2.135718241E-4,-7.221347652E-3,7.239418969E-3
1.420566625E0,6.862452137E-4,-9.464789182E-4,-2.304098569E-3,2.583723099E-3
1.430523625E0,5.208628718E-4,1.056750305E-3,-2.838062122E-3,3.072883979E-3
1.440480625E0,2.510820050E-4,-9.955866262E-4,-2.666988410E-3,2.857807216E-3
1.450437625E0,-6.109833485E-4,-2.048334107E-3,-2.604404464E-3,3.369257467E-3
1.460394625E0,3.161181230E-4,-9.425720200E-4,-4.268140066E-3,4.382395727E-3
1.470351625E0,-8.857663488E-4,-3.709737211E-5,-4.442576785E-3,4.530170717E-3
1.480308625E0,-2.985179890E-3,-2.340832725E-4,-5.425605457E-3,6.197038691E-3
1.490265625E0,-7.727439515E-5,-9.539360180E-4,-6.854657549E-3,6.921148415E-3
1.500222625E0,1.745751710E-3,-8.296035230E-4,-3.780372441E-3,4.245834056E-3
1.510179625E0,2.338837832E-3,-2.442946658E-3,-2.601657063E-3,4.266939213E-3
1.520136625E0,4.623295972E-4,-1.121789217E-3,-1.797905657E-3,2.169014628E-3
1.530093625E0,-1.248974586E-4,1.288638450E-3,-2.472484019E-3,2.790943506E-3
1.540049625E0,3.496035933E-4,-2.043577842E-3,-3.811442293E-3,4.338839179E-3
1.550006625E0,-5.793069722E-4,1.109195873E-4,-4.767516628E-3,4.803864540E-3
1.559963625E0,1.879546558E-3,-1.713833772E-3,-6.463815924E-3,6.946282298E-3
1.569920083E0,4.223175347E-5,-1.212626696E-3,-7.197783794E-3,7.299338228E-3
1.579877083E0,2.031242475E-4,1.524624415E-3,-2.884878777E-3,3.269291150E-3
1.589834083E0,-1.974151237E-4,1.287070103E-3,-5.508358590E-3,5.660171070E-3
1.599791083E0,-3.389330814E-4,-2.555316314E-4,-3.534659278E-3,3.560054530E-3
1.609748083E0,1.832342125E-3,2.070206217E-3,-3.480863292E-3,4.445181740E-3
1.619705083E0,-2.565376228E-3,2.170065418E-4,-3.631173167E-3,4.451254385E-3
1.629662083E0,-8.971721400E-4,2.616248094E-3,-6.514844019E-3,7.077631279E-3
1.639619083E0,5.835525226E-4,-2.580349334E-3,-5.624648184E-3,6.215738365E-3
1.649575083E0,2.945995657E-4,3.693792038E-3,-2.370798029E-3,4.399042148E-3
1.659532083E0,-1.308467472E-4,1.709295437E-3,-1.767441630E-3,2.462247282E-3
1.669489083E0,-4.042497836E-3,-9.983396158E-4,2.144826576E-4,4.169469217E-3
1.679446083E0,8.196786512E-4,1.374705695E-3,-9.453264065E-4,1.858852026E-3
1.689403083E0,1.304373960E-3,-1.705506817E-3,-4.617026541E-3,5.091864002E-3
1.699360083E0,1.810086658E-3,-6.023338065E-4,-4.518356174E-3,4.904565449E-3
1.709317083E0,1.892910921E-3,-8.537368849E-4,-4.452842288E-3,4.913225301E-3
1.719274083E0,7.587507134E-4,-7.926151156E-4,-6.710451562E-3,6.799566275E-3
1.729231083E0,-7.946711266E-4,-1.439763233E-3,-4.074188415E-3,4.393567071E-3
1.739188083E0,-4.785836209E-4,-1.678274944E-3,-3.665865865E-3,4.060076552E-3
1.749145083E0,-8.200008888E-4,-2.161638811E-3,-3.991837148E-3,4.613008522E-3
1.759102083E0,5.900848191E-5,6.927503273E-4,-4.541828763E-3,4.594735414E-3
1.769058083E0,6.771280896E-4,-5.107093602E-5,-3.686953802E-3,3.748965061E-3
1.779015083E0,-2.304853639E-3,-1.941561699E-3,-4.923925735E-4,3.053598299E-3
1.788972083E0,8.639856242E-5,1.684613526E-4,-1.663917210E-3,1.674653523E-3
1.798929083E0,-5.853490438E-5,-1.653889194E-4,-3.676176537E-3,3.680360548E-3
1.808886083E0,-3.773152130E-4,-2.393655479E-3,-3.276968841E-3,4.075595429E-3
1.818843083E0,1.899620518E-3,2.680439502E-5,-4.764479119E-3,5.129282393E-3
1.828800083E0,1.610667561E-3,-8.440492675E-4,-4.769539926E-3,5.104427516E-3
1.838757083E0,1.552996458E-3,3.588041291E-4,-3.465120215E-3,3.814131160E-3
1.848714083E0,3.252892289E-3,-2.707559615E-3,-4.380448256E-3,6.091019146E-3
1.858671083E0,-1.214426011E-4,-2.057044767E-3,-3.414007369E-3,3.987684516E-3
1.868628083E0,6.508741062E-4,-3.701988608E-4,-5.035873037E-3,5.091237722E-3
1.878584083E0,9.201548528E-5,-2.464018762E-4,-2.013410907E-3,2.030518214E-3
1.888541083E0,5.719170440E-4,-2.015539445E-3,-4.227296915E-3,4.718000378E-3
1.898498083E0,-2.897901926E-3,3.556190059E-4,-2.966569737E-3,4.162311432E-3
1.908455083E0,1.110688085E-3,1.944974065E-4,-2.048844472E-3,2.338636554E-3
1.918412083E0,3.973741550E-4,-2.192336135E-3,-2.221487463E-3,3.146307438E-3
1.928369083E0,-2.859405708E-3,1.837559044E-3,-6.030844525E-4,3.452033473E-3
1.938326083E0,1.634585205E-4,-2.958979458E-4,-1.735598315E-3,1.768212598E-3
1.948283083E0,8.960940759E-4,6.979936734E-4,-4.131111782E-3,4.284421118E-3
1.958240083E0,-1.227790490E-4,-2.332089469E-3,-7.673338056E-3,8.020837419E-3
1.968197083E0,-2.230937127E-3,6.791474298E-4,-3.954233602E-3,4.590673706E-3
1.978154083E0,2.228389960E-3,2.043489367E-4,-2.693509217E-3,3.501781290E-3
1.988111083E0,-1.399592729E-4,5.449671298E-4,-9.137182496E-4,1.073060488E-3
1.998067083E0,-6.894749822E-4,8.398704231E-4,-2.726565115E-3,2.935117614E-3
2.008024083E0,1.642388874E-3,1.144802198E-3,-4.188373685E-3,4.642250253E-3
2.017981083E0,5.159119610E-4,-5.700374022E-4,-1.531905029E-3,1.714013071E-3
2.027938083E0,-6.231219741E-4,-3.820378333E-5,-3.096245695E-3,3.158556304E-3
2.037895083E0,8.836025372E-4,1.335382462E-3,-3.180182539E-3,3.560556241E-3
2.047852083E0,-1.088468358E-3,-1.987976953E-3,-4.231065512E-3,4.799867821E-3
2.057809083E0,-4.727907944E-4,-1.326221973E-4,-3.885958344E-3,3.916859971E-3
2.067766083E0,9.288308211E-4,-2.164348029E-3,-7.061446086E-4,2.458814611E-3
2.077723083E0,-1.010206062E-3,-2.237521112E-4,-6.363869645E-3,6.447435006E-3
2.087680083E0,3.113165963E-3,1.893043518E-4,-4.674626514E-3,5.619588197E-3
2.097637083E0,-4.147160798E-4,-3.152340651E-4,-1.664048526E-3,1.743679856E-3
2.107593083E0,3.115279833E-4,1.652576029E-3,-4.064355511E-3,4.398527360E-3
2.117550083E0,-5.707119126E-4,1.849609427E-3,-2.039351966E-3,2.811711856E-3
2.127507083E0,-9.177217726E-4,-1.024740748E-3,-3.762683365E-3,4.006256727E-3
2.137464083E0,1.976829953E-3,1.979693770E-4,-1.659540925E-3,2.588653052E-3
2.147421083E0,-6.093657576E-4,-1.493937336E-3,-4.204724450E-3,4.503652194E-3
2.157378083E0,4.324590554E-4,-1.791486517E-3,-1.268545631E-3,2.237331623E-3
2.167335083E0,-1.241870224E-3,1.801118255E-3,-2.949798945E-3,3.672544409E-3
2.177292083E0,-2.004216658E-4,1.090158708E-3,-5.649254657E-3,5.756969084E-3
2.187249083E0,-4.915415775E-5,-5.799094215E-4,-1.738934778E-3,1.833740775E-3
2.197206083E0,-1.603396027E-3,-6.379364058E-4,-3.949652892E-3,4.310173969E-3
2.207163083E0,6.144845393E-4,1.626815647E-3,-2.909422386E-3,3.389521946E-3
2.217120083E0,-1.295462484E-3,2.870745026E-3,-1.275884919E-3,3.398129246E-3
2.227076083E0,-1.409712248E-3,8.962778375E-4,-1.854322851E-3,2.495819668E-3
2.237033083E0,4.360837629E-4,-7.065255195E-4,-2.579212189E-3,2.709553999E-3
2.246990083E0,7.940126816E-4,8.322494105E-4,-1.295302063E-3,1.732311362E-3
2.256947083E0,5.345420213E-4,-1.772325486E-3,-4.284305498E-3,4.667134710E-3
2.266904083E0,1.880237367E-3,-2.712422051E-3,-5.747712217E-3,6.627874597E-3
2.276861083E0,-1.255713869E-5,7.191710174E-4,-2.780103125E-3,2.871643783E-3
2.286818083E0,-1.093534287E-3,7.913429290E-4,-2.580099739E-3,2.911864614E-3
2.296775083E0,-1.212025876E-3,-2.100970596E-5,-3.428238444E-3,3.636243523E-3
2.306732083E0,-1.744125620E-3,4.373202100E-4,-2.359068021E-4,1.813525618E-3
2.316689083E0,-1.364347641E-3,-9.647356346E-4,-2.219546586E-3,2.778227201E-3
2.326646083E0,2.045563655E-3,5.388846621E-4,-4.184160382E-3,4.688488610E-3
2.336602083E0,1.405561343E-3,8.638277650E-4,-3.647776321E-3,4.003507610E-3
2.346559083E0,-2.909824951E-3,7.037715986E-4,-2.375051379E-3,3.821419208E-3
2.356516083E0,2.151927212E-3,-1.173708588E-3,-2.382011153E-3,3.417946709E-3
2.366473083E0,1.706114039E-3,-1.195013523E-3,-1.412353478E-3,2.516669383E-3
2.376430083E0,1.913508633E-3,6.217919290E-4,1.244544983E-4,2.015844591E-3
2.386387083E0,1.325216377E-3,1.109949313E-3,-1.791955903E-3,2.489837722E-3
2.396344083E0,8.478116943E-4,3.760107793E-3,-3.285318613E-3,5.064633617E-3
2.406301083E0,-3.426213516E-4,-6.021503359E-4,-3.459755331E-3,3.528438942E-3
2.416258083E0,2.954198280E-4,-7.763635367E-4,-4.808075726E-3,4.879303783E-3
2.426215083E0,-5.322906654E-4,3.861067817E-4,-5.531391129E-3,5.570341069E-3
2.436172083E0,2.225294011E-4,-1.738749444E-3,-1.534374431E-3,2.329608091E-3
2.446128083E0,-2.544427989E-4,-1.509984024E-3,-1.459007151E-3,2.115063772E-3
2.456085083E0,9.746866417E-4,-1.905315556E-3,3.000879660E-4,2.161086348E-3
2.466042083E0,2.689762507E-3,-1.330605708E-3,-8.735675365E-4,3.125452629E-3
2.475999083E0,4.190736217E-4,-1.660666429E-3,-3.515426069E-3,3.910454723E-3
2.485956083E0,3.064657794E-3,-1.198075712E-3,-3.040317446E-3,4.480071761E-3
2.495913083E0,-1.101758564E-3,2.803478390E-3,-2.704976127E-3,4.048488466E-3
2.505870083E0,4.868168617E-4,9.435266256E-4,-2.219215035E-3,2.460111486E-3
2.515827083E0,-1.811603084E-3,-2.876514569E-3,-2.216971479E-3,4.058473154E-3
2.525784083E0,-1.931711566E-3,1.169359311E-3,-3.426047042E-3,4.103255915E-3
2.535741083E0,-1.948918565E-3,1.092202961E-3,-1.689434983E-3,2.800960807E-3
2.545698083E0,-8.192056557E-4,1.168369316E-3,-2.238046378E-3,2.654248736E-3
2.555654083E0,-6.772486959E-4,-7.138336077E-4,-3.160507418E-3,3.310140685E-3
2.565611083E0,1.086030272E-3,1.643597148E-3,-3.081145696E-3,3.657093400E-3
2.575568208E0,2.018207451E-3,3.992198035E-4,-3.362887539E-3,3.942277307E-3
2.585525208E0,-2.390879672E-4,-3.997283056E-4,-1.652073115E-3,1.716476435E-3
2.595482208E0,-6.991059054E-4,-4.785135388E-6,-2.889626659E-3,2.972997510E-3
2.605439208E0,6.385999732E-4,2.007232979E-3,-4.248637706E-3,4.742121520E-3
2.615396208E0,1.181026339E-3,1.249952242E-3,-6.584091112E-3,6.804958456E-3
2.625353208E0,6.137730088E-4,-7.173251361E-4,-1.356839202E-3,1.652962576E-3
2.635310208E0,2.375483746E-4,-9.460058063E-4,-1.247005537E-3,1.583154770E-3
2.645267208E0,9.137249435E-4,7.690703496E-4,-7.801530883E-4,1.426534723E-3
2.655224208E0,2.554459497E-4,-1.937877387E-4,-1.898717135E-3,1.925599408E-3
2.665181208E0,-1.968559809E-3,-2.516862936E-3,-2.464905381E-3,4.035540274E-3
2.675137208E0,-4.309333861E-3,1.979791559E-3,-6.287219003E-4,4.783850350E-3
2.685094208E0,-4.597348161E-4,-8.221203461E-4,-2.273223363E-3,2.460646749E-3
2.695051208E0,-7.738114800E-5,7.977196947E-4,-1.881382428E-3,2.044980292E-3
2.705008208E0,-9.152116254E-4,-2.686092630E-4,-1.487767324E-3,1.767261969E-3
2.714965208E0,-9.149513207E-4,1.713375561E-3,-1.451416872E-3,2.424747960E-3
2.724922208E0,-6.515646819E-4,5.463780835E-4,-2.951042727E-3,3.071110340E-3
2.734879208E0,7.549780421E-4,1.485720277E-4,-3.688439727E-3,3.767844624E-3
2.744836208E0,-1.190714538E-4,1.499028876E-4,-3.607478924E-3,3.612554923E-3
2.754793208E0,1.437376253E-3,6.610788405E-4,-2.797519788E-3,3.213906142E-3
2.764750208E0,-1.475322992E-3,5.084797740E-4,-1.846504398E-3,2.417583111E-3
2.774707208E0,-8.077113889E-4,-2.951547503E-4,-2.750282176E-3,2.881590891E-3
2.784663208E0,-3.805404995E-4,-7.524192333E-4,-2.532701939E-3,2.669367882E-3
2.794620208E0,-2.807102399E-3,-1.210203394E-3,-1.336772926E-3,3.336371980E-3
2.804577208E0,1.221994055E-3,3.163199872E-4,-3.593802452E-3,3.809034506E-3
2.814534208E0,-2.149753040E-3,3.451490775E-4,-1.860758290E-3,2.864085793E-3
2.824491208E0,-9.236335754E-4,-2.068473026E-3,-1.470139250E-4,2.270086504E-3
2.834448208E0,-7.687823381E-4,1.383525319E-3,-2.049937844E-3,2.589867518E-3
2.844405208E0,-3.119288245E-3,6.421012804E-4,-3.075786866E-3,4.427495687E-3
2.854362208E0,-1.778593520E-3,4.509836435E-5,-3.359988332E-4,1.810614257E-3
2.864319208E0,-6.262436509E-4,1.963373274E-3,-1.998876221E-3,2.870979253E-3
2.874276208E0,-1.201339997E-3,-7.851440459E-4,-9.792214260E-4,1.737395627E-3
2.884233208E0,1.873279572E-3,-2.255208790E-3,-2.042088658E-3,3.572851680E-3
2.894189208E0,2.758876886E-3,-1.571057364E-4,-5.024245940E-3,5.734032713E-3
2.904146208E0,-1.176742604E-3,7.971050218E-4,-5.182171240E-3,5.373546160E-3
2.914103208E0,-2.546893898E-3,1.050493680E-3,-1.380876638E-3,3.081724483E-3
2.924060208E0,1.238789642E-3,1.634790562E-3,-5.294643342E-4,2.118365512E-3
2.934017208E0,-7.685122546E-5,1.669395715E-4,5.047218874E-4,5.371397537E-4
2.943974208E0,2.435269998E-4,-2.025907859E-3,-1.086033881E-4,2.043380226E-3
2.953931208E0,2.261536662E-3,-7.752375677E-4,7.123518735E-4,2.494591459E-3
2.963888208E0,-3.943464253E-5,1.956899650E-3,-3.751639277E-3,4.231525564E-3
2.973845208E0,4.564055707E-4,-4.990650341E-4,-2.542841248E-3,2.631238029E-3
2.983802208E0,-5.787651753E-4,3.619352356E-4,-5.676582456E-3,5.717477995E-3
2.993759208E0,5.720370682E-4,-1.773038879E-3,-4.356570542E-3,4.738206429E-3
3.003715208E0,1.650883583E-3,4.869196564E-4,-1.267570071E-3,2.137578359E-3
3.013672208E0,-6.305344868E-4,-6.718654186E-5,1.484602690E-4,6.512512741E-4
3.023629208E0,1.361896284E-4,1.565331593E-3,3.283266909E-3,3.639869807E-3
3.033586208E0,1.082407078E-3,-1.176143065E-3,-5.121715367E-4,1.678462771E-3
3.043543208E0,-1.036670292E-3,-4.214029759E-4,-9.209671989E-4,1.449291670E-3
3.053500208E0,2.550416393E-4,-2.699885517E-4,-4.706865177E-3,4.721495509E-3
3.063457208E0,-1.201174920E-3,-4.739863798E-4,-3.915906884E-3,4.123325236E-3
3.073414208E0,4.586507566E-5,7.691243663E-4,-1.943601295E-3,2.090751514E-3
3.083371208E0,-9.980984032E-5,-7.589971647E-4,-2.478630282E-3,2.594156274E-3
3.093328208E0,-1.702306792E-3,1.265294850E-3,-8.183568716E-4,2.273439562E-3
3.103285208E0,8.647140930E-4,-1.576319337E-4,-3.632223234E-4,9.510566468E-4
3.113242208E0,-1.785955159E-3,-4.298528656E-4,1.126574352E-3,2.154896538E-3
3.123198208E0,1.324350713E-3,1.552071422E-3,-3.004521132E-3,3.631800895E-3
3.133155208E0,-8.254449349E-4,-1.843362115E-3,-2.028616145E-3,2.862625839E-3
3.143112208E0,1.937584719E-3,-1.117650419E-3,-3.529840149E-3,4.178893212E-3
3.153069208E0,1.927321195E-3,1.904707402E-3,-3.441428766E-3,4.380172282E-3
3.163026208E0,-2.738004318E-3,2.151848748E-3,-1.158833504E-3,3.670152009E-3
3.172983208E0,-9.065959603E-6,7.182760164E-4,-3.047503531E-3,3.131019067E-3
3.182940208E0,2.324662171E-3,-7.094442844E-4,-8.842172101E-4,2.586349837E-3
3.192897208E0,-8.399374783E-4,2.775548026E-3,-9.442819282E-4,3.049726245E-3
3.202854208E0,9.039003053E-4,2.958783880E-4,-2.697174437E-3,2.859952749E-3
3.212811208E0,6.595115992E-4,1.221095212E-3,-8.768802509E-4,1.641629690E-3
3.222768208E0,-9.266672423E-4,4.919217899E-4,-2.596482635E-3,2.800432341E-3
3.232724208E0,-7.188996533E-4,-3.714626655E-4,-1.470869407E-3,1.678766820E-3
3.242681208E0,3.538215533E-4,9.103175253E-4,1.038582996E-4,9.821681296E-4
3.252638208E0,3.479496809E-4,-2.174786292E-3,-9.659770876E-4,2.404969050E-3
3.262595208E0,-1.114924671E-3,-1.353734173E-3,-3.390252590E-3,3.816996969E-3
3.272552208E0,1.773430733E-3,-1.559630968E-3,-1.260610297E-3,2.677058767E-3
3.282509208E0,-1.810118905E-3,9.804926813E-4,-4.647085443E-3,5.082646896E-3
3.292466208E0,6.637070328E-6,1.878056675E-3,-1.681735739E-3,2.520987113E-3
3.302423208E0,-1.951318933E-3,-7.643317804E-4,1.363176852E-5,2.095718128E-3
3.312380208E0,-5.719873589E-4,2.426663414E-4,-4.259031266E-4,7.532927486E-4
3.322337208E0,2.285587834E-4,6.003286690E-4,3.421520814E-4,7.278060697E-4
3.332294208E0,-2.812688239E-3,-5.847206339E-4,-8.480986580E-4,2.995393911E-3
3.342250208E0,-1.674187253E-3,6.190277636E-4,-7.176036015E-4,1.923812169E-3
3.352207208E0,5.142600276E-5,1.653655432E-3,-3.552557901E-3,3.918914207E-3
3.362164208E0,-5.941243144E-4,7.492452860E-4,-1.623364165E-3,1.884055045E-3
3.372121208E0,1.594685018E-4,5.423845723E-4,-1.004962251E-4,5.742044223E-4
3.382078208E0,-2.879731124E-3,1.034536399E-3,-6.914511323E-4,3.137072135E-3
3.392035208E0,1.789351576E-3,-3.549214453E-4,1.138590276E-3,2.150380458E-3
3.401992208E0,8.290156838E-4,-1.816996373E-3,-2.060931176E-3,2.869874585E-3
3.411949208E0,-5.601975136E-4,6.664823741E-5,-3.085519187E-3,3.136668917E-3
3.421906208E0,4.608583404E-4,-1.404481940E-3,-2.861547284E-3,3.220778289E-3
3.431863208E0,1.257123891E-3,-1.776823774E-3,-1.670540310E-3,2.743750741E-3
3.441820208E0,3.846129403E-5,-7.227445021E-4,-2.871359698E-3,2.961172978E-3
3.451776208E0,6.881111767E-5,1.868968830E-4,-2.380710095E-3,2.389026156E-3
3.461733208E0,7.670919294E-4,3.275116906E-4,-1.454463229E-3,1.676650595E-3
3.471690208E0,-2.213705331E-3,1.676160842E-3,1.707552001E-4,2.781935262E-3
3.481647208E0,-9.423121810E-4,3.983760253E-4,-3.394152038E-3,3.544985721E-3
3.491604208E0,-1.360497437E-3,7.110964507E-4,-4.578541033E-3,4.829042289E-3
3.501561208E0,-9.964432102E-4,-9.366013110E-4,-1.253850758E-3,1.855333612E-3
3.511518208E0,9.276792407E-4,-5.825357512E-4,-8.146557957E-5,1.098441312E-3
3.521475208E0,-8.593017701E-4,3.477064893E-4,9.459825233E-4,1.324455461E-3
3.531432208E0,2.059709281E-3,3.561666235E-4,1.563521568E-3,2.610336507E-3
3.541389208E0,-1.219174592E-3,8.323397487E-4,-2.484483644E-3,2.889954173E-3
3.551346208E0,1.232745475E-3,8.488995954E-4,-4.592875019E-3,4.830609989E-3
3.561302208E0,-1.254864037E-5,-2.266466618E-3,-3.189655021E-3,3.912918035E-3
3.571259208E0,5.228429101E-3,-8.455673233E-4,-4.562490620E-3,6.990549021E-3
3.581216208E0,1.231823349E-3,-3.707400523E-3,-3.431180492E-3,5.199539111E-3
3.591173208E0,-4.192772321E-4,-5.103331059E-4,-6.743976846E-4,9.439520716E-4
3.601130208E0,1.106181415E-3,9.528072551E-4,-1.197975129E-3,1.888550608E-3
3.611087208E0,-8.936026134E-4,-6.768433377E-4,-1.342937350E-3,1.749320800E-3
3.621044208E0,-2.362868516E-3,2.989387140E-4,-1.331751235E-3,2.728749408E-3
3.631001208E0,-3.434816608E-4,8.036093786E-4,-1.071849838E-3,1.382978583E-3
3.640958208E0,-1.229781657E-3,-1.125177369E-4,-1.255341806E-3,1.760939015E-3
3.650915208E0,8.513417561E-5,2.387883142E-4,-8.388450369E-4,8.763154014E-4
3.660872208E0,-3.108262084E-3,5.582906306E-5,-5.411040038E-4,3.155503702E-3
3.670829208E0,1.690124278E-3,-1.639852300E-3,-2.057875507E-3,3.127377055E-3
3.680785208E0,-6.334838690E-4,1.295217313E-3,4.481589422E-4,1.509879511E-3
3.690742208E0,5.718758330E-4,1.249110326E-3,-2.238489687E-3,2.626433829E-3
3.700699208E0,-3.133015707E-5,1.529540867E-3,-3.132779151E-3,3.486370900E-3
3.710656208E0,-1.612321939E-4,-1.937662251E-3,-2.489216626E-3,3.158596244E-3
3.720613208E0,3.008728381E-3,4.450678825E-4,-8.029025048E-4,3.145661190E-3
3.730570208E0,-2.873897552E-3,-5.947649479E-4,1.201061532E-4,2.937253475E-3
3.740527208E0,3.746978473E-5,1.114452258E-3,-1.897238195E-3,2.200663670E-3
3.750484208E0,-5.801942898E-4,-2.837898210E-4,-1.650345512E-3,1.772230906E-3
3.760441208E0,-9.082957404E-4,4.243440926E-4,-2.858888358E-3,3.029572858E-3
3.770398208E0,4.379908787E-4,-2.043214627E-3,-3.547235392E-3,4.116969874E-3
3.780355208E0,-2.365878318E-4,1.663107425E-3,1.282674260E-3,2.113564138E-3
3.790311208E0,1.162508735E-3,5.246419460E-4,-2.513434738E-4,1.299942027E-3
3.800268208E0,-1.701188274E-3,5.645863712E-5,-2.314760350E-3,2.873211548E-3
3.810225208E0,-1.875875983E-3,4.599094391E-4,2.760626376E-4,1.951060731E-3
3.820182208E0,9.217747720E-4,-1.417352818E-3,-2.470987849E-3,2.994050549E-3
3.830139208E0,-3.398294793E-4,7.112473249E-4,-3.862185404E-3,3.941805795E-3
3.840096208E0,-1.683218870E-4,3.394698724E-4,-1.391768456E-5,3.791645472E-4
3.850053208E0,-3.231042530E-3,-1.450143754E-4,9.510507807E-4,3.371225681E-3
3.860010208E0,2.110929927E-4,-5.926098675E-5,-3.618877381E-4,4.231251010E-4
3.869967208E0,2.658801386E-4,7.190145552E-4,1.245792955E-3,1.462762546E-3
3.879924208E0,-4.465153906E-4,-1.512181014E-3,-1.568634994E-3,2.224114016E-3
3.889881208E0,7.904101512E-4,-4.349658266E-4,-3.634784371E-4,9.726561837E-4
3.899837208E0,6.929384544E-4,-2.114088275E-3,-3.026107326E-3,3.755909808E-3
3.909794208E0,2.791784937E-4,6.900792941E-4,-3.602799028E-3,3.678900773E-3
3.919751208E0,-1.570472959E-4,1.880731434E-4,-3.321036696E-3,3.330063077E-3
3.929708208E0,-1.280046534E-3,1.192403957E-3,-3.684591502E-4,1.787766336E-3
3.939665208E0,3.676513443E-4,-1.647435129E-4,4.217009991E-4,5.832149421E-4
3.949622208E0,9.937933646E-4,-6.238082424E-4,-8.283704519E-4,1.436300658E-3
3.959579208E0,4.241432762E-4,1.574630849E-3,2.225134522E-4,1.645865142E-3
3.969536208E0,6.628889241E-4,-4.968140274E-4,-2.815201879E-3,2.934554058E-3
3.979493208E0,-2.258066088E-3,-7.383618504E-4,-2.250611782E-3,3.272505779E-3
3.989450208E0,-4.323356552E-4,-4.475265741E-4,-1.876359805E-3,1.976846042E-3
3.999407208E0,-3.412555670E-4,-1.120241359E-3,-1.051313244E-3,1.573739369E-3
4.009363208E0,3.605233505E-4,-8.335933089E-4,-1.760995947E-3,1.981403951E-3
4.019320208E0,-3.367902245E-3,-8.234735578E-4,-9.713685140E-4,3.600615368E-3
4.029277208E0,-6.170524284E-4,-1.259929501E-3,-1.948922873E-3,2.401348873E-3
4.039234208E0,1.697234577E-3,1.203494146E-3,-2.951603383E-3,3.611227755E-3
4.049191208E0,-4.460184136E-4,2.484979108E-3,-1.495518722E-3,2.934387473E-3
4.059148208E0,2.985730767E-3,2.889247611E-3,-1.783939078E-3,4.521590274E-3
4.069105208E0,-2.186526544E-3,-4.822472110E-4,5.479287356E-4,2.305143510E-3
4.079062208E0,1.308872248E-3,-1.633265056E-3,-2.657984383E-3,3.383132023E-3
4.089019208E0,1.397122396E-4,5.594957620E-4,1.167559996E-3,1.302210184E-3
4.098976208E0,1.597260358E-3,-7.252134383E-4,-8.055754006E-4,1.930317826E-3
4.108933208E0,-1.825963380E-3,3.553843126E-4,-1.483125612E-3,2.379096857E-3
4.118889208E0,-2.892559161E-3,-2.158373594E-3,-1.865022816E-3,4.062485099E-3
4.128846208E0,-3.569260007E-4,-6.687808782E-4,-2.551758662E-3,2.661979771E-3
4.138803208E0,-1.303946134E-3,-7.862504572E-5,-1.529104076E-3,2.011123242E-3
4.148760208E0,-2.513858490E-3,3.780005500E-4,-3.234166652E-4,2.562609463E-3
4.158717208E0,2.509129699E-3,8.666906506E-4,-2.215325832E-3,3.457535694E-3
4.168674208E0,1.361129805E-3,3.370465711E-4,-8.501783013E-4,1.639840810E-3
4.178631208E0,1.197611680E-3,8.451780304E-4,-2.383626066E-3,2.798262472E-3
4.188588208E0,-8.987740148E-4,-1.859854907E-3,-2.565279603E-3,3.293556504E-3
4.198545208E0,3.090108745E-3,-2.188151702E-4,-7.602293044E-5,3.098779053E-3
4.208502208E0,1.023717923E-4,1.275438815E-3,5.701184273E-5,1.280810097E-3
4.218459208E0,1.373764826E-3,8.722357452E-4,-4.607066512E-4,1.691234937E-3
4.228415208E0,-5.550798960E-4,1.784145832E-3,-1.908375882E-3,2.670802978E-3
4.238372208E0,6.809970364E-5,-1.089937985E-3,7.830150425E-4,1.343768930E-3
4.248329208E0,4.952248419E-4,-4.140537232E-3,-1.731070690E-3,4.515074966E-3
4.258286208E0,-1.296816277E-3,-1.759137958E-3,-1.440932974E-4,2.190219553E-3
4.268243208E0,6.688642316E-5,7.132822648E-4,5.500232801E-4,9.032004160E-4
4.278200208E0,1.143069821E-3,-1.897681504E-3,-1.862267964E-3,2.894105333E-3
4.288157208E0,8.109842311E-4,8.073067293E-4,-1.903396100E-3,2.220890878E-3
4.298114208E0,-4.394963384E-3,7.333979011E-5,-1.475958154E-3,4.636759034E-3
4.308071208E0,-7.721241564E-4,-3.621457145E-4,-1.592282206E-3,1.806291188E-3
4.318028208E0,1.307538245E-3,-9.051645175E-4,-2.069254406E-3,2.609749578E-3
4.327985208E0,-4.397050943E-4,6.591528654E-4,-9.508896619E-5,7.980382080E-4
4.337941208E0,-3.185312962E-4,4.421053454E-4,-3.498609178E-3,3.540788825E-3
4.347898208E0,1.620163210E-3,-1.603296958E-3,-1.641287468E-3,2.808792359E-3
4.357855208E0,1.744266483E-3,2.743780613E-3,-2.009602264E-3,3.822211254E-3
4.367812208E0,1.315312693E-4,1.186183654E-3,-1.331421547E-3,1.788019986E-3
4.377769208E0,-1.046118559E-3,5.102735013E-4,2.267938107E-4,1.185823983E-3
4.387726208E0,-1.387842465E-3,8.711954579E-4,-1.386655495E-4,1.644480577E-3
4.397683208E0,8.843665710E-4,-4.627816379E-4,-1.197271980E-3,1.558759530E-3
4.407640208E0,-4.365626723E-3,-1.496013254E-3,-1.360871829E-3,4.811312136E-3
4.417597208E0,-1.359983231E-3,3.788517788E-4,-1.956621185E-3,2.412768020E-3
4.427554208E0,5.000904202E-4,-9.216107428E-4,-1.521671191E-3,1.847955628E-3
4.437511208E0,2.305784728E-4,1.858995296E-3,1.585971564E-3,2.454452229E-3
4.447467208E0,6.838125410E-4,-3.624102101E-4,1.871810295E-3,2.025491183E-3
4.457424208E0,-7.740017027E-4,1.375036314E-3,7.620705292E-4,1.752299915E-3
4.467381208E0,-2.097655553E-3,-8.717179298E-7,-1.212088391E-3,2.422667507E-3
4.477338208E0,7.948036655E-4,-3.715837374E-4,-3.546616063E-3,3.653528820E-3
4.487295208E0,2.083854051E-3,1.446884125E-4,-3.369997256E-3,3.964878806E-3
4.497252208E0,-2.277697204E-4,-3.028102219E-5,-7.529081777E-4,7.871891195E-4
4.507209208E0,8.788357372E-4,-5.339151248E-4,7.867440581E-4,1.294752419E-3
4.517166208E0,-8.801820222E-4,-1.998919994E-3,2.152945846E-3,3.066851374E-3
4.527123208E0,-2.075133380E-4,1.911669970E-3,2.564372960E-3,3.205238297E-3
4.537080208E0,-2.999249846E-4,1.083160751E-3,7.033562288E-4,1.325859039E-3
4.547037208E0,-2.145149978E-3,7.473211735E-5,-2.043939196E-3,2.963940072E-3
4.556994208E0,-6.993196439E-4,1.942939125E-3,-3.506546840E-3,4.069389530E-3
4.566950208E0,-2.081936458E-3,1.610862091E-3,-1.529506408E-3,3.044458235E-3
4.576906958E0,3.607559483E-5,3.228199668E-3,-2.066665329E-3,3.833233639E-3
4.586863958E0,8.806433179E-4,8.551627398E-4,2.913413569E-3,3.161457669E-3
4.596820958E0,-1.557214418E-3,-3.738859668E-4,3.398641478E-3,3.757056209E-3
4.606777958E0,7.682792493E-4,-3.192704171E-4,9.256126359E-4,1.244566332E-3
4.616734958E0,1.629012870E-3,-1.117154025E-3,1.719389111E-4,1.982745327E-3
4.626691958E0,4.962841049E-4,8.134925738E-4,-4.189356230E-3,4.296367501E-3
4.636648958E0,-1.006537583E-3,-1.163904555E-3,-5.323596299E-3,5.541522288E-3
4.646605958E0,-5.181720480E-4,4.081986845E-3,-2.230127342E-3,4.680233630E-3
4.656562958E0,-1.092616003E-3,-6.943922490E-4,9.097391739E-4,1.582281799E-3
4.666518958E0,-5.007502623E-4,1.716314815E-3,2.210428007E-3,2.842970162E-3
4.676475958E0,-9.329812601E-4,2.462798730E-3,-7.129237056E-4,2.728386304E-3
4.686432958E0,2.028306713E-3,-9.452737868E-4,-1.393763348E-3,2.636313131E-3
4.696389958E0,-2.361792140E-4,4.547499120E-4,-4.124835134E-3,4.156542191E-3
4.706346958E0,-4.693807568E-4,-4.152599722E-4,-3.759251907E-3,3.811132908E-3
4.716303958E0,-2.052630065E-3,4.489356652E-4,-1.019124873E-3,2.335262067E-3
4.726260958E0,8.136729011E-4,-2.077594399E-4,-1.467603259E-3,1.690883467E-3
4.736217958E0,6.275179330E-4,-1.576924697E-4,1.332177781E-3,1.480994028E-3
4.746174958E0,6.285155541E-4,-1.250625588E-3,-8.530747145E-4,1.639156073E-3
4.756131958E0,-2.029319061E-3,-8.554132655E-4,-3.352983855E-3,4.011529439E-3
4.766088958E0,1.191154122E-3,-1.504132524E-4,-3.267443739E-3,3.481043073E-3
4.776045958E0,6.465376355E-4,2.860790119E-4,-1.356093213E-3,1.529326949E-3
4.786001958E0,-1.038160175E-3,8.360035717E-4,-3.187335096E-3,3.454820334E-3
4.795958958E0,1.519007143E-3,1.384614967E-3,1.870008186E-3,2.778753663E-3
4.805915958E0,-1.540174242E-3,-8.891476318E-4,2.328492235E-3,2.929948173E-3
4.815872958E0,-7.034090813E-4,-1.014316455E-3,6.757341325E-4,1.407209588E-3
4.825829958E0,2.733347937E-3,1.545469277E-3,1.269566827E-3,3.386955293E-3
4.835786958E0,-6.685738917E-4,-2.468377352E-4,-4.017606378E-3,4.080328531E-3
4.845743958E0,-2.154775895E-3,-5.912035704E-4,-2.412672155E-3,3.288398964E-3
4.855700958E0,-7.379741874E-4,-1.706909388E-4,-1.552737318E-3,1.727638410E-3
4.865657958E0,9.181453497E-4,5.424395204E-4,-7.175551727E-4,1.285347012E-3
4.875614958E0,-1.591084991E-3,-4.735561088E-4,2.139750402E-3,2.708198409E-3
4.885571958E0,3.736211220E-4,9.709661826E-4,1.563091762E-3,1.877664488E-3
4.895527958E0,-1.762766624E-3,-4.727328196E-4,-1.754192635E-4,1.833465137E-3
4.905484958E0,-2.656991128E-3,-1.884684898E-3,-3.889684565E-3,5.073586999E-3
4.915441958E0,3.992523998E-4,-7.568364963E-4,-2.435864881E-3,2.581790402E-3
4.925398958E0,-1.003432088E-3,1.693085767E-3,-5.005458370E-4,2.030753925E-3
4.935355958E0,2.672529314E-3,8.419388905E-4,-8.046785370E-4,2.915266982E-3
4.945312958E0,-1.456977683E-3,4.137968644E-4,1.930083148E-3,2.453412475E-3
4.955269958E0,8.189597866E-4,1.938988455E-3,1.532739960E-3,2.603778628E-3
4.965226958E0,-1.986699179E-3,5.142493173E-4,2.576718107E-4,2.068289329E-3
4.975183958E0,1.113486709E-3,-2.055967227E-3,-4.146663472E-3,4.760427695E-3
4.985140958E0,6.697144709E-4,4.364121705E-4,-2.808257937E-3,2.919809189E-3
4.995097958E0,-4.093984608E-4,1.127769239E-3,-1.750982367E-3,2.122595064E-3
5.005053958E0,-4.446273670E-4,-2.564527094E-4,-7.706936449E-4,9.259752599E-4
5.015010958E0,-2.228679135E-3,1.033848152E-3,-4.383306950E-4,2.495593414E-3
5.024967958E0,7.131742314E-4,5.488246679E-4,-1.521408558E-4,9.126734577E-4
5.034924958E0,-2.318981569E-5,2.574753016E-4,-1.909295097E-3,1.926717173E-3
5.044881958E0,4.247631878E-4,4.437407479E-4,-2.721951343E-3,2.790402969E-3
5.054838958E0,1.332634827E-3,2.466673031E-4,-3.075619228E-3,3.360981103E-3
5.064795958E0,-2.170562977E-3,1.442292705E-4,-1.604402438E-3,2.703008121E-3
5.074752958E0,1.056389185E-3,-4.009203985E-4,-1.192677766E-3,1.642916775E-3
5.084709958E0,-4.587459844E-4,3.121769056E-3,-9.357724339E-4,3.291133538E-3
5.094666958E0,-5.186122842E-3,4.860386252E-4,-3.578662872E-4,5.221127460E-3
5.104623958E0,1.941639930E-4,-8.333101869E-5,1.458405517E-3,1.473631693E-3
5.114579958E0,4.165379796E-4,1.316959970E-3,4.322901368E-4,1.447329338E-3
5.124536958E0,-3.149440745E-4,1.458239742E-3,-5.598617718E-4,1.593454774E-3
5.134493958E0,7.042476209E-4,3.387966193E-3,-3.217429854E-3,4.725053915E-3
5.144450958E0,-3.718703520E-4,-4.019504413E-4,-4.103220999E-4,6.842630646E-4
5.154407958E0,-2.146600746E-3,5.392106250E-4,-3.119023517E-3,3.824519651E-3
5.164364958E0,5.073406501E-4,-7.752152160E-4,-7.925005630E-4,1.219184280E-3
5.174321958E0,2.015222562E-3,-2.119569108E-4,4.802243784E-4,2.082465645E-3
5.184278958E0,-2.826565411E-3,-3.808485344E-4,2.609183546E-3,3.865534427E-3
5.194235958E0,2.678454854E-3,-5.592806265E-4,-2.026846632E-3,3.405146472E-3
5.204192958E0,-1.203682972E-3,-3.962796181E-4,-5.636857823E-4,1.386950574E-3
5.214149958E0,2.061618958E-3,1.394961961E-3,-2.435888164E-3,3.482778021E-3
5.224105958E0,-1.203118591E-4,-7.261158898E-4,-1.768500544E-3,1.915545197E-3
5.234062958E0,-1.284379512E-3,1.607612707E-3,-1.350915991E-3,2.461508351E-3
5.244019958E0,1.753438846E-3,1.190663315E-3,-6.314832717E-5,2.120427935E-3
5.253976958E0,1.169940340E-3,-1.202719286E-3,5.123605952E-4,1.754368109E-3
5.263933958E0,8.462657570E-4,-2.031576820E-3,-8.197259158E-4,2.348493279E-3
5.273890958E0,1.740288921E-3,-7.423404604E-4,-1.057812013E-3,2.167634919E-3
5.283847958E0,-1.533737639E-3,-2.051955089E-4,-2.744479105E-3,3.150654202E-3
5.293804958E0,-6.554271095E-4,9.697908536E-4,-6.294250488E-5,1.172194845E-3
5.303761958E0,-1.782929059E-3,2.530580387E-4,5.226302892E-5,1.801556501E-3
5.313718958E0,-5.839739460E-4,5.569243804E-4,-2.284394577E-3,2.422735834E-3
5.323675958E0,3.086519428E-3,-5.731629208E-4,5.143554881E-4,3.181144366E-3
5.333632958E0,8.278925670E-4,-1.292216592E-3,-3.727432340E-4,1.579293304E-3
5.343588958E0,1.352861291E-4,-2.991260029E-3,2.995878458E-5,2.994467637E-3
5.353545958E0,-7.377204020E-5,5.097314715E-4,-1.851830631E-3,1.922119969E-3
5.363502958E0,-2.554339822E-3,4.902016371E-4,-2.135591581E-3,3.365367881E-3
5.373459958E0,2.715523355E-3,-2.039002255E-3,-3.940416500E-3,5.201776569E-3
5.383416958E0,-3.679496003E-4,7.096873596E-4,-8.102040738E-5,8.034969591E-4
5.393373958E0,-2.725645900E-3,4.002284259E-4,-1.196618192E-3,3.003535161E-3
5.403330958E0,1.642784337E-4,-2.657193691E-4,8.805701509E-4,9.343436079E-4
5.413287958E0,-3.414559178E-4,4.695793614E-4,-1.604594290E-4,6.023654612E-4
5.423244958E0,1.871915883E-3,1.635830849E-4,-2.186868340E-3,2.883265793E-3
5.433201958E0,-4.788564984E-4,5.308333784E-4,-3.326701000E-3,3.402650021E-3
5.443158958E0,1.495970646E-3,4.652915522E-4,-3.349754028E-3,3.698009796E-3
5.453114958E0,-1.866003848E-3,8.743535727E-4,-3.403816372E-4,2.088617770E-3
5.463071958E0,1.178208040E-4,-3.325520083E-4,2.500025555E-3,2.524797092E-3
5.473028958E0,3.030786291E-3,8.610766381E-4,5.588475615E-4,3.199910798E-3
5.482985958E0,1.288844505E-3,4.777051508E-4,1.564616337E-3,2.082629745E-3
5.492942958E0,-2.148231026E-3,4.121921957E-4,-2.375449985E-4,2.200278749E-3
5.502899958E0,-2.000452485E-3,2.007197589E-3,-5.507469177E-5,2.834375685E-3
5.512856958E0,-2.933623968E-3,3.486033529E-5,-1.592783257E-3,3.338311449E-3
5.522813958E0,-8.018033113E-4,6.641745567E-4,-2.425934188E-3,2.639919142E-3
5.532770958E0,1.173729426E-3,5.560498685E-4,6.649298593E-4,1.459096960E-3
5.542727958E0,-6.821707357E-4,-4.491303116E-5,-1.275334507E-3,1.447014927E-3
5.552684958E0,-3.136539832E-3,5.428465083E-4,-4.777181894E-4,3.218816415E-3
5.562640958E0,9.071355453E-4,-5.753012374E-4,2.048909664E-8,1.074181741E-3
5.572598458E0,-8.960908744E-4,1.091305166E-3,-4.788162187E-4,1.491036818E-3
5.582555458E0,8.805847028E-4,9.572505951E-5,-2.310863696E-3,2.474809837E-3
5.592512458E0,4.960242659E-4,-7.921727374E-4,-6.953906268E-4,1.164966026E-3
5.602469458E0,4.795697751E-4,-4.885243252E-4,1.583359204E-3,1.725012914E-3
5.612426458E0,-2.113283845E-3,4.566311836E-4,-2.483623102E-4,2.176273072E-3
5.622383458E0,9.535491699E-4,-1.981779933E-4,1.904378645E-3,2.138969042E-3
5.632340458E0,-6.419507554E-4,-3.086999059E-4,-1.480231993E-3,1.642706047E-3
5.642297458E0,4.067865666E-4,2.289041877E-4,-3.199287690E-3,3.233158543E-3
5.652254458E0,7.793628029E-4,1.210811548E-3,-1.784083433E-3,2.292689399E-3
5.662211458E0,5.265907384E-5,1.493130811E-3,-5.155360326E-3,5.367490353E-3
5.672168458E0,-2.584935632E-3,-2.986444160E-4,1.729745418E-5,2.602187524E-3
5.682124458E0,-3.033903893E-3,2.840319648E-4,-1.394360326E-3,3.351042779E-3
5.692081458E0,9.800127009E-4,-1.261400059E-3,5.706213415E-5,1.598377643E-3
5.702038458E0,3.460287116E-3,-1.612907276E-3,1.695460640E-3,4.177277054E-3
5.711995458E0,-5.475040525E-4,1.630290411E-3,4.856195301E-5,1.720455107E-3
5.721952458E0,-1.466395333E-3,2.015760168E-3,-1.340590417E-3,2.830333372E-3
5.731909458E0,1.778400154E-3,-1.663130708E-3,-1.285728998E-3,2.753508656E-3
5.741866458E0,5.428148434E-4,2.895258367E-3,-2.012341283E-3,3.567448165E-3
5.751823458E0,1.601155149E-3,-6.632572040E-4,-1.300744712E-3,2.166920565E-3
5.761780458E0,2.032498829E-3,-1.893046312E-3,-2.350269817E-3,3.638467265E-3
5.771737458E0,2.773390152E-3,-7.212553173E-4,-1.122552902E-3,3.077665866E-3
5.781694458E0,-3.029404674E-3,2.999827266E-4,-1.105314121E-3,3.238672817E-3
5.791650458E0,-1.409137505E-3,-1.383401453E-3,-1.803061925E-3,2.674041958E-3
5.801607458E0,-2.709890716E-3,1.318864524E-4,5.720350891E-4,2.772746990E-3
5.811564458E0,-1.516262069E-3,3.438740969E-4,-1.085516997E-3,1.896219188E-3
5.821521458E0,1.467986032E-3,1.836868934E-3,-2.428723499E-3,3.380498234E-3
5.831478458E0,-1.455898513E-3,-1.979175024E-3,-3.032994457E-3,3.903310086E-3
5.841435458E0,-2.098286524E-3,4.024161026E-4,-5.756551400E-4,2.212718667E-3
5.851392458E0,-1.070306404E-3,-1.137424260E-3,-6.883060560E-4,1.706767404E-3
5.861349458E0,-1.634848770E-3,-2.115994692E-3,-3.387850709E-3,4.315981518E-3
5.871306458E0,-7.642614655E-4,-5.308808759E-4,-1.682096161E-3,1.922336492E-3
5.881263458E0,-1.212969422E-3,-2.577187493E-3,8.032657206E-4,2.959463805E-3
5.891220458E0,2.569784410E-3,1.152835786E-3,-1.752037555E-3,3.316995306E-3
5.901176458E0,9.216703475E-4,-8.716611192E-4,-4.305262119E-4,1.339635083E-3
5.911133458E0,-2.288237680E-3,1.078499481E-4,-2.079023048E-3,3.093541680E-3
5.921090458E0,-7.012817077E-4,1.526165754E-3,-9.764544666E-5,1.682412724E-3
5.931047458E0,-1.069330610E-3,-1.756712794E-3,-3.897709772E-3,4.407000030E-3
5.941004458E0,1.599397510E-4,-2.539772540E-4,1.092157327E-3,1.132648576E-3
5.950961458E0,-4.643052816E-4,-1.608194783E-3,1.804020256E-3,2.460967074E-3
5.960918458E0,6.661343505E-4,2.882927656E-3,-6.367815658E-4,3.026631396E-3
5.970875458E0,-2.073459327E-3,1.650949009E-3,8.360296488E-5,2.651764633E-3
5.980832458E0,-2.151547233E-4,-9.827613831E-4,2.343300730E-5,1.006310388E-3
5.990789458E0,2.445076825E-3,4.023481160E-4,2.306271344E-4,2.488669034E-3
6.000746458E0,1.595092472E-4,-1.243753359E-4,9.485986084E-5,2.234072902E-4
6.010703458E0,-2.737870673E-4,5.259690806E-4,-1.601574011E-3,1.707817948E-3
6.020659458E0,-1.193569042E-3,3.667911515E-4,-1.394166611E-3,1.871588455E-3
6.030616458E0,-2.976774704E-5,-2.314745449E-3,-3.784373403E-4,2.345665669E-3
6.040573458E0,3.111106576E-3,-1.420754008E-3,-1.398957334E-3,3.695214162E-3
6.050530458E0,-1.537973643E-3,-6.329910830E-4,-1.782985404E-3,2.438252979E-3
6.060487458E0,-1.072181505E-3,-7.287664339E-4,-1.411663368E-3,1.916629114E-3
6.070444458E0,1.985393697E-3,-1.460603438E-3,6.815809757E-4,2.557284334E-3
6.080401458E0,8.453720948E-4,5.502626300E-4,-1.264313236E-3,1.617383968E-3
6.090358458E0,-3.000895958E-5,-5.448283628E-4,-1.113578677E-3,1.240079011E-3
6.100315458E0,1.830428606E-3,-1.067574136E-3,-2.529404126E-3,3.299707358E-3
6.110272458E0,2.149550710E-4,-3.682281822E-4,-2.225536853E-3,2.266012348E-3
6.120229458E0,-1.306251041E-3,-6.432812661E-4,-4.930309951E-4,1.537264496E-3
6.130185458E0,-3.108146135E-3,-2.726938576E-3,-2.427285537E-3,4.794630483E-3
6.140142458E0,-2.203085460E-4,5.536954850E-4,-1.563397236E-3,1.673118485E-3
6.150099458E0,-1.729521900E-3,8.027013391E-4,-1.660602167E-3,2.528472860E-3
6.160056458E0,-7.026186213E-4,-7.930546999E-4,1.993449405E-4,1.078122020E-3
6.170013458E0,-2.388399560E-3,2.399542369E-3,-1.953554340E-3,3.908788891E-3
6.179970458E0,7.646404556E-4,8.779354393E-4,7.313545793E-4,1.374890971E-3
6.189927458E0,-1.631139312E-3,1.224945299E-3,9.633162990E-4,2.255899983E-3
6.199884458E0,9.779422544E-4,-9.000813589E-4,-5.976296961E-6,1.329117460E-3
6.209841458E0,-6.130300462E-4,-3.557316959E-4,4.835240543E-5,7.104145495E-4
6.219798458E0,3.208630951E-4,1.500360668E-3,1.253982075E-3,1.981541396E-3
6.229755458E0,1.520187361E-4,-1.146821305E-3,-1.564174891E-3,1.945495281E-3
6.239712458E0,1.355822897E-3,4.364866763E-4,2.655154094E-4,1.448887428E-3
6.249668458E0,2.113492228E-3,1.325449906E-3,-4.101283848E-4,2.528215209E-3
6.259625458E0,5.963484291E-4,1.195497811E-3,3.202768974E-3,3.470241428E-3
6.269582458E0,-2.331797034E-3,-8.189175278E-4,-2.817573026E-3,3.747882213E-3
6.279539458E0,3.357827198E-3,6.518699229E-5,-4.028948024E-4,3.382540030E-3
6.289496458E0,-9.868536144E-4,-1.580646262E-3,-9.685503319E-4,2.100098190E-3
6.299453458E0,-5.712732673E-6,-5.357470363E-4,-1.409585588E-3,1.507975149E-3
6.309410458E0,3.519498277E-4,-1.617789268E-3,-1.284683123E-3,2.095595745E-3
6.319367458E0,3.790182061E-3,-1.144558191E-4,-1.043071039E-3,3.932756970E-3
6.329324458E0,1.956595574E-3,1.607277431E-3,1.096778549E-3,2.759443814E-3
6.339281458E0,-3.024473554E-3,-3.034743480E-3,-1.799548045E-4,4.288297098E-3
6.349238458E0,-7.642486598E-4,1.455346122E-3,-1.009263098E-3,1.928916886E-3
6.359194458E0,-3.023487516E-4,-3.257097676E-3,-2.699912526E-3,4.241418122E-3
6.369151458E0,-1.125265611E-3,7.216650993E-4,-8.439552039E-4,1.580912268E-3
6.379108458E0,3.110567108E-3,9.829821065E-4,-1.230595633E-3,3.486581014E-3
6.389065458E0,2.231679391E-4,-2.016269602E-3,1.965919510E-4,2.038086218E-3
6.399022458E0,7.870394038E-4,-6.488170475E-4,1.311111264E-3,1.661146390E-3
6.408979458E0,8.498899988E-4,7.573319599E-4,9.603733197E-4,1.489356109E-3
6.418936458E0,-2.312919823E-4,-3.746794537E-4,1.279948279E-3,1.353568717E-3
6.428893458E0,7.337366696E-5,1.223217696E-3,-5.043698475E-4,1.325154395E-3
6.438850458E0,6.733345799E-6,-9.921416640E-4,-4.740266129E-3,4.842986000E-3
6.448807458E0,-2.530726604E-3,-1.448341645E-3,-2.536766231E-3,3.864900203E-3
6.458764458E0,-9.852172807E-4,3.612092696E-3,1.411255449E-3,4.001188408E-3
6.468721458E0,-1.119668595E-4,-1.116882078E-3,-1.650694758E-4,1.134552813E-3
6.478677458E0,3.354925429E-4,-1.050740480E-3,-5.869008601E-5,1.104561148E-3
6.488634458E0,-5.662536714E-4,1.266210340E-3,9.690243751E-4,1.692022484E-3
6.498591458E0,4.368880764E-5,-9.515918791E-4,-9.077321738E-5,9.569093966E-4
6.508548458E0,5.667336518E-4,-3.136981279E-3,-1.730748452E-3,3.627303238E-3
6.518505458E0,-1.537019620E-3,1.240018755E-3,-1.835041679E-3,2.695821543E-3
6.528462458E0,-1.929569524E-3,-4.297830164E-4,-1.221981831E-3,2.324046382E-3
6.538419458E0,-4.916056059E-4,-1.731065102E-3,1.006852835E-5,1.799545452E-3
6.548376458E0,1.333458582E-3,-7.398361340E-4,4.377728328E-4,1.586541631E-3
6.558333458E0,5.821229424E-4,-3.265612759E-3,-1.036049798E-4,3.318708755E-3
6.568290458E0,5.379144568E-4,4.561552778E-4,-1.981399022E-3,2.103181325E-3
6.578246750E0,6.181930657E-4,1.596419141E-3,-5.105854943E-4,1.786452990E-3
6.588202750E0,-3.922103206E-4,-2.233181149E-4,-1.377710141E-3,1.449753479E-3
6.598159750E0,-9.360057302E-4,2.767995931E-3,3.522687126E-3,4.576814699E-3
6.608116750E0,-1.812659902E-4,-1.189993694E-3,-1.309085637E-3,1.778383411E-3
6.618073750E0,4.201303236E-4,8.338326588E-4,-3.391625360E-4,9.933869425E-4
6.628030750E0,6.339821266E-4,-6.410256028E-4,1.641430892E-3,1.872736643E-3
6.637987750E0,-1.974472543E-3,-1.077555120E-3,1.164341345E-3,2.532855627E-3
6.647944750E0,1.917425543E-4,-6.559761241E-4,-1.299881376E-3,1.468591664E-3
6.657901750E0,2.068006666E-3,-8.450886235E-4,-4.894762300E-3,5.380476217E-3
6.667858750E0,-2.354172291E-3,-2.028863877E-3,2.001493238E-3,3.696537703E-3
6.677815750E0,-1.980770379E-3,-2.290286124E-3,1.153680496E-3,3.240345739E-3
6.687772750E0,-7.304161554E-4,1.489035785E-4,-1.434911974E-3,1.616988685E-3
6.697729750E0,-1.787114656E-3,-2.071931958E-4,1.300925389E-3,2.220160958E-3
6.707685750E0,-8.655712008E-6,-2.671948634E-3,3.152890131E-4,2.690500248E-3
6.717642750E0,-6.193101872E-4,1.917751506E-4,-1.531038433E-4,6.661558400E-4
6.727599750E0,-1.990305493E-3,-5.776118487E-4,1.012561843E-3,2.306563003E-3
6.737556750E0,1.846977742E-3,-2.639826387E-3,-3.907177597E-4,3.245407602E-3
6.747513750E0,-2.007267904E-4,1.325620338E-3,-5.321316421E-4,1.442471702E-3
6.757470750E0,1.547999214E-3,-9.525706992E-4,-4.720315337E-5,1.818219085E-3
6.767427750E0,-3.141827649E-3,-3.040907905E-4,3.208462149E-4,3.172773940E-3
6.777384750E0,-8.054957725E-4,-3.265058622E-4,9.183930233E-4,1.264466395E-3
6.787341750E0,9.889421053E-4,8.974596858E-5,-2.047303133E-3,2.275414455E-3
6.797298750E0,9.776118677E-4,3.542182967E-4,-1.344166696E-3,1.699405682E-3
6.807255750E0,1.087600482E-3,1.084190793E-3,-1.579057425E-3,2.202672658E-3
6.817211750E0,1.097720116E-3,1.685752533E-3,-1.042075455E-4,2.014351079E-3
6.827168750E0,5.658868467E-4,-8.570328355E-4,2.720970660E-4,1.062435889E-3
6.837125750E0,-2.908737864E-3,4.613166675E-4,-1.707161777E-3,3.404110804E-3
6.847082750E0,1.600227552E-4,-9.269891307E-4,7.855566218E-4,1.225567353E-3
6.857039750E0,-1.988303848E-5,-1.022954471E-3,1.962071285E-3,2.212816059E-3
6.866996750E0,1.316224807E-3,-1.442668959E-3,9.423475713E-4,2.168354310E-3
6.876953750E0,-2.974331146E-4,2.930041403E-3,-4.423484206E-4,2.978133846E-3
6.886910750E0,7.925987011E-4,1.923632808E-3,-1.137144864E-4,2.083628294E-3
6.896867750E0,-2.279722830E-4,-2.135177143E-3,1.513299532E-3,2.626980827E-3
6.906824750E0,-2.631259849E-4,-2.994312905E-3,1.534894109E-4,3.009768106E-3
6.916781750E0,-8.654640988E-5,1.085972413E-3,-2.816785127E-5,1.089779699E-3
6.926738750E0,2.420876408E-4,2.428205684E-3,5.960771814E-4,2.511990700E-3
6.936694750E0,-2.558151027E-4,-4.440732300E-5,2.525209915E-3,2.538522896E-3
6.946651750E0,-7.730009966E-4,1.152151264E-3,2.876222134E-4,1.416936701E-3
6.956608750E0,2.070143819E-5,1.600702293E-3,1.786657609E-3,2.398920964E-3
6.966565750E0,-1.750034397E-3,-1.045946963E-3,-1.028552651E-4,2.041373225E-3
6.976522750E0,1.272070105E-3,-3.882041201E-4,8.679656312E-4,1.588152741E-3
6.986479750E0,2.438002033E-3,-8.380506188E-5,-1.103306189E-3,2.677342292E-3
6.996436750E0,1.203374821E-3,-1.034224406E-4,4.456499591E-4,1.287404772E-3
7.006393750E0,1.598587842E-3,7.442617789E-4,1.287475228E-3,2.183346319E-3
7.016350750E0,-2.409115434E-3,-9.644497186E-5,8.264416829E-4,2.548753550E-3
7.026307750E0,-1.415489940E-3,-7.761642337E-6,-1.168532297E-3,1.835521654E-3
7.036264750E0,2.042901469E-3,-4.965551198E-4,-1.180684194E-4,2.105695503E-3
7.046220750E0,-2.114825649E-3,-1.929335296E-3,-4.036643542E-3,4.948667831E-3
7.056177750E0,-5.478337407E-4,1.256084070E-4,-3.442646936E-3,3.488225509E-3
7.066134750E0,-1.869827043E-3,-7.279347628E-4,1.105433330E-4,2.009567620E-3
7.076091750E0,-5.156716798E-4,7.792757824E-4,-6.358437240E-4,1.130258938E-3
7.086048750E0,8.249634993E-4,1.884222031E-3,1.749549061E-3,2.700329490E-3
7.096005750E0,-1.763846958E-3,3.630630672E-4,7.426608354E-4,1.947951744E-3
7.105962750E0,1.400787267E-3,7.766513154E-4,-2.162315883E-3,2.690911037E-3
7.115919750E0,2.310971031E-4,1.999400556E-4,-2.517530695E-3,2.536009206E-3
7.125876750E0,5.165879847E-4,-1.194491051E-3,-9.057857096E-4,1.585597606E-3
7.135833750E0,-8.797408082E-4,-9.264145046E-5,6.203791127E-4,1.080461277E-3
7.145790750E0,-2.986034844E-3,-1.061765477E-3,4.504695535E-4,3.201042461E-3
7.155747750E0,3.408899065E-4,-7.262052968E-4,2.744048834E-4,8.478667947E-4
7.165703750E0,-1.544581028E-4,9.281504899E-4,-9.184246883E-4,1.314847727E-3
7.175660750E0,1.726210932E-3,-9.133713320E-4,-1.550513320E-3,2.493620446E-3
7.185617750E0,2.324889647E-3,5.865208805E-4,-2.576629631E-3,3.519678802E-3
7.195574750E0,3.160546999E-3,1.240437850E-4,-1.611195505E-3,3.549703530E-3
7.205531750E0,-1.542861573E-3,-2.041372471E-3,1.073803753E-3,2.775009531E-3
7.215488750E0,1.263712533E-3,-8.284151554E-4,1.663262025E-3,2.247149661E-3
7.225445750E0,-4.151440226E-4,-9.706281126E-4,-1.468349248E-3,1.808455973E-3
7.235402750E0,1.754986355E-3,-4.902724177E-4,-1.629953273E-3,2.444809158E-3
7.245359750E0,5.163501482E-4,2.049850300E-3,-8.805394173E-4,2.289946155E-3
7.255316750E0,1.518849749E-3,6.722016260E-4,-1.862077042E-3,2.495213518E-3
7.265273750E0,7.843499770E-4,-7.312837988E-4,-1.008800231E-3,1.472297112E-3
7.275230750E0,1.528541325E-4,4.699453712E-5,-1.668817364E-3,1.676461829E-3
7.285186750E0,-1.651437604E-3,6.624506786E-4,3.048173618E-3,3.529511222E-3
7.295143750E0,-1.647738740E-3,-1.116292551E-4,-1.525526866E-3,2.248274064E-3
7.305100750E0,-1.118035987E-3,-3.763474524E-4,-2.457100898E-3,2.725616755E-3
7.315057750E0,-2.206742298E-3,-1.401988789E-3,7.217843086E-5,2.615433781E-3
7.325014750E0,2.244574716E-4,1.033205539E-3,-9.757755324E-4,1.438760832E-3
7.334971750E0,-1.482599648E-3,-1.541354693E-3,-5.059018731E-4,2.197683488E-3
7.344928750E0,-2.721929923E-4,5.723964423E-4,1.748730429E-3,1.860049683E-3
7.354885750E0,8.290765691E-4,3.855703399E-4,-7.237028331E-5,9.172076658E-4
7.364842750E0,-8.047727169E-4,-2.266904339E-4,-9.067384526E-4,1.233378409E-3
7.374799750E0,-9.262628155E-4,-1.040321775E-3,-1.804737374E-3,2.279760774E-3
7.384756750E0,-1.992199104E-4,-2.368174493E-3,-2.428183332E-3,3.397648201E-3
7.394712750E0,-2.164495178E-3,-1.765121706E-3,-3.093989566E-3,4.168148923E-3
7.404669750E0,-8.158702403E-4,1.630075276E-4,-4.465251230E-3,4.542101303E-3
7.414626750E0,-1.043425174E-3,-1.641467214E-3,-2.622567117E-3,3.265120058E-3
7.424583750E0,-8.761661593E-5,-3.817919642E-4,9.615151212E-4,1.038245204E-3
7.434540750E0,-1.873489236E-4,-1.389570534E-4,5.074413493E-4,5.584849191E-4
7.444497750E0,1.034775632E-3,7.540006191E-4,-1.045447774E-3,1.652948454E-3
7.454454750E0,-9.800441330E-4,8.696271107E-4,3.413047176E-3,3.655903286E-3
7.464411750E0,-7.728502387E-4,-1.820549369E-4,-3.234469332E-3,3.330500465E-3
7.474368750E0,-6.035377737E-5,-4.631904885E-4,-2.144038677E-3,2.194331301E-3
7.484325750E0,1.482947962E-3,1.573264599E-4,-4.768995568E-4,1.565669014E-3
7.494282750E0,-5.475146463E-4,-9.971568361E-4,-4.151826724E-4,1.210979230E-3
7.504239750E0,9.222839144E-4,-6.265379488E-5,-9.414227679E-4,1.319397569E-3
7.514195750E0,-4.206306767E-4,7.084887475E-4,-1.321657561E-3,1.557454712E-3
7.524152750E0,-6.206340622E-4,2.450462431E-3,-1.120056957E-3,2.764865340E-3
7.534109750E0,1.205899753E-4,4.074471071E-4,-6.224233657E-4,7.536351461E-4
7.544066750E0,1.362155657E-3,-2.306457609E-4,-1.534822397E-3,2.065029126E-3
7.554023750E0,1.683019800E-4,-1.285376027E-3,5.306899548E-4,1.400767260E-3
7.563980750E0,5.984025775E-4,1.969393343E-4,2.119103447E-4,6.646628771E-4
7.573937833E0,-7.959220093E-4,-2.688402310E-4,4.600798711E-4,9.578310929E-4
7.583894833E0,6.368586328E-4,6.709890440E-4,-1.885365695E-3,2.100099764E-3
7.593851833E0,8.033008780E-4,-1.694894396E-3,-3.602420911E-3,4.061452417E-3
7.603808833E0,-6.284145638E-4,8.452283219E-4,-2.422107384E-3,2.641196690E-3
7.613765833E0,-6.941319443E-4,7.578982040E-4,1.278053969E-4,1.035646206E-3
7.623722833E0,1.764764776E-3,-9.715585038E-4,1.182174310E-4,2.017993063E-3
7.633678833E0,1.330295345E-4,2.541113645E-4,8.743433282E-4,9.201878602E-4
7.643635833E0,2.336971229E-4,-5.960930139E-5,-4.288993776E-3,4.295769456E-3
7.653592833E0,2.941337880E-4,-1.995428465E-3,-1.703538932E-3,2.640131500E-3
7.663549833E0,9.271671879E-4,4.794476554E-4,-5.344487727E-5,1.045162860E-3
7.673506833E0,-3.150759498E-3,1.277499832E-3,-9.401636198E-4,3.527491866E-3
7.683463833E0,-6.742861588E-4,9.563229978E-4,1.271058805E-3,1.727659106E-3
7.693420833E0,-1.182968263E-3,5.427673459E-4,2.406679094E-3,2.736076491E-3
7.703377833E0,3.669915022E-4,-2.634990960E-5,-6.871158257E-4,7.794262238E-4
7.713334833E0,-1.098092413E-3,-1.878506504E-3,1.115713269E-3,2.445283159E-3
7.723291833E0,1.413268503E-3,7.140804082E-4,-6.374455988E-4,1.706919911E-3
7.733248833E0,5.494431825E-4,-2.043871209E-4,-5.854591727E-4,8.285073017E-4
7.743204833E0,-1.564738341E-6,-3.290232271E-4,1.231615432E-3,1.274807948E-3
7.753161833E0,7.210449548E-4,-9.787734598E-5,-1.403739676E-3,1.581129621E-3
7.763118833E0,2.824222902E-4,-1.703156158E-4,1.168075018E-3,1.213741738E-3
7.773075833E0,-5.000017118E-4,9.473310784E-4,-1.189762726E-3,1.600928864E-3
7.783032833E0,-6.457476411E-5,1.810727641E-3,-1.048082486E-3,2.093174954E-3
7.792989833E0,-1.409795834E-3,2.621551976E-4,-3.693487495E-3,3.962082725E-3
7.802946833E0,-1.392017584E-4,-1.213768497E-3,-2.985885367E-3,3.226162196E-3
7.812903833E0,-4.593380727E-4,1.887667924E-3,4.823291674E-4,2.001730022E-3
7.822860833E0,1.900222618E-3,-1.429915428E-4,1.476487145E-3,2.410665234E-3
7.832817833E0,1.584221725E-3,-1.450111158E-3,4.008756950E-4,2.184784239E-3
7.842774833E0,-8.265080396E-5,-9.768679738E-4,-1.208206639E-3,1.555913068E-3
7.852731833E0,-1.831316622E-3,1.700648107E-3,-1.162365079E-3,2.756268697E-3
7.862687833E0,-6.731080357E-4,-9.958026931E-4,-2.662257291E-3,2.921012036E-3
7.872644833E0,-8.258754387E-4,-1.194984652E-3,-2.963730134E-3,3.300568870E-3
7.882601833E0,2.774723107E-4,-6.940439343E-4,-1.330147497E-3,1.525772011E-3
7.892558833E0,-2.341805957E-4,-9.825509042E-4,-3.823759034E-4,1.080026927E-3
7.902515833E0,1.417511958E-3,1.699252985E-3,5.396101624E-4,2.277713763E-3
7.912472833E0,-1.940999646E-3,-1.927111298E-3,3.610954620E-3,4.529926141E-3
7.922429833E0,1.477176556E-4,1.790662296E-3,-6.122859195E-4,1.898205998E-3
7.932386833E0,2.283446956E-4,7.774783298E-4,-3.820683807E-3,3.905667498E-3
7.942343833E0,5.037155934E-4,-1.221490093E-3,-2.186833881E-3,2.554997039E-3
7.952300833E0,-1.157296472E-3,3.628315404E-3,-1.901209354E-3,4.256595448E-3
7.962257833E0,5.886720028E-4,3.209356219E-4,-2.820882946E-5,6.710664187E-4
7.972214833E0,-6.391156930E-4,9.405054152E-4,-2.732835710E-4,1.169488442E-3
7.982170833E0,1.423502457E-3,-1.363661140E-3,8.186129853E-4,2.134492486E-3
7.992127833E0,-9.306512075E-4,2.172575332E-3,-2.733664587E-4,2.379269734E-3
8.002084833E0,1.879516291E-3,7.688226178E-4,-2.871280536E-3,3.516805599E-3
8.012041833E0,2.366579138E-4,2.700049430E-3,-2.671090886E-3,3.805390967E-3
8.021998833E0,6.105657667E-4,7.274458185E-4,-2.009562217E-3,2.222680426E-3
8.031955833E0,-9.795731166E-4,-1.782313921E-3,1.043070108E-3,2.285651253E-3
8.041912833E0,5.410918966E-4,1.056082547E-3,1.267308369E-3,1.736134007E-3
8.051869833E0,4.710140638E-5,5.850698799E-4,-3.167018294E-4,6.669522889E-4
8.061826833E0,-3.439129796E-5,1.930529252E-4,-1.237356104E-3,1.252797797E-3
8.071783833E0,-1.925358432E-3,4.797624424E-4,-1.607361250E-3,2.553583224E-3
8.081740833E0,6.536466535E-4,-5.040094256E-4,5.601858720E-4,9.975408062E-4
8.091697833E0,2.733266447E-4,-2.893192694E-3,-2.201773226E-3,3.645967191E-3
8.101653833E0,6.259290967E-4,3.395063803E-3,-8.627362549E-4,3.558449003E-3
8.111610833E0,2.210000064E-3,-4.399726167E-4,1.607467420E-3,2.767964540E-3
8.121567833E0,9.545020293E-5,6.332816556E-4,-5.057509989E-4,8.160517566E-4
8.131524833E0,6.210365100E-4,-4.066703841E-4,-1.097197644E-3,1.324730093E-3
8.141481833E0,1.868194784E-3,1.135299914E-3,-2.945697866E-3,3.668268470E-3
8.151438833E0,-1.941402210E-3,4.705740139E-4,-3.697056323E-3,4.202226541E-3
8.161395833E0,3.023109166E-4,9.390246123E-4,-1.827516593E-3,2.076770572E-3
8.171352833E0,3.920862218E-4,2.648233436E-3,-1.648031175E-3,3.143704613E-3
8.181309833E0,3.028704086E-4,9.163804352E-4,7.184529677E-4,1.203186708E-3
8.191266833E0,-8.603208698E-5,-7.704878226E-4,6.360141560E-4,1.002779643E-3
8.201223833E0,-3.181157866E-3,1.759248786E-3,1.863997430E-3,4.085242720E-3
8.211180833E0,6.032162346E-4,5.505327135E-5,-2.240167931E-3,2.320614799E-3
8.221136833E0,-1.401078654E-3,-1.159881242E-3,-3.844189458E-3,4.252780088E-3
8.231093833E0,-3.488955554E-4,-5.361586809E-4,-1.502220519E-3,1.632746376E-3
8.241050833E0,1.193873584E-3,-1.715938561E-3,2.565309405E-4,2.106083427E-3
8.251007833E0,1.331930980E-4,9.962189943E-4,-2.511951141E-3,2.705566710E-3
8.260964833E0,-2.102530561E-3,-3.678519279E-4,8.385721594E-4,2.293284341E-3
8.270921833E0,5.164708709E-4,-1.061007380E-3,-2.243513241E-3,2.534922185E-3
8.280878833E0,1.938865171E-3,1.115327701E-3,-1.563074999E-3,2.728801474E-3
8.290835833E0,-2.687566448E-4,2.661542967E-4,-1.320417970E-3,1.373525340E-3
8.300792833E0,7.413094863E-6,3.178194165E-4,-2.183814533E-3,2.206832583E-3
8.310749833E0,1.133805490E-3,3.230524249E-3,-6.537130103E-4,3.485562008E-3
8.320706833E0,-1.377022825E-3,-7.192101330E-4,1.625154167E-3,2.248239566E-3
8.330662833E0,-1.854679780E-3,-4.241382703E-4,-1.337649301E-4,1.907255467E-3
8.340619833E0,-1.799286110E-3,-4.121540114E-4,-1.148428768E-3,2.173980237E-3
8.350576833E0,3.832648974E-3,-5.643283948E-4,-5.305977538E-4,3.910140492E-3
8.360533833E0,7.843947387E-4,5.209101364E-4,-1.776956953E-3,2.011019266E-3
8.370490833E0,-3.448879346E-3,2.133209258E-3,-6.809281185E-4,4.112057099E-3
8.380447833E0,-1.540164230E-4,1.339054666E-3,-1.512253657E-4,1.356339769E-3
8.390404833E0,-7.484165253E-4,1.284059137E-3,-2.399965189E-3,2.822900649E-3
8.400361833E0,-1.816344098E-3,1.557032578E-3,-9.072637185E-4,2.558629279E-3
8.410318833E0,-9.055286646E-4,-4.626912996E-4,-3.510133363E-3,3.654463248E-3
8.420275833E0,-4.452874418E-5,7.791407406E-4,2.691303380E-3,2.802170049E-3
8.430232833E0,2.226073761E-3,-1.924538054E-3,-2.011539415E-3,3.564483402E-3
8.440189833E0,4.651916679E-4,1.269124448E-3,-1.390224323E-3,1.939021356E-3
8.450145833E0,-6.365856389E-4,9.769620374E-4,1.663499512E-3,2.031483872E-3
8.460102833E0,-8.890532190E-4,-2.723271027E-4,-8.907383308E-4,1.287630557E-3
8.470059833E0,7.260253187E-4,-4.818672314E-4,-2.422253601E-3,2.574222465E-3
8.480016833E0,-8.841217496E-4,1.527648419E-4,-4.097027704E-4,9.863390518E-4
8.489973833E0,8.419158985E-4,5.591548979E-4,4.303818569E-4,1.098501308E-3
8.499930833E0,-4.177594092E-4,6.313268095E-4,-3.247976303E-3,3.335033213E-3
8.509887833E0,-1.593963942E-3,8.833222091E-4,-5.856528878E-4,1.914149544E-3
8.519844833E0,-2.597203711E-4,-8.658422157E-4,2.412581816E-4,9.355976293E-4
8.529801833E0,-8.877345826E-4,-8.687032387E-4,-1.576292329E-3,2.006842174E-3
8.539758833E0,1.743340399E-4,3.140065819E-4,1.896498725E-4,4.061521452E-4
8.549715833E0,3.237374127E-3,-1.944290474E-3,-1.184188761E-3,3.957670995E-3
8.559672833E0,-3.914489644E-4,-7.000612095E-4,-4.542153329E-5,8.033561504E-4
8.569628833E0,1.605418860E-3,4.784855992E-4,-1.088874415E-4,1.678741987E-3
8.579586583E0,1.471728086E-3,-5.348473787E-4,7.177582011E-4,1.722562659E-3
8.589543583E0,2.138523385E-3,1.066288911E-3,-2.069246024E-3,3.161017782E-3
8.599500583E0,1.385647804E-3,1.978687942E-3,-1.100121997E-3,2.654334986E-3
8.609457583E0,7.143272087E-4,1.970764250E-3,1.487052068E-4,2.101496687E-3
8.619414583E0,2.530677011E-4,2.337747253E-3,-1.410575584E-3,2.742048315E-3
8.629371583E0,3.791935742E-4,3.017913550E-4,-1.550906338E-3,1.624861919E-3
8.639328583E0,1.725687762E-3,2.418700606E-4,-7.045455277E-5,1.743979134E-3
8.649285583E0,5.031173350E-4,-1.311537810E-3,-5.628289655E-4,1.513286134E-3
8.659242583E0,1.523790415E-4,3.343135118E-3,3.825527616E-3,5.082758437E-3
8.669199583E0,3.200671636E-3,-1.574323513E-3,-4.284828901E-4,3.592546594E-3
8.679156583E0,7.747981581E-4,1.780362800E-4,3.275974188E-3,3.371055619E-3
8.689112583E0,1.752465032E-3,2.285279334E-5,5.617570132E-4,1.840442034E-3
8.699069583E0,-3.210720606E-4,8.265953511E-4,-4.120080732E-3,4.214429069E-3
8.709026583E0,1.074465225E-3,2.171831205E-3,-4.521021619E-3,5.129421292E-3
8.718983583E0,-4.411396803E-4,7.675467059E-4,-1.332152635E-3,1.599488295E-3
8.728940583E0,-7.559009828E-5,2.797502093E-3,-1.376808621E-3,3.118867391E-3
8.738897583E0,5.497201346E-4,1.460593194E-4,1.163314097E-3,1.294922870E-3
8.748854583E0,-1.464346424E-3,-2.741171047E-4,1.437948085E-3,2.070542280E-3
8.758811583E0,-1.260614721E-3,6.334884092E-4,-3.061555326E-4,1.443671794E-3
8.768768583E0,4.141416866E-5,-5.752947181E-4,-1.669430174E-3,1.766260528E-3
8.778725583E0,1.191633404E-3,2.534808591E-4,-3.578234464E-4,1.269756014E-3
8.788682583E0,8.676848956E-4,2.138633281E-3,1.398167573E-3,2.698425828E-3
8.798639583E0,-3.203512169E-4,-2.515539527E-4,2.798191272E-3,2.827680796E-3
8.808595583E0,5.462553818E-4,3.151064739E-4,1.883545890E-3,1.986311192E-3
8.818552583E0,-4.817248555E-4,1.820324920E-3,1.162728295E-4,1.886573885E-3
8.828509583E0,-1.724491827E-3,-5.084732547E-4,5.954010412E-4,1.893916448E-3
8.838466583E0,1.104850555E-3,-4.397640005E-4,-4.111469723E-3,4.279984861E-3
8.848423583E0,-9.583338397E-4,1.232903451E-3,-1.371241175E-3,2.078161935E-3
8.858380583E0,1.890183310E-3,2.757636830E-4,-3.213349730E-3,3.738242239E-3
8.868337583E0,-9.868998313E-4,1.012983732E-3,2.458322793E-3,2.836099130E-3
8.878294583E0,1.468800940E-3,1.108058728E-3,-2.831351012E-4,1.861541252E-3
8.888251583E0,1.132118050E-4,2.105135471E-3,5.147336051E-4,2.170106667E-3
8.898208583E0,-7.880019257E-4,6.555775180E-4,1.334454864E-3,1.682705768E-3
8.908165583E0,4.252569051E-4,2.819309011E-4,-1.314337365E-3,1.409897577E-3
8.918122583E0,-1.688760240E-3,5.940534174E-4,2.629538067E-3,3.181081743E-3
8.928078583E0,7.263245061E-5,-7.374444976E-4,-6.728349254E-4,1.000902941E-3
8.938035583E0,2.697444055E-3,2.405085601E-3,1.638788730E-3,3.968156963E-3
8.947992583E0,1.957020722E-3,6.492817774E-4,-4.040282220E-4,2.101127254E-3
8.957949583E0,9.551394032E-4,4.143901169E-4,-3.390470520E-4,1.094971850E-3
8.967906583E0,2.545544412E-4,-5.789566785E-4,-9.349277243E-4,1.128750924E-3
8.977863583E0,-1.821646001E-3,-1.069244929E-3,-1.166622154E-3,2.413024269E-3
8.987820583E0,-3.875032999E-4,2.364134416E-3,1.450618729E-4,2.400069435E-3
8.997777583E0,4.050121643E-3,6.514564157E-4,2.877199091E-3,5.010604294E-3
9.007734583E0,5.903438432E-4,-4.099057987E-4,3.896038979E-4,8.175082962E-4
9.017691583E0,-2.219203161E-4,-1.322571188E-3,7.850835100E-4,1.553962449E-3
9.027648583E0,1.762486063E-4,-4.403470084E-4,1.197181642E-3,1.287716173E-3
9.037605583E0,-1.295680413E-3,2.315492369E-3,2.062199637E-4,2.661356669E-3
9.047561583E0,3.704492701E-4,-1.255776733E-4,-1.236267388E-3,1.296672460E-3
9.057518583E0,-8.415232878E-5,1.334632747E-3,3.387266770E-4,1.379515112E-3
9.067475583E0,2.731832210E-3,1.321627758E-3,-2.286066301E-3,3.799434996E-3
9.077432583E0,-1.334282104E-3,5.117608234E-4,1.312848181E-4,1.435076157E-3
9.087389583E0,8.544581942E-5,1.127868891E-3,-1.072902232E-3,1.559008795E-3
9.097346583E0,-4.586379509E-4,-2.492517233E-4,-2.027378418E-3,2.093499090E-3
9.107303583E0,-1.673042891E-3,-1.547578722E-5,-4.947744310E-4,1.744738878E-3
9.117260583E0,-2.005138900E-3,1.079882495E-3,8.197622374E-4,2.420483079E-3
9.127217583E0,-9.564342909E-4,8.901264518E-4,1.791462302E-3,2.217302152E-3
9.137174583E0,-1.594527625E-3,3.111548722E-4,2.985357307E-3,3.398778303E-3
9.147131583E0,-1.737202983E-3,-1.051861793E-3,1.651490107E-3,2.617576553E-3
9.157088583E0,1.228226814E-3,-5.589099601E-4,-1.585848629E-3,2.082267352E-3
9.167044583E0,-5.394248292E-4,1.827952452E-3,1.316742040E-3,2.316505755E-3
9.177001583E0,9.254319593E-5,1.242855564E-3,-5.023179576E-3,5.175479422E-3
9.186958583E0,8.972905925E-4,-4.691267386E-4,-3.980087116E-3,4.106860572E-3
9.196915583E0,1.333782682E-3,8.051954210E-4,-9.030709043E-4,1.800792317E-3
9.206872583E0,2.499817638E-4,1.041303389E-3,-1.030255109E-3,1.486011177E-3
9.216829583E0,-2.440346871E-4,3.649201244E-5,1.880845986E-3,1.896962366E-3
9.226786583E0,-1.828868408E-4,-7.213968784E-4,2.575471997E-3,2.680842603E-3
9.236743583E0,-1.475851634E-3,3.619762138E-4,-2.940837294E-4,1.547788766E-3
9.246700583E0,1.067141071E-3,8.694529533E-4,-3.212969750E-4,1.413495755E-3
9.256657583E0,2.333053853E-4,6.007403135E-4,-2.986588515E-3,3.055328344E-3
9.266614583E0,1.358108362E-3,2.524545416E-4,-3.042368218E-3,3.341286578E-3
9.276570583E0,1.428682124E-3,-2.459974959E-3,-1.368597150E-4,2.848041431E-3
9.286527583E0,-3.678415669E-4,5.919840187E-4,5.799215287E-4,9.066760591E-4
9.296484583E0,-1.353477477E-3,3.954423591E-4,3.106752411E-4,1.443881936E-3
9.306441583E0,6.928921794E-4,-4.056077451E-4,1.138783991E-3,1.393357884E-3
9.316398583E0,1.168504823E-4,3.621075302E-5,-5.291542038E-4,5.431108775E-4
9.326355583E0,5.505400477E-4,-2.701472491E-3,-1.088630408E-3,2.964146442E-3
9.336312583E0,-9.552112315E-4,1.594739035E-3,-2.533128485E-3,3.142031351E-3
9.346269583E0,-7.800975582E-4,-5.548773333E-4,-2.795644104E-5,9.577173998E-4
9.356226583E0,-1.619259710E-3,-1.501364633E-3,-7.784357294E-4,2.341379926E-3
9.366183583E0,-6.637757178E-4,2.846885473E-4,7.917797193E-4,1.071709334E-3
9.376140583E0,-1.214251155E-3,-6.860336289E-4,-9.169047698E-4,1.669060324E-3
9.386097583E0,-1.599601470E-3,2.907077782E-3,-1.692412421E-3,3.724793403E-3
9.396053583E0,-2.708009211E-3,-1.230143011E-3,-5.501825362E-4,3.024775453E-3
9.406010583E0,-6.358219543E-4,1.332534477E-3,-1.311578788E-3,1.974881416E-3
9.415967583E0,-5.929452600E-4,6.441073492E-4,3.398479894E-4,9.391246001E-4
9.425924583E0,-1.716115512E-3,-3.735627979E-5,5.534654483E-4,1.803544273E-3
9.435881583E0,-6.854720414E-4,3.986032680E-4,2.619013190E-3,2.736418567E-3
9.445838583E0,-1.018808223E-3,1.805127598E-3,9.081764147E-4,2.263015741E-3
9.455795583E0,8.230338572E-4,-1.507844776E-3,-2.381892875E-3,2.936731902E-3
9.465752583E0,8.895131759E-5,1.369034871E-3,-4.494361579E-3,4.699090851E-3
9.475709583E0,-1.576057053E-3,5.999142304E-4,5.470020697E-4,1.772868913E-3
9.485666583E0,1.021209406E-3,-4.445202649E-4,9.851334617E-4,1.486927992E-3
9.495623583E0,-1.558594638E-3,-9.230906144E-4,2.884766087E-3,3.406345389E-3
9.505580583E0,1.387532335E-3,4.472807050E-4,3.427147865E-3,3.724331953E-3
9.515536583E0,-1.485790126E-4,-1.841550693E-4,7.235072553E-4,7.612171576E-4
9.525493583E0,-4.189620959E-4,1.622118056E-3,-1.425485127E-3,2.199728181E-3
9.535450583E0,-1.474106568E-3,-3.110710531E-4,-2.048132010E-3,2.542557788E-3
9.545407583E0,-8.611218072E-5,4.279538989E-4,-3.099394962E-3,3.129985460E-3
9.555364583E0,-2.961793449E-3,8.090520278E-4,-1.125992276E-3,3.270266690E-3
9.565321583E0,4.367734073E-4,1.097750850E-3,3.048432991E-4,1.220146456E-3
9.575277875E0,4.969608271E-4,1.792836003E-3,3.342445008E-3,3.825332617E-3
9.585234875E0,-9.986972436E-4,-8.109956980E-6,6.651738659E-4,1.199965928E-3
9.595191875E0,9.319884703E-5,5.498221144E-4,-1.597448252E-3,1.691990337E-3
9.605148875E0,1.831708942E-4,2.280344255E-3,-1.420872286E-3,2.693027952E-3
9.615105875E0,-8.565271273E-4,4.337076098E-4,-1.158550382E-3,1.504652783E-3
9.625062875E0,1.010178356E-3,-1.586063765E-3,-2.480820753E-3,3.112961642E-3
9.635019875E0,-2.676435281E-3,4.565808922E-4,5.213599652E-4,2.764703987E-3
9.644975875E0,-3.869193606E-4,-7.086647674E-4,-4.158373922E-4,9.082032157E-4
9.654932875E0,1.009376021E-3,-4.146518186E-4,-1.558866352E-3,1.902850595E-3
9.664889875E0,-7.121494273E-4,-2.744989470E-4,-1.385773532E-3,1.582047648E-3
9.674846875E0,-3.379752161E-4,1.523401588E-3,-1.015594229E-3,1.861830090E-3
9.684803875E0,7.665416924E-4,-1.284183003E-3,-5.527520552E-4,1.594442531E-3
9.694760875E0,-1.628439059E-3,-3.110636026E-4,1.276307739E-3,2.092256145E-3
9.704717875E0,1.586477854E-3,-3.715073690E-4,5.040857941E-4,1.705588519E-3
9.714674875E0,9.683581302E-4,2.650114708E-3,6.013642997E-5,2.822134267E-3
9.724631875E0,-1.800141064E-3,1.360056922E-4,-2.134861425E-3,2.795825227E-3
9.734588875E0,5.056237569E-4,1.197808422E-3,-2.776831388E-5,1.300450491E-3
9.744545875E0,-6.057485007E-5,2.990242094E-3,-2.475895919E-3,3.882689492E-3
9.754501875E0,-2.841447480E-3,-6.694737822E-4,-3.957003355E-4,2.945945974E-3
9.764458875E0,-2.577718114E-4,2.022045664E-3,2.742517740E-3,3.417092116E-3
9.774415875E0,-2.492497442E-4,-2.709326334E-3,-1.209136099E-4,2.723452721E-3
9.784372875E0,4.699196434E-4,7.535768673E-4,1.022104174E-3,1.354030837E-3
9.794329875E0,1.660885289E-3,-1.363369636E-3,7.320856676E-4,2.270080645E-3
9.804286875E0,-1.593254972E-3,1.254064031E-3,-1.095890068E-3,2.304802169E-3
9.814243875E0,1.092542894E-3,1.651673578E-3,-3.113225102E-4,2.004643931E-3
9.824200875E0,1.083671581E-3,-4.311390221E-4,-1.117423177E-3,1.615196430E-3
9.834157875E0,4.820633912E-4,1.956385560E-3,1.797672361E-3,2.700269522E-3
9.844114875E0,-7.559753722E-4,2.025007270E-3,5.190093070E-4,2.222953861E-3
9.854071875E0,-1.146128518E-3,-5.545299500E-4,2.367142588E-4,1.295047368E-3
9.864028875E0,-2.708073007E-4,7.219901308E-4,-1.205180772E-3,1.430757504E-3
9.873984875E0,6.394610973E-4,1.367008314E-3,-1.143394969E-3,1.893402831E-3
9.883941875E0,6.128356326E-4,7.741320878E-4,-6.804503500E-4,1.199108286E-3
9.893898875E0,-2.583490219E-3,5.429694429E-4,1.197610982E-3,2.898880748E-3
9.903855875E0,-1.212794799E-3,1.583527774E-4,3.125417978E-3,3.356215780E-3
9.913812875E0,-2.531059552E-3,-7.151644677E-4,1.404482871E-3,2.981659740E-3
9.923769875E0,8.881146205E-4,9.168032557E-5,1.312983222E-3,1.587790226E-3
9.933726875E0,-9.470696095E-4,-4.414841533E-4,-1.911039464E-3,2.178054392E-3
9.943683875E0,-5.311379209E-5,7.912432775E-4,-2.810126171E-3,2.919879466E-3
9.953640875E0,1.855053706E-4,-1.536625437E-3,-1.213294454E-3,1.966650302E-3
9.963597875E0,-4.647861933E-4,2.864716575E-3,9.338567033E-4,3.048723602E-3
9.973554875E0,-1.739641535E-3,-7.108431309E-4,1.256898046E-3,2.260850133E-3
9.983511875E0,-8.833695902E-4,6.188675761E-4,2.342137508E-3,2.578555219E-3
9.993467875E0,-4.314235412E-5,1.932941377E-4,8.321255445E-4,8.553693987E-4
1.000342487E1,7.048598491E-6,2.612358890E-3,7.536904886E-4,2.718918536E-3
1.001338188E1,2.404692583E-3,1.792372204E-3,-4.246660508E-3,5.198968168E-3
1.002333887E1,2.308023861E-3,3.827559762E-3,-2.523542382E-3,5.132782289E-3
1.003329588E1,-2.525080694E-3,2.493049949E-3,-8.156578988E-4,3.640965307E-3
1.004325287E1,3.194354940E-5,-1.375889406E-4,2.187723294E-4,2.604082161E-4
1.005320988E1,-2.880222863E-3,5.013039336E-4,2.591914497E-3,3.907046216E-3
1.006316687E1,2.070665359E-4,1.127796248E-3,2.819694579E-3,3.043924842E-3
1.007312387E1,-2.179739531E-4,5.592117086E-4,1.931530423E-3,2.022631987E-3
1.008308087E1,1.216404256E-3,-6.100628525E-4,-2.195712179E-3,2.583208852E-3
1.009303787E1,-6.805653684E-4,-7.130578160E-5,-3.249258734E-3,3.320532496E-3
1.010299488E1,-3.521179315E-5,-1.497681253E-3,-1.966671087E-3,2.472262965E-3
1.011295087E1,-3.281339072E-3,-5.634445697E-4,1.307952218E-3,3.577065122E-3
1.012290788E1,8.969099727E-4,-1.245197840E-3,3.720289096E-4,1.579041060E-3
1.013286487E1,-9.507911745E-4,-1.394534484E-4,1.198140904E-3,1.535901282E-3
1.014282188E1,7.621097029E-4,2.265178598E-3,-7.841158658E-4,2.515289839E-3
1.015277887E1,-7.148794830E-4,1.037567854E-4,-2.817971632E-3,2.909086156E-3
1.016273588E1,4.903438967E-4,-7.075853646E-4,-2.291682176E-3,2.448044400E-3
1.017269287E1,-9.395356756E-5,7.433053106E-4,-1.768665388E-4,7.698128540E-4
1.018264987E1,6.135831354E-4,7.856087759E-4,1.176930964E-4,1.003751502E-3
1.019260687E1,2.397634787E-3,8.868090808E-4,7.746955380E-4,2.671186271E-3
1.020256387E1,-1.649941900E-3,-1.543813385E-3,-1.658596098E-3,2.802964334E-3
1.021252088E1,3.807184985E-4,-1.163594425E-4,-1.545145176E-3,1.595606377E-3
1.022247787E1,1.128737233E-3,8.578682318E-4,-4.274667241E-3,4.503639158E-3
1.023243388E1,-1.586887985E-3,-1.549629495E-3,-1.763040200E-3,2.833350630E-3
1.024239087E1,2.922318876E-3,8.626440540E-4,-1.408373937E-4,3.050235654E-3
1.025234788E1,1.959319692E-3,2.373189665E-3,1.824042760E-3,3.577442499E-3
1.026230487E1,-8.884936105E-4,-6.000818685E-4,1.368718222E-3,1.738651407E-3
1.027226187E1,2.489425242E-4,7.210019976E-5,-2.970103174E-3,2.981389556E-3
1.028221887E1,-7.057714975E-4,1.826353371E-3,-1.056007110E-3,2.224596831E-3
1.029217587E1,6.780070835E-4,-1.031067222E-4,-1.479183324E-3,1.630431816E-3
1.030213288E1,-1.633412554E-3,-1.435937360E-3,-2.992311493E-4,2.195334133E-3
1.031208987E1,-1.975628547E-3,-2.721361816E-4,-7.037650794E-4,2.114817142E-3
1.032204688E1,1.436572056E-3,-2.658534795E-4,1.174639910E-3,1.874618965E-3
1.033200387E1,1.745765097E-3,-2.884902060E-4,2.045759931E-3,2.704820894E-3
1.034196088E1,9.998477763E-4,9.958092123E-4,2.981485333E-3,3.298573382E-3
1.035191687E1,-5.103554577E-5,7.923431695E-4,-2.944692969E-4,8.468320329E-4
1.036187388E1,-4.389173118E-4,-1.697162166E-3,-2.522289753E-3,3.071636929E-3
1.037183087E1,-2.586490475E-3,1.999305561E-3,-3.897279501E-3,5.086840199E-3
1.038178787E1,9.429276688E-4,5.873786286E-4,-1.566056162E-4,1.121896413E-3
1.039174487E1,1.394866151E-3,-9.609833360E-4,1.041550189E-3,1.988458536E-3
1.040170187E1,4.589997698E-4,-2.093017101E-4,3.098245710E-3,3.139046746E-3
1.041165888E1,-6.083953194E-4,-4.210229963E-4,1.051073894E-3,1.285364368E-3
1.042161587E1,-2.869081218E-4,-8.156029508E-4,-2.315611579E-3,2.471756749E-3
1.043157288E1,-1.047479454E-4,-8.771214634E-4,-1.679382287E-3,1.897534996E-3
1.044152987E1,-9.745302377E-4,5.951421335E-4,-3.053730354E-3,3.260241159E-3
1.045148688E1,1.221512328E-3,1.493426040E-3,-7.865810767E-4,2.083536295E-3
1.046144387E1,-1.759610488E-3,1.024819911E-3,2.732296474E-3,3.407628052E-3
1.047139988E1,-6.786332233E-4,1.568961889E-4,1.015356742E-3,1.231303691E-3
1.048135687E1,5.668939557E-4,3.992468119E-3,1.886260696E-3,4.451870376E-3
1.049131387E1,1.386881340E-3,-2.224743366E-5,-1.626183279E-3,2.137383180E-3
1.050127088E1,-6.186726969E-4,3.862809390E-4,-2.615208738E-3,2.715011162E-3
1.051122787E1,-2.051453339E-3,1.999890432E-3,-2.472996712E-3,3.784671092E-3
1.052118488E1,-3.672707826E-4,-1.744236797E-4,-3.317887895E-3,3.342707216E-3
1.053114187E1,-8.402483072E-4,2.396982163E-4,4.105372354E-4,9.654083459E-4
1.054109888E1,2.062469721E-4,-2.101055346E-3,2.954359166E-3,3.631144374E-3
1.055105587E1,-2.070755698E-3,1.728571020E-3,2.126649022E-3,3.434912371E-3
1.056101287E1,3.374958178E-4,-1.575824805E-3,1.683500595E-3,2.330515286E-3
1.057096987E1,-1.277977834E-3,-6.764754653E-4,-1.085653901E-3,1.808173330E-3
1.058092746E1,2.731645945E-4,8.467547596E-4,-1.518574543E-3,1.760023057E-3
1.059088346E1,-1.543377526E-3,-1.030507497E-3,-2.438429743E-3,3.064294291E-3
1.060084046E1,-3.088264260E-3,9.281737730E-4,7.016267627E-4,3.300176179E-3
1.061079746E1,-1.443762449E-3,-5.546743050E-4,1.728807576E-3,2.319674380E-3
1.062075446E1,1.862550620E-3,-1.398496330E-3,-2.440717071E-4,2.341891926E-3
1.063071146E1,-9.103327757E-4,-7.750503719E-4,1.130651683E-3,1.645533977E-3
1.064066846E1,-3.889722284E-4,8.203443140E-4,-1.702156849E-3,1.929145440E-3
1.065062546E1,-2.434546128E-3,9.247399867E-4,-2.930407412E-3,3.920388564E-3
1.066058246E1,2.088839887E-3,2.205894329E-3,-2.470599487E-3,3.915748165E-3
1.067053946E1,-1.108551398E-3,4.972107708E-4,-2.089501359E-3,2.417047927E-3
1.068049646E1,1.342025353E-3,-4.115868360E-4,1.785648987E-3,2.271338388E-3
1.069045346E1,2.011810429E-3,5.295742303E-4,-7.989490405E-4,2.228485952E-3
1.070041046E1,2.476264490E-4,3.743948415E-3,1.537473872E-3,4.054909925E-3
1.071036646E1,-3.077862784E-3,6.000865251E-4,-1.578690484E-3,3.510784357E-3
1.072032346E1,1.144961803E-3,1.629034057E-3,-1.464430243E-3,2.471688780E-3
1.073028046E1,1.833921531E-3,-5.803238600E-4,-1.345120370E-3,2.347209572E-3
1.074023746E1,-1.106584910E-3,1.306282356E-4,-2.004187554E-4,1.132149097E-3
1.075019446E1,-1.659723464E-3,4.584640265E-4,-5.207965150E-4,1.798916410E-3
1.076015146E1,8.643676993E-4,-8.074948564E-4,1.283319667E-3,1.745304796E-3
1.077010846E1,-2.735959832E-3,3.051739186E-4,1.593312249E-3,3.180762682E-3
1.078006546E1,1.164819812E-3,3.181612119E-4,8.965590969E-4,1.503944802E-3
1.079002246E1,4.708000924E-4,6.752917543E-4,-2.276597545E-3,2.420861016E-3
1.079997946E1,-1.640581992E-3,7.449649274E-6,-3.141358495E-3,3.543966416E-3
1.080993646E1,-7.899682969E-4,1.025842503E-3,-1.284868456E-3,1.824085991E-3
1.081989246E1,1.081177266E-3,-3.738990054E-4,1.313579269E-3,1.741905635E-3
1.082984946E1,-1.389437355E-3,-1.485953107E-4,1.299996860E-3,1.908561911E-3
1.083980646E1,6.663301028E-4,3.568455577E-5,1.894243993E-3,2.008339986E-3
1.084976346E1,-8.711128030E-4,-5.645919591E-4,1.353888772E-3,1.706052873E-3
1.085972046E1,3.886572085E-3,-1.307553612E-3,-8.791666478E-4,4.193813660E-3
1.086967746E1,-2.988518681E-4,-5.299104378E-4,2.650054172E-3,2.718989633E-3
1.087963446E1,9.175684536E-4,-1.062837429E-3,-1.735121012E-3,2.232084271E-3
1.088959146E1,-5.983029259E-4,1.184072345E-3,-5.590692163E-4,1.439636100E-3
1.089954846E1,1.791546820E-4,1.043917611E-3,-1.800709404E-3,2.089118172E-3
1.090950546E1,9.712937754E-5,-9.920690209E-4,-8.970983326E-4,1.341052004E-3
1.091946246E1,-5.492486525E-5,2.111410722E-4,1.152232289E-4,2.467259323E-4
1.092941946E1,-6.400214043E-4,-1.857070252E-3,-3.963699564E-4,2.003857895E-3
1.093937546E1,-2.578069689E-4,-3.245111555E-3,-2.070886083E-3,3.858209767E-3
1.094933246E1,8.335564635E-4,-6.032558158E-4,-2.921499312E-3,3.097400876E-3
1.095928946E1,1.382519491E-3,-1.830251887E-3,9.221164510E-4,2.472140947E-3
1.096924646E1,1.403025817E-3,9.775189683E-4,1.213199459E-3,2.096634852E-3
1.097920346E1,5.444415146E-4,-4.343092442E-4,-2.409517765E-5,6.968655968E-4
1.098916046E1,-2.335234778E-3,1.136156730E-3,-2.371405251E-3,3.516779272E-3
1.099911746E1,-1.301230630E-3,-6.921589375E-6,-1.575006172E-3,2.043010891E-3
1.100907446E1,1.089222846E-3,-2.343393862E-5,-1.214528456E-4,1.096223677E-3
1.101903146E1,-7.667525206E-4,1.265546307E-3,6.992565468E-4,1.636605206E-3
1.102898846E1,2.062057145E-3,-1.482569613E-3,3.988519311E-4,2.570831614E-3