"Time (s)","Gyroscope x (rad/s)","Gyroscope y (rad/s)","Gyroscope z (rad/s)","Absolute (rad/s)"
8.764999984E-4,-5.510279443E-4,-2.877563238E-4,1.384038329E-1,1.384052289E-1
1.083150000E-2,-1.350775128E-3,3.444775939E-4,1.371305734E-1,1.371376586E-1
2.078750000E-2,-3.256676020E-3,-4.883706570E-4,1.422079057E-1,1.422460294E-1
3.074350000E-2,-4.736727569E-4,1.045610756E-3,1.455962509E-1,1.456007759E-1
4.069950000E-2,-2.516950946E-3,1.557660289E-3,1.507718265E-1,1.508008787E-1
5.065550000E-2,-6.008066703E-4,-1.275874674E-4,1.525348425E-1,1.525360791E-1
6.061050000E-2,-1.809039619E-3,9.212903678E-4,1.565236002E-1,1.565367651E-1
7.056650000E-2,-1.362427603E-3,2.239555120E-3,1.569036394E-1,1.569255361E-1
8.052250000E-2,-1.282275189E-3,1.564702019E-3,1.599002779E-1,1.599130744E-1
9.047850000E-2,-1.294791931E-3,3.150880802E-3,1.651613563E-1,1.651964835E-1
1.004335000E-1,-3.914716654E-3,3.294561990E-3,1.671297997E-1,1.672081012E-1
1.103895000E-1,-2.851050114E-3,8.162241429E-4,1.676509678E-1,1.676771950E-1
1.203453750E-1,-3.948112950E-3,2.284742892E-3,1.726447046E-1,1.727049555E-1
1.303013750E-1,-3.001891775E-3,2.800596878E-3,1.732412428E-1,1.732898811E-1
1.402573750E-1,-2.871342702E-3,3.276695032E-3,1.721242815E-1,1.721794112E-1
1.502133750E-1,-1.641761279E-3,2.868698910E-3,1.755965054E-1,1.756276104E-1
1.601683750E-1,-1.877661562E-3,2.174092457E-3,1.762431860E-1,1.762665961E-1
1.701243750E-1,-1.767406706E-3,4.811687395E-3,1.844795495E-1,1.845507525E-1
1.800803750E-1,-4.965129774E-3,2.465057187E-3,1.891110390E-1,1.891922676E-1
1.900363750E-1,-1.531249960E-3,2.231764607E-3,1.918426454E-1,1.918617369E-1
1.999923750E-1,-9.278240614E-4,2.665436827E-3,1.924721003E-1,1.924927915E-1
2.099473750E-1,-1.560857520E-3,1.596709713E-3,1.942550987E-1,1.942679313E-1
2.199033750E-1,-2.410617890E-3,-5.308175460E-4,1.929574907E-1,1.929732781E-1
2.298593750E-1,9.130070102E-4,1.656170003E-3,1.909923404E-1,1.910017031E-1
2.398153750E-1,-3.329307772E-3,2.532302402E-3,1.940855682E-1,1.941306380E-1
2.497713750E-1,-4.055285361E-3,2.861735411E-3,1.932815611E-1,1.933452786E-1
2.597263750E-1,-2.679236699E-3,2.343182452E-3,1.925785244E-1,1.926114141E-1
2.696823750E-1,-2.158128191E-4,1.292298548E-3,1.906445473E-1,1.906490494E-1
2.796383750E-1,-2.844749950E-3,2.224908210E-3,1.909235716E-1,1.909577257E-1
2.895943750E-1,-2.638887614E-3,2.802281640E-3,1.910905391E-1,1.911293035E-1
2.995503750E-1,-3.642151132E-4,2.047289163E-3,1.934602112E-1,1.934713864E-1
3.095053750E-1,-1.899261144E-3,9.862855077E-4,1.919869632E-1,1.919988906E-1
3.194613750E-1,-2.750668209E-3,1.043555327E-3,1.843722612E-1,1.843957317E-1
3.294173750E-1,-1.800452243E-3,1.894794405E-4,1.784222275E-1,1.784314120E-1
3.393733750E-1,-3.422807669E-3,2.843316644E-3,1.817172021E-1,1.817716743E-1
3.493293750E-1,-3.250234528E-3,-8.137356490E-4,1.868437827E-1,1.868738219E-1
3.592843750E-1,-2.188336570E-3,2.320584841E-3,1.917963773E-1,1.918228982E-1
3.692403750E-1,1.906273770E-3,1.740548760E-3,1.935641766E-1,1.935813881E-1
3.791963750E-1,-9.485618211E-4,3.013215493E-3,1.943496019E-1,1.943752736E-1
3.891523750E-1,-1.235650619E-3,1.436624676E-3,1.975065172E-1,1.975156071E-1
3.991083750E-1,-2.161173616E-3,1.749712974E-3,1.993481517E-1,1.993675444E-1
4.090633750E-1,-4.054680932E-3,7.920404896E-4,1.954580843E-1,1.955017404E-1
4.190193750E-1,-3.296235809E-3,-3.570411354E-4,1.939386427E-1,1.939669812E-1
4.289753750E-1,-3.345770529E-3,2.828099299E-3,1.869246662E-1,1.869759962E-1
4.389313750E-1,-4.818823654E-4,2.942066640E-4,1.834753305E-1,1.834761992E-1
4.488873750E-1,-2.738112584E-3,1.686507836E-3,1.873718053E-1,1.873993997E-1
4.588423750E-1,-1.605417347E-3,3.072741907E-3,1.915466487E-1,1.915780200E-1
4.687983750E-1,-4.091253504E-4,9.265001863E-4,1.930470765E-1,1.930497333E-1
4.787543750E-1,-1.779537648E-3,-1.888705418E-3,1.958120912E-1,1.958292854E-1
4.887103750E-1,-1.110551646E-3,1.347567886E-3,1.919731498E-1,1.919810915E-1
4.986663750E-1,-4.717878764E-4,2.609659918E-3,1.862776577E-1,1.862965343E-1
5.086213750E-1,-3.070500679E-3,5.185464397E-4,1.846563220E-1,1.846825767E-1
5.185773750E-1,-2.960818820E-3,1.331743784E-3,1.882796288E-1,1.883076169E-1
5.285333750E-1,-1.780505874E-3,2.885964233E-3,1.899235845E-1,1.899538547E-1
5.384893750E-1,-4.054434597E-3,2.442169935E-3,1.914625168E-1,1.915210118E-1
5.484453750E-1,-1.971842721E-3,1.798218116E-3,1.949275583E-1,1.949458251E-1
5.584003750E-1,-1.845150953E-3,1.508361660E-3,1.948525906E-1,1.948671645E-1
5.683563750E-1,2.283835784E-6,2.424222417E-3,1.962701976E-1,1.962851684E-1
5.783123750E-1,-2.509338316E-3,2.127992921E-3,1.963817626E-1,1.964093221E-1
5.882683750E-1,-2.372185234E-3,3.627086058E-3,1.940038204E-1,1.940522233E-1
5.982243750E-1,-1.689593773E-3,1.226865686E-3,1.903680414E-1,1.903794924E-1
6.081793750E-1,-2.680289792E-3,1.344045624E-3,1.864084601E-1,1.864325734E-1
6.181353750E-1,-2.473080764E-3,3.298996482E-3,1.858079433E-1,1.858536825E-1
6.280913750E-1,-2.136457013E-3,6.233183667E-4,1.885696501E-1,1.885827826E-1
6.380473750E-1,-2.994478215E-3,2.973825205E-3,1.927535832E-1,1.927997779E-1
6.480033750E-1,-3.840032034E-3,3.165838774E-3,1.937448084E-1,1.938087180E-1
6.579593750E-1,7.925438695E-6,-5.166353658E-4,1.939586103E-1,1.939592985E-1
6.679143750E-1,-1.887978986E-3,2.897004597E-3,1.917180866E-1,1.917492681E-1
6.778703750E-1,-2.242671326E-3,9.780228138E-4,1.896008253E-1,1.896166107E-1
6.878263750E-1,-1.588598941E-3,4.955719691E-3,1.843679845E-1,1.844414176E-1
6.977823750E-1,-1.457684557E-3,2.630480565E-3,1.867794096E-1,1.868036192E-1
7.077383750E-1,-2.472881693E-3,1.313547604E-3,1.927044094E-1,1.927247518E-1
7.176933750E-1,-2.410025336E-3,1.920165494E-3,1.955173016E-1,1.955415824E-1
7.276493750E-1,-1.231843024E-3,-7.294490933E-5,1.981991082E-1,1.982029497E-1
7.376053750E-1,-3.966532182E-3,-1.223354600E-3,1.966210008E-1,1.966648111E-1
7.475613750E-1,-2.133744769E-3,1.227019355E-3,1.952622533E-1,1.952777663E-1
7.575173750E-1,-2.418563003E-3,2.113307826E-3,1.916885674E-1,1.917154725E-1
7.674723750E-1,-3.847068874E-4,1.476812176E-3,1.878301799E-1,1.878363795E-1
7.774283750E-1,-4.928711569E-4,2.771111205E-3,1.848319173E-1,1.848533463E-1
7.873843750E-1,-1.090484438E-3,1.299714670E-3,1.838859618E-1,1.838937882E-1
7.973403750E-1,-4.286865704E-3,-1.254589297E-3,1.878981590E-1,1.879512420E-1
8.072963750E-1,-1.704931026E-3,2.290078439E-3,1.906515956E-1,1.906729717E-1
8.172513750E-1,-4.323376343E-3,1.128625125E-3,1.923713833E-1,1.924232691E-1
8.272073750E-1,-2.055694582E-3,2.221053466E-3,1.969243139E-1,1.969475676E-1
8.371633750E-1,-1.923756208E-4,-8.368492126E-4,1.928173751E-1,1.928192870E-1
8.471193750E-1,5.953874206E-4,-1.144444570E-3,1.915193498E-1,1.915236946E-1
8.570753750E-1,-2.774777124E-3,1.484264620E-3,1.897474974E-1,1.897735893E-1
8.670303750E-1,-6.695484044E-4,1.246178523E-3,1.908721626E-1,1.908774049E-1
8.769863750E-1,-3.665413940E-3,-7.045017555E-4,1.870179325E-1,1.870551755E-1
8.869423750E-1,5.447774311E-4,2.542424016E-3,1.856282949E-1,1.856465044E-1
8.968983750E-1,-3.100257600E-3,3.851953894E-3,1.867205650E-1,1.867860234E-1
9.068543750E-1,-7.795789279E-4,1.268687658E-3,1.871906072E-1,1.871965297E-1
9.168093750E-1,-6.219011266E-5,1.430632547E-3,1.890681982E-1,1.890736210E-1
9.267653750E-1,-4.267587326E-3,7.619122043E-4,1.953748316E-1,1.954229199E-1
9.367213750E-1,7.669079350E-4,-1.181222498E-3,1.935305744E-1,1.935356987E-1
9.466773750E-1,-2.897602040E-3,5.953721702E-4,1.921587735E-1,1.921815413E-1
9.566333750E-1,-2.004927490E-3,3.516812343E-3,1.939987242E-1,1.940409563E-1
9.665883750E-1,-2.728774678E-3,1.054986380E-3,1.943864673E-1,1.944084820E-1
9.765443750E-1,-1.027017948E-3,3.747446463E-4,1.927177310E-1,1.927208319E-1
9.865003750E-1,-1.107711927E-3,1.424296759E-3,1.867120415E-1,1.867207597E-1
9.964563750E-1,-2.387615619E-3,-6.815884262E-5,1.843263209E-1,1.843417965E-1
1.006412375E0,-2.142604673E-3,1.033324748E-3,1.809401065E-1,1.809557423E-1
1.016368375E0,-1.019405317E-3,5.759391934E-5,1.850084811E-1,1.850112986E-1
1.026323375E0,-2.477486152E-3,3.509583883E-3,1.902860701E-1,1.903345570E-1
1.036279375E0,-3.493404947E-3,6.273929030E-4,1.923802048E-1,1.924129432E-1
1.046235375E0,-2.793259919E-3,3.815833479E-4,1.942622662E-1,1.942827217E-1
1.056191375E0,-1.265155734E-3,2.615428995E-3,1.970149428E-1,1.970363641E-1
1.066147375E0,-4.913952667E-3,2.801051363E-3,1.988932788E-1,1.989736897E-1
1.076102375E0,-2.684568521E-3,3.709309269E-3,1.970724314E-1,1.971256176E-1
1.086058375E0,-1.692541060E-3,2.302893903E-3,1.952950358E-1,1.953159467E-1
1.096014375E0,-3.126438474E-3,-2.969568595E-4,1.907235980E-1,1.907494525E-1
1.105970375E0,-1.717360225E-3,2.927331720E-3,1.867573559E-1,1.867881918E-1
1.115926708E0,-3.932159394E-3,1.850785688E-3,1.864619404E-1,1.865125800E-1
1.125881708E0,-9.054911789E-5,1.532537863E-3,1.863317043E-1,1.863380285E-1
1.135837708E0,-1.140861539E-3,3.675249405E-3,1.887661219E-1,1.888053436E-1
1.145793708E0,-2.369377762E-3,-1.291546039E-3,1.904332638E-1,1.904523825E-1
1.155749708E0,-2.042948036E-3,-9.988620877E-5,1.938789189E-1,1.938897078E-1
1.165705708E0,-3.706092015E-3,3.451276571E-4,1.930346936E-1,1.930705756E-1
1.175660708E0,1.161517459E-3,1.549702138E-3,1.935866177E-1,1.935963049E-1
1.185616708E0,-5.288398825E-5,-1.329973340E-3,1.903210580E-1,1.903257123E-1
1.195572708E0,-4.587229341E-3,1.049136743E-3,1.887899041E-1,1.888485405E-1
1.205528708E0,6.105192006E-5,4.038531333E-4,1.902080327E-1,1.902084713E-1
1.215484708E0,-1.404975890E-3,1.403043978E-3,1.900105029E-1,1.900208771E-1
1.225440708E0,3.274103510E-4,2.493076026E-3,1.905559152E-1,1.905725045E-1
1.235395708E0,1.101591624E-4,9.912746027E-4,1.920246482E-1,1.920272384E-1
1.245351708E0,-3.479249310E-3,4.301849753E-3,1.918843091E-1,1.919640569E-1
1.255307708E0,-1.755520003E-3,2.656802069E-3,1.879047155E-1,1.879316966E-1
1.265263708E0,-3.610888962E-4,2.601408400E-3,1.883438677E-1,1.883621783E-1
1.275219708E0,3.269640729E-6,3.021081444E-3,1.891376376E-1,1.891617639E-1
1.285174708E0,-3.831149545E-3,2.143570222E-3,1.914138347E-1,1.914641708E-1
1.295130708E0,2.150071668E-4,1.454784535E-3,1.919836700E-1,1.919893022E-1
1.305086708E0,-2.023379784E-3,1.391401514E-3,1.919274777E-1,1.919431863E-1
1.315042708E0,-3.891632892E-3,1.906843856E-3,1.900369525E-1,1.900863598E-1
1.324998708E0,-3.179503605E-3,8.074911311E-4,1.885618269E-1,1.885903599E-1
1.334953708E0,-9.096786380E-4,3.560725600E-5,1.863210350E-1,1.863232591E-1
1.344909708E0,-2.331273863E-3,4.180371761E-4,1.880302429E-1,1.880451591E-1
1.354865708E0,-2.691560192E-3,-7.843440399E-4,1.881755590E-1,1.881964418E-1
1.364821708E0,-6.041744491E-4,8.505703881E-4,1.890900880E-1,1.890929662E-1
1.374777708E0,-2.695959760E-3,4.787277430E-5,1.868889928E-1,1.869084431E-1
1.384732708E0,-5.633003311E-4,2.421548590E-3,1.847427487E-1,1.847594772E-1
1.394688708E0,-3.722912166E-3,-1.429449767E-4,1.846618354E-1,1.846994152E-1
1.404644708E0,8.221203461E-5,-8.275732398E-5,1.832892448E-1,1.832892819E-1
1.414600708E0,-3.443868831E-3,2.830043901E-3,1.840323359E-1,1.840863114E-1
1.424556708E0,-1.637979061E-3,6.417240947E-4,1.883341372E-1,1.883423532E-1
1.434512708E0,-1.455650199E-4,3.645609133E-3,1.903119087E-1,1.903468788E-1
1.444467708E0,-4.158758093E-4,2.330540214E-3,1.908948720E-1,1.909095506E-1
1.454423708E0,-1.603473676E-3,5.399361253E-4,1.894842535E-1,1.894918072E-1
1.464379708E0,-1.946488861E-3,2.665138338E-3,1.937834024E-1,1.938115034E-1
1.474335708E0,3.265721607E-4,3.206956666E-3,1.930581927E-1,1.930851030E-1
1.484291708E0,-2.177864546E-3,2.428780776E-3,1.910469681E-1,1.910748180E-1
1.494246708E0,-5.158603890E-4,2.553332597E-4,1.904052794E-1,1.904061494E-1
1.504202708E0,-1.540112193E-3,-5.614580587E-4,1.913072914E-1,1.913143145E-1
1.514158708E0,-1.172996825E-3,9.920932353E-4,1.898321211E-1,1.898383375E-1
1.524114708E0,-1.733858604E-3,1.309009269E-3,1.914806068E-1,1.914929308E-1
1.534070708E0,8.745631203E-5,-5.115224048E-4,1.905039698E-1,1.905046766E-1
1.544025708E0,-3.402616363E-3,-2.193730325E-4,1.909646839E-1,1.909951214E-1
1.553981708E0,-5.782371853E-3,3.914292902E-4,1.922111213E-1,1.922984769E-1
1.563937708E0,-1.755938982E-3,2.391263843E-5,1.960258335E-1,1.960336994E-1
1.573893708E0,-2.232778119E-3,1.332567073E-3,1.964724511E-1,1.964896564E-1
1.583849708E0,-1.220510574E-3,1.512064599E-3,1.919125915E-1,1.919224290E-1
1.593805708E0,-5.811270094E-4,1.399707980E-3,1.880093664E-1,1.880154747E-1
1.603760708E0,1.464486122E-4,1.281499863E-6,1.861036122E-1,1.861036698E-1
1.613716708E0,-1.024282188E-3,-2.237353474E-4,1.838270575E-1,1.838300473E-1
1.623672708E0,6.612323341E-4,1.016499475E-3,1.864705086E-1,1.864744515E-1
1.633628708E0,1.857256284E-4,7.790606469E-5,1.906430870E-1,1.906431934E-1
1.643584708E0,-9.469167562E-4,4.920270294E-4,1.924204826E-1,1.924234416E-1
1.653539708E0,-9.149427060E-4,1.087173820E-3,1.914413124E-1,1.914465857E-1
1.663495708E0,-5.008212756E-4,2.491725143E-3,1.926945895E-1,1.927113498E-1
1.673451708E0,-1.168174203E-4,1.197578385E-3,1.908831149E-1,1.908869074E-1
1.683407708E0,-2.030831296E-3,-4.658326507E-4,1.923688948E-1,1.923801782E-1
1.693363708E0,-5.148747005E-4,-1.181447878E-4,1.896526068E-1,1.896533425E-1
1.703318708E0,-1.361493603E-3,1.540471800E-3,1.880288720E-1,1.880401112E-1
1.713274708E0,-8.118010592E-4,1.452500932E-3,1.874583513E-1,1.874657362E-1
1.723230708E0,-3.483484266E-3,1.279396005E-3,1.888541132E-1,1.888905704E-1
1.733186708E0,1.131393714E-3,9.706038982E-4,1.900835186E-1,1.900893637E-1
1.743142708E0,-2.275588224E-3,2.518433612E-3,1.930263191E-1,1.930561594E-1
1.753098708E0,-2.474526875E-3,1.837613992E-3,1.974044293E-1,1.974284904E-1
1.763053708E0,-1.890495652E-3,-1.504653133E-3,1.946177036E-1,1.946327015E-1
1.773009708E0,-7.247198373E-4,2.362215891E-3,1.939400285E-1,1.939557680E-1
1.782965708E0,-3.952867119E-4,6.636511534E-4,1.920971125E-1,1.920986656E-1
1.792921708E0,2.110609785E-6,2.577084582E-3,1.856613159E-1,1.856792008E-1
1.802877708E0,2.688174834E-3,4.167524166E-3,1.840748638E-1,1.841416575E-1
1.812832708E0,-6.108307280E-4,2.291878685E-3,1.861180365E-1,1.861331495E-1
1.822788708E0,2.158143325E-4,-3.142906353E-4,1.898128986E-1,1.898132815E-1
1.832744708E0,-1.360251452E-3,-6.169546396E-5,1.924595982E-1,1.924644150E-1
1.842700708E0,-2.115523908E-3,-3.772694618E-5,1.933126152E-1,1.933241941E-1
1.852656708E0,1.083081588E-4,8.102282882E-4,1.979656816E-1,1.979673692E-1
1.862611708E0,-1.123137539E-3,6.523029879E-4,1.963400841E-1,1.963443800E-1
1.872567708E0,-4.897736944E-3,7.159076631E-6,1.980213076E-1,1.980818673E-1
1.882523708E0,-6.742298137E-4,3.276721574E-3,1.898698956E-1,1.898993648E-1
1.892479708E0,4.861368798E-4,1.149878837E-3,1.851387620E-1,1.851429711E-1
1.902435708E0,-2.652131952E-3,3.060430754E-3,1.824774593E-1,1.825223909E-1
1.912391708E0,-1.495851204E-3,1.734872349E-3,1.817551106E-1,1.817695453E-1
1.922346708E0,4.453270230E-4,1.482937485E-3,1.845783293E-1,1.845848235E-1
1.932302708E0,4.383660853E-4,-1.365009695E-3,1.909671277E-1,1.909725092E-1
1.942258708E0,-2.649302594E-3,-9.482242167E-4,1.940566599E-1,1.940770600E-1
1.952214708E0,-1.315601636E-3,3.332179505E-3,1.970760077E-1,1.971085667E-1
1.962170708E0,-3.359577619E-3,1.204313710E-3,2.019013911E-1,2.019329316E-1
1.972125708E0,-1.353190746E-4,-1.528589055E-4,1.965289563E-1,1.965290623E-1
1.982081708E0,-1.996868756E-3,4.206469748E-3,1.912716031E-1,1.913282729E-1
1.992037708E0,-2.612609183E-3,5.348958075E-4,1.827422380E-1,1.827616957E-1
2.001993708E0,-9.220344946E-4,1.135172322E-3,1.799174100E-1,1.799233537E-1
2.011949708E0,-3.882095218E-3,3.357329406E-3,1.835762560E-1,1.836479897E-1
2.021905708E0,3.701238893E-5,3.868397325E-4,1.883220077E-1,1.883224086E-1
2.031860708E0,-4.235485103E-3,1.577406190E-3,1.948935091E-1,1.949459090E-1
2.041816708E0,-3.336668015E-3,6.053522229E-4,1.959063113E-1,1.959356593E-1
2.051772708E0,-2.724285005E-3,-1.141190529E-3,1.971223950E-1,1.971445223E-1
2.061728708E0,-1.653427724E-3,1.543009654E-3,1.961980015E-1,1.962110356E-1
2.071684708E0,2.683148487E-4,-4.808269441E-4,1.972556859E-1,1.972564544E-1
2.081639708E0,-7.764431648E-4,2.944199368E-4,1.953272969E-1,1.953290620E-1
2.091595708E0,-2.622385509E-3,1.650364138E-3,1.894127727E-1,1.894381140E-1
2.101551708E0,1.837874297E-4,-3.126515076E-4,1.825580746E-1,1.825584348E-1
2.111507708E0,-1.674034749E-3,4.464836791E-3,1.836007535E-1,1.836626632E-1
2.121463458E0,-4.609649768E-4,3.317813389E-3,1.893768758E-1,1.894064979E-1
2.131418458E0,3.287791042E-4,-4.861606285E-4,1.929819435E-1,1.929828359E-1
2.141374458E0,-5.553903757E-4,-1.015064307E-3,1.954688132E-1,1.954722378E-1
2.151330458E0,-3.079192946E-3,1.122949645E-3,1.918141395E-1,1.918421397E-1
2.161286458E0,-1.833898947E-3,-1.769242808E-3,1.884132773E-1,1.884305083E-1
2.171242458E0,-9.635766037E-4,-5.183480680E-4,1.860558242E-1,1.860590414E-1
2.181198458E0,-1.840693876E-4,6.667589769E-4,1.826978475E-1,1.826991569E-1
2.191153458E0,-9.304129053E-4,5.418984219E-4,1.884639263E-1,1.884670020E-1
2.201109458E0,-2.476111520E-3,2.169888932E-3,1.927449554E-1,1.927730723E-1
2.211065458E0,-1.071861712E-3,-4.372615367E-4,1.934766620E-1,1.934801252E-1
2.221021458E0,-1.040169969E-3,2.211518120E-3,1.988831460E-1,1.988981612E-1
2.230977458E0,-3.291066270E-3,3.469465300E-4,1.973363757E-1,1.973641220E-1
2.240932458E0,-2.137118485E-3,3.426359966E-3,2.000120580E-1,2.000528195E-1
2.250888458E0,-1.161861233E-3,4.567065742E-3,1.935542226E-1,1.936115830E-1
2.260844458E0,-4.431690089E-3,1.879403368E-3,1.912732273E-1,1.913337909E-1
2.270800458E0,-3.854813520E-3,2.339238301E-3,1.861666888E-1,1.862212868E-1
2.280756458E0,-1.633736887E-3,3.338782117E-4,1.797636598E-1,1.797713936E-1
2.290712458E0,3.365423763E-3,2.347610891E-3,1.804381460E-1,1.804847968E-1
2.300667458E0,-2.086333232E-3,7.459856570E-4,1.837292910E-1,1.837426506E-1
2.310623458E0,5.418548244E-4,1.769533381E-3,1.889701039E-1,1.889791655E-1
2.320579458E0,-7.646919694E-4,1.068589278E-3,1.936617941E-1,1.936662519E-1
2.330535458E0,-2.389879432E-3,-1.235875301E-3,1.958866268E-1,1.959051033E-1
2.340491458E0,-1.717963838E-3,-1.000185497E-3,1.964075416E-1,1.964176015E-1
2.350446458E0,-1.177525846E-4,1.580414362E-3,1.962938458E-1,1.963002432E-1
2.360402458E0,-7.068436826E-4,3.249683883E-3,1.920040250E-1,1.920328245E-1
2.370358458E0,-2.597184619E-3,-3.723036498E-4,1.919336915E-1,1.919516239E-1
2.380314458E0,-2.640594030E-3,-5.368869752E-4,1.881520003E-1,1.881712948E-1
2.390270458E0,-2.187553328E-3,2.866873983E-3,1.889551729E-1,1.889895810E-1
2.400226458E0,-3.073320724E-3,9.555239230E-4,1.929203570E-1,1.929472012E-1
2.410181458E0,-2.720072167E-3,5.221171305E-4,1.932361275E-1,1.932559763E-1
2.420137458E0,-1.336293761E-3,-1.393227838E-3,1.972705424E-1,1.972799880E-1
2.430093458E0,-3.292621346E-3,-2.751652151E-3,1.981086582E-1,1.981551246E-1
2.440049458E0,-1.138723455E-4,1.517394558E-3,1.944718510E-1,1.944778041E-1
2.450005458E0,-4.583563423E-4,1.320573501E-3,1.872355640E-1,1.872407820E-1
2.459960458E0,9.877700359E-5,7.637068629E-4,1.862217039E-1,1.862232961E-1
2.469916458E0,-2.626678906E-6,-3.681834787E-4,1.879711896E-1,1.879715502E-1
2.479872458E0,-9.211509023E-4,1.330113970E-3,1.935747564E-1,1.935815178E-1
2.489828458E0,5.188537762E-5,-8.584111929E-4,1.944388449E-1,1.944407467E-1
2.499784458E0,-6.422842853E-5,2.659754828E-4,1.978026778E-1,1.978028670E-1
2.509740458E0,-3.578496631E-3,4.532877356E-4,1.964983940E-1,1.965314986E-1
2.519695458E0,-1.901504118E-3,3.170511220E-3,1.904745847E-1,1.905104598E-1
2.529651458E0,2.761336043E-3,2.999907825E-3,1.854707599E-1,1.855155713E-1
2.539607458E0,-2.525632735E-4,5.122713279E-3,1.891925335E-1,1.892620424E-1
2.549563458E0,9.796132799E-4,2.439495642E-3,1.901438385E-1,1.901620102E-1
2.559519458E0,-8.635603590E-4,3.290908411E-3,1.960448772E-1,1.960743983E-1
2.569474458E0,-1.350645791E-3,1.457302831E-3,1.928258538E-1,1.928360907E-1
2.579430458E0,-2.162377350E-3,-1.675728709E-5,1.903890669E-1,1.904013471E-1
2.589386458E0,-1.110907760E-3,3.747100011E-3,1.894358695E-1,1.894761819E-1
2.599342458E0,-1.055513858E-3,3.075184766E-3,1.899732947E-1,1.900011147E-1
2.609298458E0,-1.427686424E-3,1.348292455E-3,1.921661496E-1,1.921761828E-1
2.619254458E0,-1.119026099E-3,-5.571991205E-4,1.959709972E-1,1.959749842E-1
2.629209458E0,-1.486778376E-3,3.210388124E-3,1.936483234E-1,1.936806399E-1
2.639165458E0,-1.095027314E-3,1.252165996E-3,1.940358132E-1,1.940429432E-1
2.649121458E0,-1.106149284E-3,-1.164993271E-3,1.895860583E-1,1.895928645E-1
2.659077458E0,7.356928545E-4,-4.656473175E-4,1.828815490E-1,1.828836216E-1
2.669033458E0,-5.453566555E-4,2.186633646E-3,1.849100143E-1,1.849237469E-1
2.678988458E0,-1.307020662E-3,-1.188647002E-4,1.889098138E-1,1.889143726E-1
2.688944458E0,-1.185546746E-3,-7.477076724E-4,1.927855015E-1,1.927905967E-1
2.698900458E0,-2.272915561E-3,1.388583332E-4,1.932885796E-1,1.933019928E-1
2.708856458E0,-6.149515975E-4,-4.583131522E-4,1.926787645E-1,1.926802909E-1
2.718812458E0,1.701654401E-5,-1.622647047E-3,1.875524521E-1,1.875594721E-1
2.728768458E0,-1.394047169E-3,1.260626130E-3,1.832541674E-1,1.832638056E-1
2.738723458E0,3.247568384E-4,1.327471808E-3,1.860510260E-1,1.860560451E-1
2.748679458E0,-1.253801165E-3,1.633044332E-3,1.909740716E-1,1.909851693E-1
2.758635458E0,2.162638120E-4,1.713205595E-3,1.961272806E-1,1.961348823E-1
2.768591458E0,-3.351687687E-3,1.786127687E-3,1.974336952E-1,1.974702207E-1
2.778547458E0,1.591575565E-4,-5.390783772E-4,1.961356699E-1,1.961364753E-1
2.788502458E0,-1.111517427E-3,-2.011127770E-3,1.949373931E-1,1.949509357E-1
2.798458458E0,-1.431921264E-4,7.146410644E-5,1.857441664E-1,1.857442353E-1
2.808414458E0,-1.073369174E-3,3.753547091E-3,1.842585951E-1,1.842999487E-1
2.818370458E0,-1.054727123E-3,3.063788638E-3,1.869470477E-1,1.869751264E-1
2.828326458E0,-1.400150824E-3,9.859958664E-4,1.914214939E-1,1.914291538E-1
2.838282458E0,-7.197130471E-4,1.790003851E-3,1.967725754E-1,1.967820330E-1
2.848237458E0,-1.091664075E-3,6.532007828E-4,2.007619739E-1,2.007660045E-1
2.858193458E0,-3.615009133E-3,-1.626465470E-3,2.015012652E-1,2.015402529E-1
2.868149458E0,-3.614004236E-4,2.568630967E-3,1.949618161E-1,1.949790712E-1
2.878105458E0,-2.654914744E-3,-7.832236588E-4,1.846681684E-1,1.846889126E-1
2.888061458E0,2.315383404E-3,6.271880120E-4,1.792175025E-1,1.792335559E-1
2.898016458E0,-1.580022275E-3,1.298304647E-3,1.830481887E-1,1.830596117E-1
2.907972458E0,-3.123308532E-3,5.780402571E-4,1.897073537E-1,1.897339433E-1
2.917928458E0,-1.334995963E-3,5.575343966E-4,1.905478388E-1,1.905533309E-1
2.927884458E0,-1.487892703E-3,1.493168063E-3,1.959222853E-1,1.959336246E-1
2.937840458E0,-3.340654075E-3,1.228716224E-3,1.952636987E-1,1.952961386E-1
2.947796458E0,5.109241465E-4,-1.649159007E-3,1.927096248E-1,1.927173584E-1
2.957751458E0,4.802977201E-4,-1.858217642E-3,1.887210011E-1,1.887307604E-1
2.967707458E0,-1.569425920E-3,-6.179828197E-4,1.874366999E-1,1.874442889E-1
2.977663458E0,-2.620043000E-3,2.020943910E-3,1.867477447E-1,1.867770569E-1
2.987619458E0,-2.025897847E-4,1.037123613E-3,1.858156323E-1,1.858186371E-1
2.997575458E0,-2.605560003E-3,9.236726910E-4,1.912471503E-1,1.912671289E-1
3.007531458E0,-1.288435888E-3,3.867065534E-4,1.960378140E-1,1.960424294E-1
3.017486458E0,-2.250103513E-3,7.419716567E-4,1.981771290E-1,1.981912913E-1
3.027442458E0,-2.058126964E-3,2.652313560E-5,1.934438944E-1,1.934548445E-1
3.037398458E0,1.545929001E-3,4.595536739E-4,1.909037679E-1,1.909105804E-1
3.047354458E0,-4.973290488E-4,1.660635695E-3,1.866713762E-1,1.866794251E-1
3.057310458E0,2.755202586E-4,1.433202066E-3,1.881432980E-1,1.881489585E-1
3.067265458E0,3.591103014E-4,9.525818750E-4,1.927147657E-1,1.927174545E-1
3.077221458E0,-1.161554595E-3,1.915048808E-3,1.919773370E-1,1.919904022E-1
3.087177458E0,9.658753988E-4,-1.878361218E-3,1.918409169E-1,1.918525437E-1
3.097133458E0,-1.673050923E-3,-7.590344176E-4,1.899274439E-1,1.899363292E-1
3.107089458E0,-1.446406590E-3,1.727280207E-3,1.899899542E-1,1.900033113E-1
3.117045958E0,-1.526035136E-3,1.992797479E-3,1.944289058E-1,1.944451065E-1
3.127000958E0,-1.200358383E-5,-1.723654568E-4,1.948985904E-1,1.948986670E-1
3.136956958E0,-1.611498068E-3,2.987477928E-4,1.937015057E-1,1.937084393E-1
3.146912958E0,-2.199255861E-3,-2.417974174E-4,1.884535998E-1,1.884665872E-1
3.156868958E0,-3.073837608E-3,-4.673674703E-4,1.899702698E-1,1.899957113E-1
3.166824958E0,-6.381646963E-4,5.729030818E-5,1.877717674E-1,1.877728606E-1
3.176780958E0,-4.900930217E-4,2.681569196E-3,1.928799897E-1,1.928992521E-1
3.186735958E0,4.085007822E-4,5.796980113E-4,1.956519783E-1,1.956532635E-1
3.196691958E0,-1.261301222E-3,5.163149908E-4,1.962597072E-1,1.962644393E-1
3.206647958E0,-1.468862407E-3,-1.371754333E-3,1.928499937E-1,1.928604660E-1
3.216603958E0,3.665881231E-4,3.024325706E-3,1.915010959E-1,1.915253264E-1
3.226559958E0,-2.240083646E-3,1.734140795E-3,1.929421127E-1,1.929629085E-1
3.236514958E0,-5.602545571E-5,1.004966907E-3,1.928821951E-1,1.928848213E-1
3.246470958E0,-2.389375120E-3,3.089187667E-4,1.889625937E-1,1.889779520E-1
3.256426958E0,-1.129433629E-3,1.871927641E-3,1.835819483E-1,1.835949658E-1
3.266382958E0,-1.856342191E-3,4.580561072E-4,1.835268587E-1,1.835368183E-1
3.276338958E0,-2.512545092E-3,8.021369576E-4,1.842674762E-1,1.842863508E-1
3.286294958E0,8.270489634E-4,1.611147542E-3,1.893524677E-1,1.893611280E-1
3.296249958E0,-2.442779951E-3,-6.552021950E-4,1.973781586E-1,1.973943615E-1
3.306205958E0,-1.393062877E-3,-6.675608456E-4,1.987595260E-1,1.987655288E-1
3.316161958E0,-3.208273556E-3,-1.454524696E-3,1.962976903E-1,1.963292945E-1
3.326117958E0,-2.084392589E-3,7.544495165E-4,1.944915205E-1,1.945041528E-1
3.336073958E0,-1.116333413E-3,4.535121843E-4,1.913226247E-1,1.913264190E-1
3.346029958E0,-3.897974966E-4,2.042911947E-4,1.918131858E-1,1.918136907E-1
3.355984958E0,-3.029256128E-3,2.884473652E-4,1.922243685E-1,1.922484523E-1
3.365940958E0,-4.680436105E-3,-6.455136463E-4,1.909896731E-1,1.910481050E-1
3.375896958E0,-4.087882582E-3,-5.429824814E-4,1.879209131E-1,1.879661544E-1
3.385852958E0,-1.021252014E-3,4.046666902E-3,1.845261604E-1,1.845733522E-1
3.395808958E0,2.770391293E-4,-4.639290273E-4,1.841285527E-1,1.841293455E-1
3.405764958E0,-1.391459838E-3,4.901373759E-4,1.889031827E-1,1.889089433E-1
3.415719958E0,-5.624176702E-4,1.007855870E-3,1.932814270E-1,1.932848730E-1
3.425675958E0,-2.075549681E-3,1.808418427E-3,1.960484236E-1,1.960677503E-1
3.435631958E0,1.276571187E-3,1.238286495E-5,1.971283406E-1,1.971324744E-1
3.445587958E0,-3.295992967E-3,-4.384042695E-4,1.920097619E-1,1.920385494E-1
3.455543958E0,1.580787357E-3,5.694385618E-5,1.904755235E-1,1.904820915E-1
3.465498958E0,-5.253660493E-5,1.112656668E-3,1.868837774E-1,1.868870970E-1
3.475454958E0,-1.455489779E-3,2.168067265E-3,1.891029924E-1,1.891210213E-1
3.485410958E0,-1.473557204E-3,-1.765219495E-4,1.937882751E-1,1.937939579E-1
3.495366958E0,-1.110568177E-3,8.152397349E-4,1.932175606E-1,1.932224721E-1
3.505322958E0,-1.953918254E-3,2.859497909E-3,1.924480349E-1,1.924791954E-1
3.515278958E0,-1.035127789E-3,7.076635957E-4,1.920797229E-1,1.920838156E-1
3.525233958E0,2.109633060E-4,2.033888362E-3,1.933954060E-1,1.934062157E-1
3.535189958E0,-2.548870631E-3,-3.169928677E-3,1.936641186E-1,1.937068301E-1
3.545145958E0,-2.801152645E-3,1.371668652E-3,1.878432781E-1,1.878691700E-1
3.555101958E0,1.969900215E-3,1.806829125E-3,1.841643751E-1,1.841837729E-1
3.565057958E0,-6.862652954E-4,1.609502826E-3,1.832488626E-1,1.832572157E-1
3.575013958E0,-9.147645906E-4,3.335820511E-4,1.881698519E-1,1.881723711E-1
3.584968958E0,-1.050916384E-3,4.550106823E-4,1.914741844E-1,1.914776090E-1
3.594924958E0,1.007707091E-3,-2.622231841E-5,1.964047551E-1,1.964073420E-1
3.604880958E0,-3.124728799E-3,1.850198023E-3,1.926633567E-1,1.926975770E-1
3.614836958E0,-3.540447913E-3,-8.526444435E-4,1.904992759E-1,1.905340807E-1
3.624792958E0,-2.146851271E-3,2.825315576E-3,1.886160672E-1,1.886494425E-1
3.634748958E0,-3.567914013E-3,-2.143610269E-3,1.861377358E-1,1.861842683E-1
3.644703958E0,-1.408645650E-3,2.132700756E-4,1.848761737E-1,1.848816632E-1
3.654659958E0,-2.125835046E-3,1.347776502E-3,1.875547916E-1,1.875716810E-1
3.664615958E0,-7.674510125E-4,1.332112588E-3,1.866989434E-1,1.867052730E-1
3.674571958E0,3.726483556E-4,2.230662853E-3,1.932143718E-1,1.932276072E-1
3.684527958E0,3.505347995E-4,-4.847189412E-4,1.976154894E-1,1.976163947E-1
3.694482958E0,4.048632691E-4,8.764229715E-4,1.979800761E-1,1.979824299E-1
3.704438958E0,1.711683348E-3,-5.649914965E-4,1.954258829E-1,1.954341956E-1
3.714394958E0,-6.617258769E-4,9.067915380E-5,1.911123693E-1,1.911135364E-1
3.724350958E0,-1.460011350E-3,1.631613355E-3,1.830558777E-1,1.830689710E-1
3.734306958E0,-4.407864530E-3,-1.947941259E-3,1.815170944E-1,1.815810543E-1
3.744262958E0,-8.546225727E-4,3.291442990E-4,1.827166528E-1,1.827189479E-1
3.754218958E0,1.922660740E-4,8.785538375E-4,1.858810186E-1,1.858831943E-1
3.764173958E0,-3.491798416E-3,1.233977266E-3,1.855173409E-1,1.855543024E-1
3.774129958E0,-1.417462016E-3,9.226538241E-4,1.893046200E-1,1.893121751E-1
3.784085958E0,-1.816337463E-3,4.043113440E-4,1.898675412E-1,1.898766593E-1
3.794041958E0,-1.134301769E-3,2.165585756E-4,1.943152845E-1,1.943187158E-1
3.803997958E0,-2.259772271E-3,1.911539584E-4,1.955554783E-1,1.955686279E-1
3.813952958E0,-1.584927435E-3,4.691872746E-4,1.970527023E-1,1.970596347E-1
3.823908958E0,-2.958868165E-3,2.757310867E-4,1.952299923E-1,1.952526077E-1
3.833864958E0,-3.663540352E-3,1.143440604E-4,1.951098889E-1,1.951443142E-1
3.843820958E0,-4.266533069E-3,-1.914985478E-4,1.885083914E-1,1.885567649E-1
3.853776958E0,1.449409872E-3,1.103863120E-3,1.874519140E-1,1.874607675E-1
3.863732958E0,7.937888149E-4,9.641842917E-4,1.891168803E-1,1.891210040E-1
3.873687958E0,-3.186136018E-4,1.533302013E-3,1.867277473E-1,1.867343143E-1
3.883643958E0,-2.347388305E-3,1.784800552E-3,1.918063611E-1,1.918290278E-1
3.893599958E0,-1.863757963E-3,2.386408858E-3,1.919848025E-1,1.920086793E-1
3.903555958E0,-2.226976212E-4,6.615221500E-4,1.920252591E-1,1.920265277E-1
3.913511958E0,-1.459735911E-3,4.841564223E-4,1.939195544E-1,1.939256528E-1
3.923467958E0,-8.773461450E-4,1.538377255E-4,1.924142241E-1,1.924162858E-1
3.933422958E0,-5.702835042E-4,-1.007566229E-3,1.920339167E-1,1.920374067E-1
3.943378958E0,-2.228030004E-3,2.248690464E-3,1.906294227E-1,1.906557041E-1
3.953334958E0,-2.001927234E-3,2.242298797E-3,1.908182502E-1,1.908419247E-1
3.963290958E0,-1.701367088E-3,8.028289303E-4,1.924053282E-1,1.924145251E-1
3.973246958E0,3.631152213E-4,2.060373314E-3,1.914668381E-1,1.914782679E-1
3.983202958E0,-1.014450798E-3,-6.848294288E-4,1.911573857E-1,1.911613042E-1
3.993157958E0,-3.143115202E-3,8.904300630E-4,1.933515668E-1,1.933791623E-1
4.003113958E0,3.159196349E-4,5.354732275E-5,1.939780861E-1,1.939783508E-1
4.013069958E0,-2.109687310E-3,-2.123853192E-3,1.969059706E-1,1.969287251E-1
4.023025958E0,1.575825037E-3,2.340422943E-4,1.961815357E-1,1.961880041E-1
4.032981958E0,-3.245561616E-3,-5.121752620E-4,1.956614107E-1,1.956889972E-1
4.042937958E0,-1.087383949E-3,-3.997450694E-4,1.895811260E-1,1.895846659E-1
4.052892958E0,-2.087933477E-3,-5.912259221E-4,1.844353676E-1,1.844481332E-1
4.062848958E0,3.728331067E-4,-1.517678611E-3,1.838685423E-1,1.838751838E-1
4.072804958E0,-2.446122933E-3,-6.015514955E-4,1.861695200E-1,1.861865612E-1
4.082760958E0,-4.130497109E-5,-7.350528613E-4,1.848855466E-1,1.848870124E-1
4.092716958E0,-3.438965650E-3,1.831701491E-3,1.889458001E-1,1.889859703E-1
4.102672958E0,-1.747362781E-3,1.631405205E-3,1.911064833E-1,1.911214345E-1
4.112627958E0,-1.308207400E-3,-9.313551709E-4,1.950506270E-1,1.950572375E-1
4.122583375E0,6.987806992E-4,-5.694571882E-5,1.944748014E-1,1.944760652E-1
4.132539375E0,-1.922036172E-3,-1.267204061E-4,1.920444071E-1,1.920540668E-1
4.142495375E0,-6.371190306E-3,-3.396524116E-4,1.931460500E-1,1.932514012E-1
4.152451375E0,-1.607061946E-3,5.261413753E-4,1.899643838E-1,1.899719100E-1
4.162407375E0,-1.313403947E-3,-1.056438312E-3,1.924517751E-1,1.924591562E-1
4.172362375E0,-3.044458572E-3,4.088329151E-4,1.887483746E-1,1.887733688E-1
4.182318375E0,-7.434282452E-7,-1.349269412E-3,1.871963143E-1,1.872011769E-1
4.192274375E0,-7.722611772E-4,1.637198962E-3,1.892368346E-1,1.892454924E-1
4.202230375E0,1.119111199E-3,7.439050823E-4,1.917831600E-1,1.917878678E-1
4.212186375E0,5.398736103E-4,-7.985979319E-4,1.935917139E-1,1.935941138E-1
4.222142375E0,-1.552139525E-3,-1.729719341E-3,1.942670345E-1,1.942809352E-1
4.232097375E0,1.431666082E-3,6.972188130E-4,1.906970739E-1,1.907037225E-1
4.242053375E0,-3.268318018E-3,-8.457088843E-4,1.929023713E-1,1.929319102E-1
4.252009375E0,-1.044827513E-4,3.939932212E-4,1.916514933E-1,1.916519268E-1
4.261965375E0,-2.183881588E-4,8.155899122E-4,1.914222538E-1,1.914241159E-1
4.271921375E0,-2.886955626E-4,3.745704889E-4,1.896989197E-1,1.896995091E-1
4.281877375E0,-1.202762942E-3,1.877915580E-3,1.904125512E-1,1.904256097E-1
4.291832375E0,-8.890425088E-4,1.487495843E-3,1.889621913E-1,1.889701373E-1
4.301788375E0,5.750976270E-4,6.560338661E-4,1.846274585E-1,1.846295197E-1
4.311744375E0,2.041700296E-3,1.180943102E-3,1.879324466E-1,1.879472470E-1
4.321700375E0,-1.346963574E-3,-1.280499622E-3,1.909721643E-1,1.909812072E-1
4.331656375E0,-4.401573678E-4,1.371475868E-3,1.938425153E-1,1.938478667E-1
4.341612375E0,-2.303225687E-3,-8.723596111E-4,1.956672072E-1,1.956827071E-1
4.351567375E0,-3.128539538E-3,-1.056026667E-5,1.966336668E-1,1.966585538E-1
4.361523375E0,-1.054111985E-3,-6.920490414E-4,1.945082992E-1,1.945123866E-1
4.371479375E0,-5.371923326E-4,4.192879423E-4,1.921561956E-1,1.921574040E-1
4.381435375E0,-1.989444252E-3,-1.371767372E-3,1.909623295E-1,1.909776189E-1
4.391391375E0,-2.128994092E-3,4.799282178E-4,1.887092888E-1,1.887219082E-1
4.401347375E0,2.706164960E-4,1.767241862E-3,1.852584481E-1,1.852670747E-1
4.411302375E0,2.224132186E-4,1.766975503E-3,1.881671548E-1,1.881755824E-1
4.421258375E0,5.452858750E-5,2.240184695E-3,1.892981976E-1,1.893114604E-1
4.431214375E0,-2.557499800E-3,-3.894884139E-5,1.930580437E-1,1.930749869E-1
4.441170375E0,-9.457255946E-4,-1.088790596E-4,1.937914044E-1,1.937937426E-1
4.451126375E0,-1.332949032E-3,-1.149908639E-3,1.943764985E-1,1.943844701E-1
4.461082375E0,-3.384007141E-3,-1.023039222E-4,1.894197017E-1,1.894499548E-1
4.471037375E0,2.241654554E-3,6.191460416E-4,1.875022203E-1,1.875166418E-1
4.480993375E0,-1.205248758E-3,-1.768375747E-3,1.861657351E-1,1.861780350E-1
4.490949375E0,-3.130181693E-3,1.066293567E-3,1.840860695E-1,1.841157679E-1
4.500905375E0,-2.121782396E-3,-3.111017868E-4,1.856984645E-1,1.857108464E-1
4.510861375E0,7.798848674E-5,-1.039743423E-3,1.923513114E-1,1.923541374E-1
4.520817375E0,-2.242341172E-3,8.939858526E-5,1.921039224E-1,1.921170296E-1
4.530773375E0,-3.334503155E-3,-1.125802286E-3,1.922181696E-1,1.922503864E-1
4.540728375E0,-4.281026777E-4,1.066884957E-3,1.919093877E-1,1.919128307E-1
4.550684375E0,-3.430017969E-3,-3.726128489E-5,1.896547526E-1,1.896857707E-1
4.560640375E0,-1.655647997E-3,-2.734595910E-4,1.883858591E-1,1.883933329E-1
4.570596375E0,-1.233270625E-3,5.156351253E-4,1.859144419E-1,1.859192474E-1
4.580552375E0,-1.051937230E-3,1.345351338E-4,1.893066764E-1,1.893096469E-1
4.590508375E0,-2.438911470E-3,-1.198642887E-3,1.920920759E-1,1.921112976E-1
4.600463375E0,-6.962120533E-4,2.391977236E-3,1.943085045E-1,1.943244739E-1
4.610419375E0,-3.211567411E-3,1.661205664E-3,1.962070763E-1,1.962403897E-1
4.620375375E0,-2.155432478E-3,2.746814862E-3,1.972981095E-1,1.973290017E-1
4.630331375E0,-3.422032110E-3,2.671713941E-3,1.980595142E-1,1.981070910E-1
4.640287375E0,-6.645290414E-4,-9.815413505E-4,1.952682734E-1,1.952718710E-1
4.650243375E0,-2.581206150E-3,3.806650639E-4,1.932482570E-1,1.932658697E-1
4.660198375E0,1.633358188E-3,-1.726632938E-3,1.923322827E-1,1.923469679E-1
4.670154375E0,-2.185348421E-3,1.835877541E-3,1.834210753E-1,1.834432803E-1
4.680110375E0,-2.366075292E-3,7.581487298E-4,1.822778881E-1,1.822948205E-1
4.690066375E0,7.817808655E-4,1.493447926E-3,1.835815012E-1,1.835892403E-1
4.700022375E0,2.001029206E-4,-1.013436355E-3,1.899297386E-1,1.899325478E-1
4.709978375E0,2.646481153E-5,1.774094533E-3,1.929420382E-1,1.929501962E-1
4.719933375E0,-1.672634622E-3,1.535563730E-3,1.969331205E-1,1.969462099E-1
4.729889375E0,-2.360529033E-3,1.835701987E-3,1.962204576E-1,1.962432416E-1
4.739845375E0,-9.490678785E-4,-9.751655161E-4,1.925106049E-1,1.925154141E-1
4.749801375E0,-2.707553096E-3,7.614810020E-4,1.866447330E-1,1.866659236E-1
4.759757375E0,-2.161832526E-3,1.340839081E-3,1.857613623E-1,1.857787800E-1
4.769713375E0,1.020378666E-3,1.099556684E-3,1.882138699E-1,1.882198476E-1
4.779668375E0,-1.892764587E-3,-8.826050907E-5,1.922454238E-1,1.922547615E-1
4.789624375E0,-9.593267459E-4,4.374478012E-4,1.916621923E-1,1.916650924E-1
4.799580375E0,-1.718924963E-3,-6.304411218E-4,1.906385124E-1,1.906473041E-1
4.809536375E0,-7.290280191E-4,2.127528656E-3,1.914893836E-1,1.915025898E-1
4.819492375E0,-3.141128691E-4,-1.872138120E-3,1.875059307E-1,1.875155396E-1
4.829448375E0,6.869694917E-4,9.380299598E-4,1.888092905E-1,1.888128704E-1
4.839403375E0,4.358001752E-4,-3.336286172E-4,1.901391596E-1,1.901399517E-1
4.849359375E0,-1.618029550E-3,-2.361573279E-4,1.926553249E-1,1.926622641E-1
4.859315375E0,-1.239951467E-3,8.735265583E-4,1.919423491E-1,1.919483417E-1
4.869271375E0,2.026829170E-4,9.598126635E-4,1.884299070E-1,1.884324605E-1
4.879227375E0,-1.422716537E-3,1.351475716E-3,1.900637001E-1,1.900738296E-1
4.889183375E0,-1.685836818E-3,-7.947655395E-4,1.922080666E-1,1.922171027E-1
4.899139375E0,-1.953214873E-3,1.090950333E-3,1.944018155E-1,1.944146885E-1
4.909094375E0,-2.349226736E-3,-1.689912751E-4,1.917972416E-1,1.918117027E-1
4.919050375E0,-1.523964806E-3,-4.486441612E-4,1.817085445E-1,1.817154889E-1
4.929006375E0,-3.161808942E-3,9.271446615E-4,1.806565970E-1,1.806866422E-1
4.938962375E0,-7.833109703E-4,1.549214125E-3,1.785069257E-1,1.785153667E-1
4.948918375E0,7.416150765E-4,-2.055428922E-4,1.834755838E-1,1.834771977E-1
4.958874375E0,-1.966168638E-3,7.165148854E-4,1.859825402E-1,1.859943131E-1
4.968829375E0,3.201551735E-4,-1.261414960E-3,1.851652265E-1,1.851697998E-1
4.978785375E0,-1.080200309E-4,-8.754711598E-5,1.846687496E-1,1.846688019E-1
4.988741375E0,-3.311536275E-3,2.575347666E-3,1.896121055E-1,1.896585069E-1
4.998697375E0,4.282278242E-4,1.475178171E-3,1.858061999E-1,1.858125492E-1
5.008653375E0,-4.934922326E-4,-5.397694185E-4,1.861593425E-1,1.861607792E-1
5.018609375E0,-4.340673331E-4,2.180291340E-4,1.868912131E-1,1.868918443E-1
5.028564375E0,-1.738217426E-3,2.565072849E-3,1.884723306E-1,1.884977994E-1
5.038520375E0,-1.249573193E-3,-6.611924618E-5,1.880613118E-1,1.880654748E-1
5.048476375E0,-2.796498593E-4,7.517375052E-4,1.879385412E-1,1.879402527E-1
5.058432375E0,-3.425815841E-3,1.224366948E-3,1.885199696E-1,1.885550695E-1
5.068388375E0,-1.966136973E-3,1.805468462E-3,1.899218559E-1,1.899406138E-1
5.078344375E0,1.141798333E-3,-1.977622509E-3,1.924987882E-1,1.925123325E-1
5.088300375E0,1.749531715E-3,7.012514398E-4,1.904918253E-1,1.905011500E-1
5.098255375E0,-1.291412744E-3,1.613987610E-3,1.936803162E-1,1.936913462E-1
5.108211375E0,-4.823444178E-4,5.066450685E-4,1.921527237E-1,1.921539970E-1
5.118167833E0,-1.832754351E-3,-2.050361596E-3,1.934511214E-1,1.934706680E-1
5.128123833E0,-4.138785414E-3,-2.104956657E-3,1.924785227E-1,1.925345218E-1
5.138079833E0,9.629106498E-4,1.429730561E-3,1.913003922E-1,1.913081581E-1
5.148035833E0,-1.374812215E-3,2.494728658E-3,1.902724057E-1,1.902937260E-1
5.157990833E0,-1.612554537E-3,2.121478319E-3,1.916514039E-1,1.916699288E-1
5.167946833E0,-2.937210724E-3,8.966904134E-4,1.897230148E-1,1.897478685E-1
5.177902833E0,-1.202638960E-4,1.964252442E-4,1.937294155E-1,1.937295524E-1
5.187858833E0,-1.607106766E-3,2.316301689E-3,1.939134449E-1,1.939339376E-1
5.197814833E0,8.768774569E-5,-1.233406365E-4,1.921598464E-1,1.921599060E-1
5.207770833E0,-2.355762757E-3,-5.963183939E-4,1.910682172E-1,1.910836697E-1
5.217726833E0,5.413654726E-4,9.216405451E-4,1.893651485E-1,1.893681652E-1
5.227681833E0,-9.662499651E-4,8.940231055E-5,1.898586303E-1,1.898611101E-1
5.237637833E0,-1.001787838E-3,1.194411889E-3,1.926130205E-1,1.926193289E-1
5.247593833E0,-1.562915742E-3,3.712289035E-4,1.949946880E-1,1.950013048E-1
5.257549833E0,-3.038678784E-3,4.569571465E-4,1.960960031E-1,1.961200775E-1
5.267505833E0,-1.614153967E-3,-9.768884629E-4,1.942951679E-1,1.943043285E-1
5.277461833E0,-1.494644210E-3,-1.092628576E-3,1.942374855E-1,1.942463091E-1
5.287416833E0,-1.609426457E-3,2.136187628E-3,1.953216642E-1,1.953399756E-1
5.297372833E0,5.692550912E-4,1.047419384E-3,1.932246089E-1,1.932282863E-1
5.307328833E0,1.093271421E-4,1.701749861E-4,1.890748739E-1,1.890749821E-1
5.317284833E0,-2.398758661E-4,1.685906202E-3,1.922869682E-1,1.922945084E-1
5.327240833E0,-6.233709864E-4,-2.478146926E-4,1.867326796E-1,1.867338845E-1
5.337196833E0,-1.005846891E-3,8.392054588E-5,1.897388101E-1,1.897414947E-1
5.347152833E0,-2.845025621E-3,1.424822491E-3,1.919303238E-1,1.919566969E-1
5.357107833E0,-3.537772456E-3,1.987284515E-3,1.919359416E-1,1.919788290E-1
5.367063833E0,-8.836661000E-4,-1.578917727E-4,1.924587190E-1,1.924608124E-1
5.377019833E0,4.764967598E-4,3.496716730E-3,1.931013465E-1,1.931335913E-1
5.386975833E0,-2.169902436E-4,1.206276938E-4,1.904624104E-1,1.904625723E-1
5.396931833E0,-1.811699243E-3,1.726795919E-3,1.912316829E-1,1.912480604E-1
5.406887833E0,2.091074130E-4,-3.267675638E-4,1.917981356E-1,1.917985280E-1
5.416842833E0,-2.133100294E-3,1.430732664E-3,1.927163750E-1,1.927334904E-1
5.426798833E0,-1.239609788E-3,-3.370735794E-4,1.923174262E-1,1.923217166E-1
5.436754833E0,6.094956771E-4,3.072079271E-4,1.925679892E-1,1.925691988E-1
5.446710833E0,-1.249923371E-3,1.599373762E-3,1.909613013E-1,1.909720893E-1
5.456666833E0,-1.640788978E-4,-1.910032704E-3,1.895848811E-1,1.895945734E-1
5.466622833E0,-5.475740181E-4,1.528514549E-4,1.903745085E-1,1.903753574E-1
5.476578833E0,-3.782718908E-3,-3.345767036E-4,1.938691288E-1,1.939063176E-1
5.486533833E0,1.177465310E-4,9.996667504E-4,1.937732548E-1,1.937758691E-1
5.496489833E0,-1.593149500E-3,1.026066020E-4,1.913990676E-1,1.914057255E-1
5.506445833E0,4.750613589E-4,-1.898081973E-4,1.913154423E-1,1.913161263E-1
5.516401833E0,8.523387369E-4,-7.131164894E-4,1.921126992E-1,1.921159134E-1
5.526357833E0,-1.742112683E-3,-2.062806860E-3,1.943116635E-1,1.943304215E-1
5.536313833E0,-4.025598988E-3,-1.993633807E-3,1.940581053E-1,1.941100932E-1
5.546268833E0,-1.543799415E-3,1.379525755E-3,1.947902143E-1,1.948012166E-1
5.556224833E0,-2.028135117E-3,8.779205382E-4,1.963334978E-1,1.963459356E-1
5.566180833E0,6.324506830E-5,-3.383457661E-4,1.946250796E-1,1.946253840E-1
5.576136833E0,-1.819653087E-3,4.164772108E-4,1.921689957E-1,1.921780620E-1
5.586092833E0,1.095176791E-3,2.087610774E-3,1.910328865E-1,1.910474320E-1
5.596048833E0,8.906067815E-4,4.375642166E-4,1.898925304E-1,1.898951231E-1
5.606004833E0,1.438563922E-4,3.243796527E-4,1.873007566E-1,1.873010927E-1
5.615959833E0,-1.135048689E-3,2.172360662E-3,1.882713437E-1,1.882872974E-1
5.625915833E0,-7.060135249E-4,1.831475645E-3,1.890375465E-1,1.890477367E-1
5.635871833E0,-7.547003916E-4,1.150778495E-3,1.922399551E-1,1.922448808E-1
5.645827833E0,-1.063094358E-3,-1.262072474E-4,1.944730133E-1,1.944759599E-1
5.655783833E0,-1.204265398E-3,4.241997376E-4,1.923111081E-1,1.923153465E-1
5.665739833E0,-1.720242435E-4,2.179223113E-3,1.875823885E-1,1.875951254E-1
5.675694833E0,-2.341938904E-3,2.242653165E-3,1.875290722E-1,1.875571035E-1
5.685650833E0,-8.138169069E-4,2.048508730E-3,1.868931055E-1,1.869061036E-1
5.695606833E0,3.421818838E-4,1.637656707E-3,1.921012402E-1,1.921085253E-1
5.705562833E0,-4.011553712E-3,-2.537647262E-3,1.929859370E-1,1.930443060E-1
5.715518833E0,-3.829400521E-4,3.622146323E-4,1.952863187E-1,1.952870300E-1
5.725474833E0,5.680748727E-4,-8.543170989E-4,1.959582418E-1,1.959609275E-1
5.735430833E0,2.022269182E-3,3.411391750E-3,1.948410869E-1,1.948814416E-1
5.745385833E0,-2.012153622E-3,6.941687316E-4,1.906567216E-1,1.906686029E-1
5.755341833E0,6.934304256E-4,-1.176587306E-3,1.903414726E-1,1.903463722E-1
5.765297833E0,1.503031352E-3,-1.199490391E-3,1.847778559E-1,1.847878619E-1
5.775253833E0,-1.831548754E-3,-1.321004704E-3,1.852932423E-1,1.853070028E-1
5.785209833E0,-3.521626350E-4,-1.372137107E-3,1.898038387E-1,1.898091251E-1
5.795165833E0,1.716558356E-3,1.079309732E-5,1.928317547E-1,1.928393951E-1
5.805121833E0,-2.334109740E-3,-1.172715798E-3,1.942999512E-1,1.943175092E-1
5.815076833E0,-4.347632639E-4,6.123716012E-4,1.959995180E-1,1.960009569E-1
5.825032833E0,-3.826831700E-3,-1.088056713E-3,1.945417076E-1,1.945823849E-1
5.834988833E0,-2.423995174E-4,8.099302649E-4,1.931202710E-1,1.931221215E-1
5.844944833E0,-1.513526309E-3,3.015333787E-4,1.902363300E-1,1.902425897E-1
5.854900833E0,-2.542738337E-3,9.942259640E-4,1.912591457E-1,1.912786314E-1
5.864856833E0,3.878041171E-4,-6.076656282E-4,1.903515458E-1,1.903529108E-1
5.874811833E0,-3.327405779E-3,-2.080776729E-3,1.899119020E-1,1.899524461E-1
5.884767833E0,-9.899493307E-4,-2.359876409E-3,1.912269741E-1,1.912440970E-1
5.894723833E0,-1.593244029E-3,3.014998510E-4,1.938741505E-1,1.938809314E-1
5.904679833E0,-6.014828105E-4,3.121523187E-4,1.888005584E-1,1.888017746E-1
5.914635833E0,1.048663631E-3,-9.654387832E-4,1.901710927E-1,1.901764346E-1
5.924591833E0,-2.574833110E-3,4.572216421E-4,1.926094741E-1,1.926272263E-1
5.934547833E0,1.952968305E-4,-6.275326014E-4,1.897439361E-1,1.897450743E-1
5.944502833E0,-2.414867515E-3,4.760809243E-4,1.936819553E-1,1.936975944E-1
5.954458833E0,-1.486422727E-3,1.600970048E-3,1.918044686E-1,1.918169094E-1
5.964414833E0,-1.404611394E-4,2.289097756E-4,1.904380023E-1,1.904381917E-1
5.974370833E0,-6.908546202E-4,1.043523662E-3,1.896350980E-1,1.896392275E-1
5.984326833E0,9.781483095E-4,-3.425776958E-5,1.921150237E-1,1.921175169E-1
5.994282833E0,9.985727957E-4,5.279267207E-4,1.921687722E-1,1.921720918E-1
6.004238833E0,-1.869651489E-3,8.077360690E-6,1.873031706E-1,1.873125019E-1
6.014193833E0,-5.272906274E-4,1.641683746E-3,1.858036071E-1,1.858116077E-1
6.024149833E0,5.025536520E-4,-1.303772442E-3,1.860030740E-1,1.860083222E-1
6.034105833E0,1.174983336E-4,-4.005534574E-4,1.910559386E-1,1.910563946E-1
6.044061833E0,-1.558961580E-3,2.431329340E-4,1.948197782E-1,1.948261673E-1
6.054017833E0,7.243306609E-4,-1.961216331E-4,1.953914165E-1,1.953928575E-1
6.063973833E0,-2.061335836E-3,1.400177367E-3,1.950209588E-1,1.950368785E-1
6.073929833E0,-1.254309900E-3,2.229831181E-3,1.936662197E-1,1.936831177E-1
6.083884833E0,4.498468479E-4,-4.011057317E-4,1.899468452E-1,1.899478014E-1
6.093840833E0,-5.668727681E-6,9.133853018E-5,1.898549497E-1,1.898549718E-1
6.103796833E0,-6.301798858E-4,-9.957645088E-4,1.900863796E-1,1.900900324E-1
6.113752833E0,-9.815271478E-4,2.144570928E-3,1.880235076E-1,1.880382993E-1
6.123708958E0,7.982634706E-4,-1.228055917E-3,1.876349598E-1,1.876406765E-1
6.133664958E0,1.683770446E-3,-5.445806310E-4,1.896135807E-1,1.896218385E-1
6.143620958E0,-9.735317435E-4,1.921507064E-3,1.935793012E-1,1.935912855E-1
6.153575958E0,-1.785151893E-3,9.354939684E-4,1.964297146E-1,1.964400537E-1
6.163531958E0,-1.132943667E-3,-1.561352983E-4,1.957729906E-1,1.957763310E-1
6.173487958E0,-3.084062366E-3,-2.086535096E-4,1.916480213E-1,1.916729482E-1
6.183443958E0,-1.075772569E-3,-2.515297383E-4,1.856977195E-1,1.857010058E-1
6.193399958E0,1.176767750E-3,3.191431053E-3,1.808879375E-1,1.809199159E-1
6.203355958E0,9.469370125E-4,5.586296320E-4,1.844187677E-1,1.844220449E-1
6.213310958E0,-3.977823071E-4,-5.208533257E-4,1.841315627E-1,1.841327290E-1
6.223266958E0,-2.046012785E-3,-1.466795802E-4,1.867742240E-1,1.867854878E-1
6.233222958E0,-4.905723035E-4,3.018360585E-4,1.883166879E-1,1.883175688E-1
6.243178958E0,5.965301534E-4,4.882570356E-4,1.882112175E-1,1.882127962E-1
6.253134958E0,-2.881710418E-3,-8.328258991E-5,1.920714974E-1,1.920931319E-1
6.263090958E0,-9.016499389E-4,-2.303292975E-3,1.939759254E-1,1.939916951E-1
6.273046958E0,-5.758875050E-4,2.083635889E-3,1.984377056E-1,1.984494802E-1
6.283001958E0,-5.282168277E-4,-4.839180037E-4,1.945468187E-1,1.945481377E-1
6.292957958E0,-2.390520880E-3,-1.152246259E-3,1.915915161E-1,1.916098936E-1
6.302913958E0,2.938997000E-3,6.350018084E-4,1.911648661E-1,1.911885116E-1
6.312869958E0,-1.666510245E-3,-2.610161901E-4,1.912891865E-1,1.912966237E-1
6.322825958E0,-7.605028804E-4,-1.177144237E-3,1.919866651E-1,1.919917801E-1
6.332781958E0,-3.513556439E-4,-1.410022378E-4,1.934076101E-1,1.934079806E-1
6.342737958E0,-3.019044176E-3,-1.687234268E-3,1.939152032E-1,1.939460426E-1
6.352692958E0,-2.394018229E-4,-1.513296738E-4,1.932809651E-1,1.932811726E-1
6.362648958E0,-2.234109677E-3,1.176788472E-3,1.922433972E-1,1.922599799E-1
6.372604958E0,2.112990012E-3,7.216939703E-4,1.953827888E-1,1.953955468E-1
6.382560958E0,1.401393441E-3,1.182211563E-4,1.948003471E-1,1.948054237E-1
6.392516958E0,5.843965337E-4,1.677134074E-3,1.948307604E-1,1.948388552E-1
6.402472958E0,-1.416968880E-3,2.251577564E-3,1.948842853E-1,1.949024424E-1
6.412428958E0,-1.377646113E-3,8.668219671E-4,1.921507567E-1,1.921576504E-1
6.422383958E0,1.068201032E-3,-2.004864626E-3,1.911019981E-1,1.911154997E-1
6.432339958E0,2.774779219E-3,-1.715408638E-3,1.899933368E-1,1.900213410E-1
6.442295958E0,-1.846604515E-3,-2.484795637E-3,1.900471300E-1,1.900723435E-1
6.452251958E0,-1.181747299E-3,3.375189379E-3,1.920820624E-1,1.921153485E-1
6.462207958E0,-1.634484623E-3,6.451830268E-4,1.927523762E-1,1.927603858E-1
6.472163958E0,-2.811817452E-3,6.726719439E-4,1.922471821E-1,1.922689206E-1
6.482119958E0,-3.348113969E-4,1.472685952E-3,1.908836365E-1,1.908896110E-1
6.492074958E0,-1.551199239E-3,6.900923327E-4,1.915307790E-1,1.915383036E-1
6.502030958E0,-2.009263029E-3,-2.217013389E-3,1.889227480E-1,1.889464395E-1
6.511986958E0,-1.620988827E-3,1.070394181E-3,1.858455539E-1,1.858557054E-1
6.521942958E0,1.399568515E-3,4.293713719E-4,1.837954521E-1,1.838012823E-1
6.531898958E0,-4.986554850E-4,1.047687139E-3,1.852817237E-1,1.852853568E-1
6.541854958E0,-4.752196837E-4,1.432247926E-3,1.858058423E-1,1.858119700E-1
6.551810958E0,-1.442416804E-3,-5.903746933E-5,1.859547347E-1,1.859603383E-1
6.561765958E0,-1.627772814E-3,9.675789624E-5,1.887169629E-1,1.887240078E-1
6.571721958E0,-2.088865032E-3,-7.349159569E-5,1.894710213E-1,1.894825498E-1
6.581677958E0,-1.670215977E-3,1.615751069E-3,1.933680326E-1,1.933819958E-1
6.591633958E0,-2.806622069E-4,1.297124662E-3,1.926277280E-1,1.926322997E-1
6.601589958E0,-1.193860080E-3,-4.499088973E-4,1.926767379E-1,1.926809618E-1
6.611545958E0,-1.643511700E-3,-2.341963351E-3,1.955220997E-1,1.955430321E-1
6.621501958E0,-3.395871492E-3,-1.234887168E-3,1.925223023E-1,1.925562094E-1
6.631456958E0,-1.846489497E-3,-4.747062922E-4,1.919467598E-1,1.919562280E-1
6.641412958E0,1.235853182E-3,8.438248187E-4,1.906750947E-1,1.906809669E-1
6.651368958E0,-1.772809774E-3,1.708790194E-3,1.887719035E-1,1.887879614E-1
6.661324958E0,1.161701512E-4,-1.169553958E-3,1.897532791E-1,1.897569189E-1
6.671280958E0,-2.612181474E-3,6.260816008E-4,1.908895820E-1,1.909084807E-1
6.681236958E0,2.218792448E-3,-2.745746635E-3,1.931585968E-1,1.931908530E-1
6.691192958E0,-7.783889305E-4,9.288806468E-4,1.924747974E-1,1.924786127E-1
6.701148958E0,-1.940059476E-3,-2.437094226E-4,1.930119544E-1,1.930218583E-1
6.711103958E0,-8.628021460E-4,3.095613793E-4,1.926386654E-1,1.926408463E-1
6.721059958E0,-1.450802665E-4,-9.892620146E-4,1.909986883E-1,1.910013053E-1
6.731015958E0,-4.631844349E-4,-8.054831997E-4,1.914372891E-1,1.914395440E-1
6.740971958E0,-1.230441034E-3,5.194395781E-4,1.896883994E-1,1.896931013E-1
6.750927958E0,2.733747242E-4,-4.647467285E-4,1.890416741E-1,1.890424431E-1
6.760883958E0,-2.088849200E-3,-9.989365935E-5,1.902123988E-1,1.902238942E-1
6.770839958E0,-1.103387447E-3,5.007041618E-4,1.897860318E-1,1.897898998E-1
6.780794958E0,9.057013085E-4,2.026428934E-3,1.903812438E-1,1.903941824E-1
6.790750958E0,-1.085600117E-3,-1.096224412E-3,1.914727539E-1,1.914789694E-1
6.800706958E0,-2.953541465E-3,-1.836050302E-3,1.909329295E-1,1.909645990E-1
6.810662958E0,-3.256799653E-3,1.227936242E-3,1.884161681E-1,1.884483138E-1
6.820618958E0,2.280711196E-3,-1.016043127E-3,1.885687560E-1,1.885852850E-1
6.830574958E0,-1.974393614E-3,-7.180590183E-5,1.915540397E-1,1.915642282E-1
6.840530958E0,-2.321137115E-3,6.405897439E-4,1.896259189E-1,1.896412063E-1
6.850485958E0,-1.421593130E-3,-1.349300146E-3,1.899997592E-1,1.900098683E-1
6.860441958E0,-1.322523458E-3,-7.820473984E-4,1.916485280E-1,1.916546867E-1
6.870397958E0,4.768793005E-4,-6.296765059E-5,1.918352693E-1,1.918358724E-1
6.880353958E0,-8.517717943E-4,-1.678440720E-3,1.903694719E-1,1.903787764E-1
6.890309958E0,-1.211514231E-3,1.796530560E-4,1.908347160E-1,1.908386461E-1
6.900265958E0,-2.710341243E-3,1.408968586E-3,1.907263249E-1,1.907507855E-1
6.910221958E0,-1.360154711E-4,-3.448115662E-3,1.866913736E-1,1.867232631E-1
6.920176958E0,-1.211399911E-3,1.322404947E-3,1.874154955E-1,1.874240758E-1
6.930132958E0,-1.114694634E-3,1.629917882E-3,1.879626662E-1,1.879730381E-1
6.940088958E0,-2.705667168E-3,8.030058816E-4,1.873706430E-1,1.873918977E-1
6.950044958E0,-9.988893289E-4,5.214689299E-4,1.903344840E-1,1.903378194E-1
6.960000958E0,-1.954431646E-3,-2.421856858E-3,1.905387342E-1,1.905641478E-1
6.969956958E0,-1.831659349E-3,-1.643793657E-3,1.901655346E-1,1.901814596E-1
6.979912958E0,-2.393586328E-3,-1.143403351E-4,1.916997731E-1,1.917147499E-1
6.989867958E0,2.156052273E-3,-2.362512983E-3,1.902846247E-1,1.903115037E-1
6.999823958E0,-2.022980247E-3,-1.341722906E-3,1.916566789E-1,1.916720513E-1
7.009779958E0,-3.077622969E-4,5.109999329E-4,1.935148686E-1,1.935157880E-1
7.019735958E0,-2.326970920E-3,-1.268265769E-4,1.919657141E-1,1.919798590E-1
7.029691958E0,-2.931265626E-4,1.242781524E-3,1.900964379E-1,1.901007263E-1
7.039647958E0,-8.593266830E-5,1.341850962E-3,1.900442392E-1,1.900489958E-1
7.049603958E0,-9.967691731E-4,1.840120647E-3,1.914364249E-1,1.914478633E-1
7.059559958E0,-3.336421214E-4,-1.736771315E-3,1.889586300E-1,1.889669059E-1
7.069514958E0,-7.809144445E-4,1.339490991E-3,1.904359460E-1,1.904422579E-1
7.079470958E0,4.786136560E-5,-9.089242667E-5,1.897917241E-1,1.897917519E-1
7.089426958E0,1.114514540E-3,1.283404417E-3,1.888791621E-1,1.888868104E-1
7.099382958E0,7.328835782E-4,9.148232639E-4,1.894626617E-1,1.894662878E-1
7.109338958E0,-8.269702084E-5,1.172313932E-3,1.893222183E-1,1.893258659E-1
7.119294750E0,9.061346063E-4,1.738946885E-4,1.885291189E-1,1.885313767E-1
7.129250750E0,-1.334714470E-3,2.823984250E-3,1.898058355E-1,1.898315346E-1
7.139205750E0,-6.731853355E-4,-1.381413080E-3,1.890798658E-1,1.890861104E-1
7.149161750E0,1.856321469E-4,-1.553530805E-3,1.921098828E-1,1.921162539E-1
7.159117750E0,-1.047943952E-3,-3.961212933E-4,1.906776428E-1,1.906809339E-1
7.169073750E0,4.095714539E-4,3.704782575E-4,1.896528006E-1,1.896536047E-1
7.179029750E0,-2.990956418E-4,-1.447928138E-3,1.886466593E-1,1.886524529E-1
7.188985750E0,-2.177124377E-3,-2.169706859E-3,1.892304271E-1,1.892553884E-1
7.198941750E0,-2.639981918E-3,2.215187531E-3,1.885172278E-1,1.885487251E-1
7.208897750E0,-3.113210201E-3,-1.187296584E-4,1.880391091E-1,1.880649163E-1
7.218852750E0,-1.522237668E-3,1.916191541E-3,1.873567998E-1,1.873727820E-1
7.228808750E0,-1.292944886E-3,2.032369375E-4,1.896264851E-1,1.896310019E-1
7.238764750E0,-3.792054951E-3,-3.480371088E-4,1.929144263E-1,1.929520062E-1
7.248720750E0,-1.954765059E-3,7.313378155E-4,1.912306249E-1,1.912420139E-1
7.258676750E0,-2.809107304E-3,4.570325837E-4,1.907166392E-1,1.907378736E-1
7.268632750E0,-2.706157975E-3,1.472843811E-3,1.933108121E-1,1.933353631E-1
7.278588750E0,1.452634344E-3,-4.984280095E-4,1.924852282E-1,1.924913547E-1
7.288543750E0,-8.932102937E-4,-7.768720388E-5,1.921985149E-1,1.922006062E-1
7.298499750E0,-1.140351640E-3,-2.610619180E-3,1.960651726E-1,1.960858680E-1
7.308455750E0,-1.268456690E-3,-1.478982158E-3,1.953531802E-1,1.953628966E-1
7.318411750E0,-1.624254975E-3,8.022813126E-4,1.993130296E-1,1.993212624E-1
7.328367750E0,-1.919729635E-3,-5.511483178E-4,1.933174580E-1,1.933277753E-1
7.338323750E0,-6.339557003E-4,-6.374344230E-4,1.903528273E-1,1.903549503E-1
7.348279750E0,1.063759904E-3,2.449365333E-3,1.856711656E-1,1.856903678E-1
7.358234750E0,-1.211378723E-3,1.045879442E-3,1.875034124E-1,1.875102423E-1
7.368190750E0,2.757746028E-3,-4.061274230E-4,1.853016764E-1,1.853226413E-1
7.378146750E0,3.493843600E-3,-2.585126087E-3,1.889632493E-1,1.890132255E-1
7.388102750E0,3.839264391E-4,-5.164332688E-4,1.892581284E-1,1.892592224E-1
7.398058750E0,8.675564313E-4,1.496383920E-3,1.898341626E-1,1.898420425E-1
7.408014750E0,-1.623184886E-3,-4.697898403E-4,1.879245192E-1,1.879321163E-1
7.417970750E0,-1.492423937E-3,7.771020755E-4,1.883122772E-1,1.883197944E-1
7.427926750E0,2.346243011E-3,-3.668265417E-4,1.903916746E-1,1.904064841E-1
7.437881750E0,-1.249290770E-3,-9.873434901E-4,1.884081513E-1,1.884148801E-1
7.447837750E0,-1.536950702E-3,3.245921340E-3,1.935372353E-1,1.935705547E-1
7.457793750E0,-9.140374605E-4,-1.602096483E-3,1.934453547E-1,1.934541481E-1
7.467749750E0,-1.098632347E-3,-1.144735143E-4,1.933346689E-1,1.933378243E-1
7.477705750E0,4.049884155E-4,1.927638892E-3,1.956031471E-1,1.956130644E-1
7.487661750E0,-3.761940170E-3,-6.927363575E-5,1.956342757E-1,1.956704546E-1
7.497617750E0,-1.479078317E-3,1.042329706E-3,1.923647076E-1,1.923732176E-1
7.507573750E0,-9.425696917E-4,-6.805760786E-4,1.893074960E-1,1.893110658E-1
7.517528750E0,3.922067117E-4,-3.158114851E-3,1.843090206E-1,1.843364929E-1
7.527484750E0,-2.198456787E-5,-3.526350483E-4,1.834992468E-1,1.834995870E-1
7.537440750E0,9.546079673E-5,3.232751042E-4,1.877376586E-1,1.877379612E-1
7.547396750E0,-1.175753539E-3,-1.200595871E-4,1.867624819E-1,1.867662214E-1
7.557352750E0,-2.505736193E-3,-2.608783543E-3,1.899279207E-1,1.899623634E-1
7.567308750E0,-1.910452032E-3,-6.814394146E-5,1.927527636E-1,1.927622431E-1
7.577264750E0,-1.019624760E-3,-4.896894097E-5,1.951261759E-1,1.951288460E-1
7.587219750E0,-3.887530416E-3,2.532536164E-4,1.947077960E-1,1.947467659E-1
7.597175750E0,-1.011316432E-3,-1.267411746E-3,1.956628114E-1,1.956695297E-1
7.607131750E0,5.785026588E-5,4.468997940E-4,1.948464364E-1,1.948469575E-1
7.617087750E0,-2.529410645E-3,-6.375396624E-4,1.949215382E-1,1.949389916E-1
7.627043750E0,5.736752646E-4,-1.001823694E-4,1.922195107E-1,1.922203928E-1
7.636999750E0,9.065704653E-4,8.969046175E-4,1.912029833E-1,1.912072360E-1
7.646955750E0,-1.651050989E-3,-5.922475830E-4,1.948034018E-1,1.948112987E-1
7.656911750E0,-7.605738938E-5,1.239208505E-3,1.932790130E-1,1.932830006E-1
7.666866750E0,-4.979341757E-4,1.213261858E-4,1.936262399E-1,1.936269182E-1
7.676822750E0,-2.561084926E-3,7.429076359E-4,1.913726777E-1,1.913912559E-1
7.686778750E0,-1.605223166E-3,-2.207387239E-3,1.910941601E-1,1.911136503E-1
7.696734750E0,-4.478134215E-4,-1.348516904E-3,1.914922893E-1,1.914975611E-1
7.706690750E0,-1.388636651E-3,2.590017393E-4,1.915234625E-1,1.915286717E-1
7.716646750E0,-4.998818040E-3,-2.858815715E-4,1.931903213E-1,1.932551944E-1
7.726602750E0,-2.324210480E-3,-1.219866797E-3,1.928637773E-1,1.928816389E-1
7.736558750E0,-2.607304603E-3,1.436902676E-3,1.936470121E-1,1.936698945E-1
7.746513750E0,-2.539406065E-3,-2.419635653E-3,1.930372566E-1,1.930691214E-1
7.756469750E0,-1.811297610E-3,3.444589674E-4,1.914073974E-1,1.914162773E-1
7.766425750E0,-1.268923515E-3,-2.515046857E-3,1.899617761E-1,1.899826624E-1
7.776381750E0,-2.756298985E-3,8.144369349E-4,1.910989434E-1,1.911205553E-1
7.786337750E0,-5.704760551E-4,7.319794968E-4,1.904801875E-1,1.904824482E-1
7.796293750E0,6.276800996E-4,-2.749618143E-4,1.873309910E-1,1.873322444E-1
7.806249750E0,2.251712140E-4,-8.066175506E-4,1.873486787E-1,1.873505504E-1
7.816204750E0,-1.907221740E-3,1.347879414E-3,1.855236143E-1,1.855383134E-1
7.826160750E0,-1.257618424E-4,1.524151769E-3,1.883240491E-1,1.883302587E-1
7.836116750E0,-6.879551802E-4,6.144158542E-4,1.873155236E-1,1.873177946E-1
7.846072750E0,-1.538048964E-3,-9.983303025E-4,1.889115870E-1,1.889204858E-1
7.856028750E0,-1.361747738E-3,-3.391979262E-4,1.894173175E-1,1.894225160E-1
7.865984750E0,-4.211692140E-4,-2.215557732E-3,1.911762357E-1,1.911895373E-1
7.875940750E0,-1.270451350E-3,2.001291141E-3,1.943757534E-1,1.943902074E-1
7.885896750E0,4.010355333E-4,2.096004784E-3,1.932579726E-1,1.932697546E-1
7.895851750E0,-1.530555310E-3,-1.579424366E-3,1.921149343E-1,1.921275232E-1
7.905807750E0,-7.518636994E-5,-1.230109483E-3,1.895819008E-1,1.895859065E-1
7.915763750E0,-1.519684913E-3,-1.710277982E-3,1.909198761E-1,1.909335842E-1
7.925719750E0,-6.123282947E-5,1.279489603E-3,1.891819388E-1,1.891862754E-1
7.935675750E0,2.370233182E-3,2.807006240E-5,1.871161312E-1,1.871311448E-1
7.945631750E0,-4.376005381E-4,1.846183091E-3,1.876179725E-1,1.876275659E-1
7.955587750E0,-6.450607907E-4,-1.518188044E-3,1.869449914E-1,1.869522687E-1
7.965543750E0,7.453648141E-4,9.774407372E-4,1.872076988E-1,1.872117343E-1
7.975499750E0,7.855786243E-4,8.272388950E-4,1.916274726E-1,1.916308684E-1
7.985454750E0,-2.160239965E-4,3.899820149E-4,1.886773854E-1,1.886779121E-1
7.995410750E0,-1.726036426E-3,1.580681186E-3,1.906766146E-1,1.906909781E-1
8.005366750E0,-5.105917808E-4,-8.445661515E-4,1.939666867E-1,1.939691974E-1
8.015322750E0,-1.876260620E-3,-4.070093855E-4,1.918140650E-1,1.918236730E-1
8.025278750E0,8.818646893E-5,2.787670121E-3,1.902860850E-1,1.903065239E-1
8.035234750E0,-6.476449780E-4,-3.591207787E-4,1.892676950E-1,1.892691437E-1
8.045190750E0,2.257991582E-4,-8.833911270E-4,1.935848892E-1,1.935870364E-1
8.055145750E0,-1.260777237E-3,2.517732326E-3,1.923819482E-1,1.924025534E-1
8.065101750E0,-2.220930066E-3,-2.505119890E-3,1.944188923E-1,1.944477149E-1
8.075057750E0,1.316014328E-3,-7.628798485E-4,1.939592361E-1,1.939652009E-1
8.085013750E0,1.012214110E-3,-9.574694559E-4,1.908428073E-1,1.908478934E-1
8.094969750E0,1.226598513E-3,4.236456007E-4,1.901349425E-1,1.901393710E-1
8.104925750E0,-1.451445278E-3,2.081431448E-4,1.913686246E-1,1.913742420E-1
8.114881750E0,1.572307898E-3,5.759261549E-4,1.898887008E-1,1.898960836E-1
8.124837833E0,1.727453899E-3,-2.502216026E-3,1.878360361E-1,1.878606442E-1
8.134792833E0,-1.049424056E-3,8.797319606E-4,1.903436780E-1,1.903486038E-1
8.144748833E0,6.231316365E-5,7.327608764E-4,1.883629113E-1,1.883643469E-1
8.154704833E0,-1.620005351E-3,2.472870052E-3,1.915509850E-1,1.915737961E-1
8.164660833E0,-2.362360479E-3,3.594551235E-4,1.887427419E-1,1.887578676E-1
8.174616833E0,9.014480747E-5,1.304078847E-3,1.888479292E-1,1.888524533E-1
8.184572833E0,2.603884786E-5,-7.848395035E-4,1.886051595E-1,1.886067943E-1
8.194528833E0,-7.904863451E-4,-6.567407399E-4,1.865113825E-1,1.865142138E-1
8.204484833E0,-8.166469634E-4,8.968133479E-4,1.868826896E-1,1.868866257E-1
8.214439833E0,1.279793447E-3,1.762606669E-3,1.892068237E-1,1.892193616E-1
8.224395833E0,2.359919716E-3,-3.429213539E-4,1.892513335E-1,1.892663574E-1
8.234351833E0,-1.320568845E-3,6.128866225E-4,1.910529733E-1,1.910585202E-1
8.244307833E0,7.112044841E-5,4.218099639E-4,1.917723566E-1,1.917728337E-1
8.254263833E0,3.443607129E-4,-6.807390600E-4,1.922333390E-1,1.922348527E-1
8.264219833E0,-1.150662545E-3,1.241900027E-4,1.901756823E-1,1.901792039E-1
8.274175833E0,2.472307533E-4,-1.282775775E-4,1.900217533E-1,1.900219574E-1
8.284131833E0,-8.917842060E-4,2.638977021E-4,1.879347414E-1,1.879370425E-1
8.294086833E0,-2.021230757E-3,1.916388981E-3,1.917880625E-1,1.918082866E-1
8.304042833E0,-9.808700997E-4,5.333386362E-4,1.898645014E-1,1.898677841E-1
8.313998833E0,-2.313782228E-3,3.453195095E-4,1.904738396E-1,1.904882055E-1
8.323954833E0,-4.784059711E-3,-4.185503349E-4,1.878534108E-1,1.879147849E-1
8.333910833E0,-3.988984972E-4,-1.537344418E-3,1.896539778E-1,1.896606280E-1
8.343866833E0,-2.101553371E-3,5.049211904E-4,1.907318980E-1,1.907441437E-1
8.353822833E0,-1.352672465E-3,2.178316936E-4,1.907039285E-1,1.907088501E-1
8.363778833E0,2.123743761E-4,-3.385609016E-4,1.909413338E-1,1.909417520E-1
8.373734833E0,-1.104006078E-4,-1.284515485E-3,1.900318712E-1,1.900362445E-1
8.383689833E0,-5.178696010E-4,4.242509604E-4,1.926503927E-1,1.926515558E-1
8.393645833E0,-3.935237881E-3,3.116857260E-5,1.937374920E-1,1.937774571E-1
8.403601833E0,-2.684035804E-3,3.326321021E-4,1.941153407E-1,1.941341809E-1
8.413557833E0,-1.738613471E-3,-6.417836994E-5,1.945683509E-1,1.945761292E-1
8.423513833E0,1.233962830E-3,-8.779596537E-4,1.956801713E-1,1.956860314E-1
8.433469833E0,4.051870201E-4,8.738674223E-4,1.898142844E-1,1.898167285E-1
8.443425833E0,6.973198615E-4,5.210125819E-4,1.885714382E-1,1.885734473E-1
8.453381833E0,3.125323914E-3,3.436459228E-4,1.862294525E-1,1.862559924E-1
8.463336833E0,-1.627169782E-3,4.511401057E-4,1.864800155E-1,1.864876602E-1
8.473292833E0,-2.048215596E-3,-2.206694335E-3,1.873774976E-1,1.874016843E-1
8.483248833E0,-9.804335423E-4,-1.751544885E-3,1.877038926E-1,1.877146250E-1
8.493204833E0,9.490266675E-4,-1.029561274E-3,1.857991964E-1,1.858044725E-1
8.503160833E0,1.188423485E-3,-3.282912076E-5,1.869870722E-1,1.869908517E-1
8.513116833E0,-3.026805352E-4,-3.390926868E-4,1.889266521E-1,1.889271988E-1
8.523072833E0,-2.013436053E-3,-2.284264192E-4,1.854719520E-1,1.854830210E-1
8.533028833E0,-1.277072122E-3,-1.612205058E-3,1.859433353E-1,1.859547097E-1
8.542983833E0,1.870258595E-3,-1.368187368E-4,1.824873984E-1,1.824970333E-1
8.552939833E0,1.859339653E-3,-2.626873553E-3,1.846179217E-1,1.846459711E-1
8.562895833E0,-1.466847491E-3,1.059807837E-3,1.871515512E-1,1.871603002E-1
8.572851833E0,-2.620528918E-3,1.448895782E-3,1.850577742E-1,1.850819987E-1
8.582807833E0,-4.014789592E-4,1.195431687E-3,1.865426451E-1,1.865469075E-1
8.592763833E0,-1.297899056E-3,-2.269623801E-4,1.859266460E-1,1.859313146E-1
8.602719833E0,2.268637065E-3,1.085927710E-3,1.824865341E-1,1.825038660E-1
8.612675833E0,-5.577756092E-4,1.639865339E-3,1.854844689E-1,1.854925564E-1
8.622631833E0,-1.034548972E-3,-2.293331549E-3,1.841281056E-1,1.841452930E-1
8.632586833E0,-2.716335235E-3,-1.169964671E-4,1.828615069E-1,1.828817183E-1
8.642542833E0,2.160717035E-3,-2.455289476E-3,1.830976307E-1,1.831268400E-1
8.652498833E0,-4.832211416E-3,-1.317321323E-3,1.826904416E-1,1.827590847E-1
8.662454833E0,1.510555623E-3,1.044353470E-3,1.829972267E-1,1.830064410E-1
8.672410833E0,1.167007955E-3,-1.354264095E-4,1.800746769E-1,1.800785093E-1
8.682366833E0,6.162266945E-4,-1.307598315E-3,1.804641932E-1,1.804699825E-1
8.692322833E0,-7.752748206E-4,1.244509127E-3,1.790082455E-1,1.790142503E-1
8.702278833E0,3.633121960E-4,1.083916519E-3,1.802849621E-1,1.802885865E-1
8.712233833E0,-1.978405286E-3,1.207753550E-3,1.809041500E-1,1.809189991E-1
8.722189833E0,4.123474937E-4,-2.130086534E-3,1.761772037E-1,1.761905627E-1
8.732145833E0,-3.860681318E-4,1.123763155E-3,1.792717874E-1,1.792757252E-1
8.742101833E0,-9.422190487E-5,8.869636804E-5,1.781604588E-1,1.781605058E-1
8.752057833E0,-1.260420075E-3,1.152895857E-3,1.776296943E-1,1.776379074E-1
8.762013833E0,-3.718032967E-4,-2.451080829E-3,1.779225767E-1,1.779398475E-1
8.771969833E0,-1.555578317E-3,-9.967284277E-4,1.756248027E-1,1.756345200E-1
8.781925833E0,1.633932348E-3,5.118623376E-4,1.752802432E-1,1.752886060E-1
8.791881833E0,-3.427671734E-3,-4.439456388E-4,1.762677431E-1,1.763016259E-1
8.801836833E0,1.371808467E-3,1.411155798E-3,1.770363301E-1,1.770472688E-1
8.811792833E0,1.733859535E-4,-1.035223715E-3,1.744469404E-1,1.744500982E-1
8.821748833E0,-1.442729495E-3,2.201447729E-3,1.776102930E-1,1.776297949E-1
8.831704833E0,-2.461122349E-3,1.419335604E-5,1.783951223E-1,1.784120988E-1
8.841660833E0,1.044629025E-3,-1.261219382E-3,1.779495329E-1,1.779570683E-1
8.851616833E0,4.776420537E-4,-1.338184811E-3,1.786773652E-1,1.786830146E-1
8.861572833E0,1.624552533E-4,2.986316103E-3,1.828333437E-1,1.828578028E-1
8.871528833E0,-3.412305610E-3,3.905324265E-4,1.816623509E-1,1.816948158E-1
8.881483833E0,7.894097362E-4,-5.971509963E-4,1.830583215E-1,1.830609975E-1
8.891439833E0,1.086618518E-3,-5.681226030E-4,1.802966297E-1,1.803007991E-1
8.901395833E0,5.401722156E-4,5.602007732E-4,1.874649525E-1,1.874665677E-1
8.911351833E0,1.300238306E-3,-1.409207471E-3,1.893752366E-1,1.893849433E-1
8.921307833E0,-4.785847850E-4,-5.497578532E-4,1.978011578E-1,1.978025008E-1
8.931263833E0,-1.376869157E-3,-6.411038339E-4,1.997860223E-1,1.997917954E-1
8.941219833E0,-1.316660782E-3,1.205445733E-3,1.986674368E-1,1.986754569E-1
8.951175833E0,-3.603196237E-4,3.401851282E-4,1.982937902E-1,1.982944094E-1
8.961131833E0,-1.077015884E-3,-1.350907609E-3,1.956286579E-1,1.956362868E-1
8.971086833E0,-1.004045364E-3,2.824086696E-4,1.929918677E-1,1.929946861E-1
8.981042833E0,-1.241381979E-3,2.434290946E-4,1.924658865E-1,1.924700438E-1
8.990998833E0,1.049469225E-3,-3.674998879E-4,1.872889698E-1,1.872922706E-1
9.000954833E0,-1.084151911E-3,-2.077102661E-3,1.873206645E-1,1.873353173E-1
9.010910833E0,3.409055062E-4,2.667319030E-3,1.864593923E-1,1.864787811E-1
9.020866833E0,-6.550860126E-4,-5.171615630E-4,1.859229803E-1,1.859248536E-1
9.030822833E0,1.881841104E-3,-2.716134302E-3,1.861552000E-1,1.861845246E-1
9.040778833E0,-1.025502570E-5,-1.353707165E-3,1.842026412E-1,1.842076157E-1
9.050734833E0,1.934917644E-3,-5.773957819E-4,1.878612936E-1,1.878721451E-1
9.060689833E0,-1.997980289E-4,-6.793607026E-4,1.864547133E-1,1.864560580E-1
9.070645833E0,-9.998118039E-4,1.891388558E-3,1.904814094E-1,1.904934233E-1
9.080601833E0,1.686864998E-4,-1.441105269E-3,1.939624250E-1,1.939678518E-1
9.090557833E0,1.449843403E-4,-5.518756807E-4,1.961414218E-1,1.961422518E-1
9.100513833E0,1.676077954E-5,-2.443909645E-3,1.972361356E-1,1.972512767E-1
9.110469833E0,-2.612311626E-3,1.263068989E-4,1.991402954E-1,1.991574688E-1
9.120425583E0,-4.592418671E-3,7.626386359E-4,1.943589598E-1,1.944147041E-1
9.130381583E0,2.548847580E-3,2.177310176E-3,1.923352331E-1,1.923644437E-1
9.140336583E0,1.307578408E-3,2.367595211E-3,1.895136088E-1,1.895329079E-1
9.150292583E0,4.130227026E-4,1.868698746E-5,1.883474141E-1,1.883478679E-1
9.160248583E0,-3.087764606E-3,2.447177190E-3,1.890142709E-1,1.890553294E-1
9.170204583E0,-1.396391075E-3,1.379502937E-4,1.895556897E-1,1.895608832E-1
9.180160583E0,-1.757310703E-3,-4.610316828E-4,1.889088750E-1,1.889176110E-1
9.190116583E0,-7.860560436E-4,-2.253418788E-4,1.942788661E-1,1.942805869E-1
9.200072583E0,2.533998340E-4,-9.155431762E-4,1.914464831E-1,1.914488400E-1
9.210028583E0,-6.091981195E-4,-4.028845578E-4,1.927508861E-1,1.927522698E-1
9.219984583E0,2.638204023E-6,-2.933818847E-3,1.912855804E-1,1.913080776E-1
9.229939583E0,3.863996826E-4,3.032535315E-4,1.878969669E-1,1.878976090E-1
9.239895583E0,-2.249064855E-4,2.262862399E-4,1.862441450E-1,1.862444183E-1
9.249851583E0,-1.208145404E-3,-5.668029189E-4,1.881925166E-1,1.881972480E-1
9.259807583E0,1.729204669E-3,-1.500397921E-4,1.878339648E-1,1.878419841E-1
9.269763583E0,5.257222801E-4,-3.662882373E-4,1.930798590E-1,1.930809222E-1
9.279719583E0,-9.327232838E-4,9.808456525E-4,1.947739422E-1,1.947786451E-1
9.289675583E0,-2.955660457E-3,-3.600558266E-4,1.937816590E-1,1.938045328E-1
9.299631583E0,-2.001853660E-3,-6.504813209E-4,1.948843002E-1,1.948956670E-1
9.309587583E0,-1.904115546E-3,-1.092832536E-3,1.935857534E-1,1.935982021E-1
9.319542583E0,1.831909176E-4,-1.524393447E-3,1.922490597E-1,1.922551905E-1
9.329498583E0,7.970494917E-4,1.469798852E-3,1.891957372E-1,1.892031252E-1
9.339454583E0,9.264540859E-5,-1.501079649E-3,1.917262673E-1,1.917321658E-1
9.349410583E0,1.645801007E-3,-2.440377139E-3,1.902695149E-1,1.902922815E-1
9.359366583E0,2.424693666E-4,3.342516720E-5,1.902140826E-1,1.902142401E-1
9.369322583E0,-5.977577530E-4,8.329059929E-4,1.906028986E-1,1.906056557E-1
9.379278583E0,-1.046732301E-3,-6.996598095E-4,1.911045909E-1,1.911087382E-1
9.389234583E0,-1.242740778E-3,-1.268510707E-3,1.938417852E-1,1.938499193E-1
9.399190583E0,5.201576278E-4,-4.541771486E-4,1.928366572E-1,1.928378935E-1
9.409145583E0,-2.867383417E-3,-4.557752982E-4,1.927325279E-1,1.927543953E-1
9.419101583E0,-7.634735666E-4,-1.605822705E-3,1.892236024E-1,1.892319563E-1
9.429057583E0,-1.270805718E-3,1.163065899E-3,1.904451996E-1,1.904529908E-1
9.439013583E0,5.618191790E-4,1.104969531E-3,1.884396225E-1,1.884436996E-1
9.448969583E0,-1.050991239E-3,3.544427454E-5,1.879618466E-1,1.879647882E-1
9.458925583E0,1.508436399E-3,-5.179159343E-4,1.926739961E-1,1.926805968E-1
9.468881583E0,-1.213580603E-3,2.282930538E-3,1.938356608E-1,1.938529029E-1
9.478837583E0,6.962760817E-4,-7.766112685E-5,1.963950098E-1,1.963962594E-1
9.488793583E0,-1.397501212E-3,7.511153817E-4,1.953902096E-1,1.953966509E-1
9.498748583E0,1.539113931E-3,1.695584040E-3,1.979295760E-1,1.979428224E-1
9.508704583E0,1.459751627E-3,-8.474681526E-4,1.959183663E-1,1.959256373E-1
9.518660583E0,-8.091786876E-4,8.696196601E-4,1.935679615E-1,1.935716062E-1
9.528616583E0,-5.588415079E-4,-1.007908955E-3,1.884658784E-1,1.884694020E-1
9.538572583E0,-1.025493257E-3,5.091195926E-4,1.862314790E-1,1.862349984E-1
9.548528583E0,-5.343928933E-5,1.088464633E-4,1.829845607E-1,1.829846009E-1
9.558484583E0,-1.828467939E-4,4.025148228E-4,1.845500171E-1,1.845505467E-1
9.568440583E0,-6.457043346E-4,-4.369141534E-4,1.874576658E-1,1.874592870E-1
9.578396583E0,4.127821885E-4,-1.168410294E-3,1.888860017E-1,1.888900665E-1
9.588352583E0,-2.190724015E-3,8.358843625E-4,1.919305325E-1,1.919448547E-1
9.598307583E0,1.383828814E-3,1.683928072E-3,1.957280487E-1,1.957401840E-1
9.608263583E0,-2.045603469E-5,-1.002668403E-3,1.939264238E-1,1.939290169E-1
9.618219583E0,1.956245396E-4,1.001294702E-3,1.934978217E-1,1.935005113E-1
9.628175583E0,-1.320513198E-3,1.429530792E-3,1.929180473E-1,1.929278629E-1
9.638131583E0,-2.448854502E-3,-5.223257467E-4,1.914625615E-1,1.914789340E-1
9.648087583E0,-2.939142287E-3,1.420982648E-3,1.898944974E-1,1.899225576E-1
9.658043583E0,-2.289895667E-3,3.426999785E-3,1.903977394E-1,1.904423459E-1
9.667999583E0,-2.493094886E-3,2.126844600E-3,1.958841085E-1,1.959115182E-1
9.677955583E0,-1.152496552E-3,1.337788999E-4,1.954280138E-1,1.954314579E-1
9.687910583E0,-7.831160910E-4,-7.389383391E-4,1.941523701E-1,1.941553556E-1
9.697866583E0,-1.226072200E-4,1.559402794E-3,1.948218793E-1,1.948281587E-1
9.707822583E0,-1.345914789E-4,2.861451358E-4,1.911198199E-1,1.911200815E-1
9.717778583E0,4.675788805E-4,4.208199680E-4,1.878420115E-1,1.878430648E-1
9.727734583E0,-1.572402427E-3,-1.132335514E-3,1.851463467E-1,1.851564860E-1
9.737690583E0,-1.379032852E-3,-2.953084186E-4,1.854483485E-1,1.854537110E-1
9.747646583E0,-4.485244863E-4,4.618279636E-4,1.817380339E-1,1.817391742E-1
9.757602583E0,1.136225532E-3,-5.479315296E-4,1.822110713E-1,1.822154377E-1
9.767558583E0,4.741635639E-4,1.486190595E-3,1.868500262E-1,1.868565383E-1
9.777513583E0,-1.505797263E-4,-2.533484250E-3,1.949547231E-1,1.949712422E-1
9.787469583E0,-2.845432609E-3,1.066310331E-3,1.969952285E-1,1.970186630E-1
9.797425583E0,-2.130252309E-3,-1.207211986E-3,1.969274729E-1,1.969426946E-1
9.807381583E0,-1.097212080E-3,-9.936261922E-4,1.924160868E-1,1.924217805E-1
9.817337583E0,-2.044280292E-3,-8.429950103E-4,1.886738688E-1,1.886868265E-1
9.827293583E0,-1.183280488E-3,1.109900884E-3,1.870043427E-1,1.870113799E-1
9.837249583E0,-9.911479428E-4,1.374855638E-4,1.855552495E-1,1.855579475E-1
9.847205583E0,-9.754353669E-4,1.181178261E-3,1.862300932E-1,1.862363936E-1
9.857161583E0,-8.129626513E-4,-1.107412390E-3,1.890004873E-1,1.890054800E-1
9.867116583E0,-7.937878836E-4,6.357952952E-5,1.947265416E-1,1.947281699E-1
9.877072583E0,-2.104479354E-4,7.710186765E-4,1.953474283E-1,1.953490632E-1
9.887028583E0,1.741915359E-3,2.063983586E-3,1.910251230E-1,1.910442146E-1
9.896984583E0,-1.127329422E-3,-1.520474441E-3,1.918086708E-1,1.918180098E-1
9.906940583E0,2.592041157E-3,-1.952853054E-4,1.893926561E-1,1.894104934E-1
9.916896583E0,-1.053015934E-3,2.855313942E-4,1.836633980E-1,1.836666386E-1
9.926852583E0,1.669533667E-3,-3.048917279E-4,1.829145104E-1,1.829223836E-1
9.936808583E0,1.275687362E-3,6.623556837E-4,1.847920418E-1,1.847976320E-1
9.946764583E0,1.262105186E-3,-1.651665196E-3,1.878858358E-1,1.878973342E-1
9.956720583E0,-1.220570412E-4,3.942344338E-4,1.952491701E-1,1.952496062E-1
9.966675583E0,-2.565240953E-3,-4.768855870E-4,2.012029290E-1,2.012198463E-1
9.976631583E0,-2.548367251E-3,-4.391930997E-5,1.974620968E-1,1.974785451E-1
9.986587583E0,-1.339292154E-3,-9.999936447E-4,1.937347353E-1,1.937419452E-1
9.996543583E0,-1.005155500E-3,6.100013852E-4,1.881651431E-1,1.881688166E-1
1.000649958E1,1.858100295E-4,-2.516017295E-3,1.879438311E-1,1.879607632E-1
1.001645558E1,-1.175217796E-3,7.218150422E-4,1.855567992E-1,1.855619246E-1
1.002641158E1,-3.099618014E-3,-5.615623668E-4,1.840790063E-1,1.841059574E-1
1.003636758E1,-1.143257832E-3,1.272093505E-5,1.858048439E-1,1.858083615E-1
1.004632358E1,1.505788416E-3,-2.141243778E-3,1.904363483E-1,1.904543386E-1
1.005627858E1,-6.143564824E-4,-7.783621550E-5,1.941028237E-1,1.941038116E-1
1.006623458E1,2.042991109E-4,2.027925104E-3,1.990107596E-1,1.990211965E-1
1.007619058E1,-8.224216290E-4,1.264990307E-3,1.984542757E-1,1.984600114E-1
1.008614658E1,-2.408334054E-3,-1.160883345E-3,1.970425248E-1,1.970606615E-1
1.009610258E1,-5.934131332E-5,1.340747811E-3,1.933555454E-1,1.933602029E-1
1.010605858E1,5.830130540E-4,1.183059067E-5,1.874766201E-1,1.874775270E-1
1.011601458E1,1.031234628E-3,1.143004280E-3,1.870399714E-1,1.870463065E-1
1.012597096E1,-1.872143475E-3,1.117703971E-3,1.857747138E-1,1.857875089E-1
1.013592696E1,-8.000971284E-4,-7.723551244E-4,1.855646223E-1,1.855679545E-1
1.014588296E1,-2.150319982E-3,-6.722202525E-4,1.861891448E-1,1.862027750E-1
1.015583796E1,1.375107560E-3,-9.137112647E-5,1.856433451E-1,1.856484604E-1
1.016579396E1,-3.079561982E-3,1.847986132E-4,1.905185282E-1,1.905435054E-1
1.017574996E1,-1.169449650E-3,1.492410898E-3,1.934849918E-1,1.934942814E-1
1.018570596E1,-7.753015961E-4,-1.540130936E-3,1.963849068E-1,1.963924762E-1
1.019566196E1,-1.425128430E-3,-1.729832031E-3,1.956397891E-1,1.956526268E-1
1.020561796E1,-1.556954812E-3,7.072268054E-4,1.945265979E-1,1.945341141E-1
1.021557396E1,4.262656439E-4,-4.546782002E-4,1.924784184E-1,1.924794274E-1
1.022552996E1,1.574088121E-3,-1.540715806E-3,1.893864870E-1,1.893992952E-1
1.023548596E1,1.646750257E-3,8.197966963E-5,1.884940118E-1,1.885012227E-1
1.024544196E1,-3.029499203E-4,-6.991252303E-4,1.918397397E-1,1.918412528E-1
1.025539696E1,-3.056100104E-4,-1.925602555E-4,1.945294738E-1,1.945298091E-1
1.026535296E1,2.844110597E-3,2.322141081E-4,1.935006976E-1,1.935217374E-1
1.027530896E1,-4.651208874E-4,1.105773728E-3,1.916249394E-1,1.916286943E-1
1.028526496E1,-7.751127705E-4,-9.613716975E-4,1.926824749E-1,1.926864322E-1
1.029522096E1,-9.753063787E-4,1.184329391E-3,1.930994093E-1,1.931055042E-1
1.030517696E1,-1.454941463E-3,1.957977656E-3,1.957697719E-1,1.957849691E-1
1.031513296E1,-1.101648202E-3,-3.004139289E-4,1.925323606E-1,1.925357466E-1
1.032508896E1,-2.263319213E-3,1.365659293E-3,1.905765384E-1,1.905948705E-1
1.033504496E1,-3.488319693E-3,3.688689321E-5,1.891994774E-1,1.892316358E-1
1.034500096E1,5.303900689E-4,3.498197533E-3,1.870194227E-1,1.870528886E-1
1.035495596E1,-2.097534947E-3,2.024489455E-3,1.844408810E-1,1.844639173E-1
1.036491196E1,1.249526045E-3,-7.598455995E-4,1.885269731E-1,1.885326451E-1
1.037486796E1,5.659265444E-4,2.304610796E-3,1.899916530E-1,1.900064728E-1
1.038482396E1,1.743842731E-3,-5.308538675E-5,1.930186003E-1,1.930264849E-1
1.039477996E1,4.485894460E-4,5.085831508E-4,1.951295435E-1,1.951307220E-1
1.040473596E1,-3.695821855E-3,-1.196105964E-3,1.909995079E-1,1.910390059E-1
1.041469196E1,-1.091275597E-3,5.750190467E-4,1.911031008E-1,1.911070816E-1
1.042464796E1,-2.045486122E-3,2.448286396E-3,1.926445365E-1,1.926709515E-1
1.043460396E1,7.019417826E-4,-5.106078461E-4,1.924696863E-1,1.924716436E-1
1.044455996E1,1.373516861E-4,-8.450169116E-5,1.923458427E-1,1.923459103E-1
1.045451496E1,1.074647647E-3,9.194556624E-4,1.920911372E-1,1.920963437E-1
1.046447096E1,7.073977031E-4,1.503753476E-3,1.906929761E-1,1.907002172E-1
1.047442696E1,-3.357792040E-3,-1.494805329E-3,1.881984472E-1,1.882343347E-1
1.048438296E1,6.308241282E-4,-7.355390117E-4,1.804174930E-1,1.804200951E-1
1.049433896E1,-1.101451926E-4,9.176163003E-4,1.816466898E-1,1.816490409E-1
1.050429496E1,-8.614230901E-4,2.960348502E-4,1.863567531E-1,1.863589792E-1
1.051425096E1,-1.533353701E-3,-5.370136350E-4,1.893115491E-1,1.893185204E-1
1.052420696E1,-2.379922662E-4,8.824514225E-4,1.969878376E-1,1.969899579E-1
1.053416296E1,-2.554950770E-3,-9.717345238E-4,1.989722103E-1,1.989909860E-1
1.054411896E1,-1.131757628E-3,3.020549193E-4,1.985860467E-1,1.985895014E-1
1.055407396E1,2.103198785E-4,-5.582068115E-5,1.942643821E-1,1.942645040E-1
1.056402996E1,-1.862247009E-4,-3.631496802E-4,1.913641989E-1,1.913646341E-1
1.057398596E1,3.331053536E-3,-5.951859057E-4,1.846483052E-1,1.846793079E-1
1.058394196E1,1.019429648E-3,1.056239940E-3,1.837140620E-1,1.837199266E-1
1.059389796E1,-1.772041433E-4,-1.570437104E-3,1.895699799E-1,1.895765675E-1
1.060385396E1,-1.702662557E-3,-4.556383938E-4,1.946004182E-1,1.946084002E-1
1.061380996E1,-2.213502536E-3,1.665169373E-3,1.977020502E-1,1.977214532E-1
1.062376596E1,-2.467567800E-3,-4.656258970E-4,1.970791370E-1,1.970951342E-1
1.063372196E1,-1.861013006E-3,3.493754193E-4,1.923532039E-1,1.923625236E-1
1.064367796E1,-1.415465958E-3,-6.778063253E-4,1.914599687E-1,1.914664006E-1
1.065363296E1,3.829069901E-4,1.525043510E-3,1.855988503E-1,1.856055107E-1
1.066358896E1,1.582394820E-3,8.427416906E-4,1.866920739E-1,1.867006820E-1
1.067354496E1,-9.947081562E-4,-1.197595149E-3,1.857665479E-1,1.857730713E-1
1.068350096E1,-6.881782319E-4,-9.477976710E-5,1.867572516E-1,1.867585436E-1
1.069345696E1,-2.275071573E-3,1.285204198E-3,1.889245808E-1,1.889426499E-1
1.070341296E1,-4.635893274E-4,1.823162660E-3,1.890947670E-1,1.891041241E-1
1.071336896E1,6.048390642E-4,8.443146944E-4,1.919418275E-1,1.919446375E-1
1.072332496E1,1.920491923E-4,-3.985408694E-5,1.888075620E-1,1.888076639E-1
1.073328096E1,-8.343732916E-4,8.229836822E-4,1.879020482E-1,1.879057030E-1
1.074323696E1,1.316395472E-3,1.641176641E-4,1.872916520E-1,1.872963500E-1
1.075319196E1,-1.754426397E-3,1.323733944E-3,1.896788478E-1,1.896915802E-1
1.076314796E1,6.208468694E-4,7.338440046E-4,1.908828616E-1,1.908852819E-1
1.077310396E1,1.148375100E-3,-1.248842105E-3,1.926118135E-1,1.926192854E-1
1.078305996E1,-6.070011295E-5,1.581059769E-4,1.953809559E-1,1.953810293E-1
1.079301596E1,-1.431912184E-3,1.000808552E-4,1.966945380E-1,1.966997755E-1
1.080297196E1,-2.813560423E-3,2.529682592E-3,1.933013946E-1,1.933384198E-1
1.081292796E1,-1.141587272E-3,2.222880721E-4,1.919771582E-1,1.919806811E-1
1.082288396E1,-2.375429962E-3,6.545186043E-4,1.888365000E-1,1.888525743E-1
1.083283996E1,1.277921023E-3,2.926857676E-3,1.870972961E-1,1.871245516E-1
1.084279596E1,1.371838152E-5,1.275165007E-3,1.868797243E-1,1.868840752E-1
1.085275096E1,2.017440274E-4,-8.973907679E-4,1.883482337E-1,1.883504796E-1
1.086270696E1,-2.365809400E-3,-1.077633351E-4,1.897650361E-1,1.897798135E-1
1.087266296E1,1.628796221E-3,-2.648774534E-4,1.900536716E-1,1.900608356E-1
1.088261896E1,1.368339057E-3,5.862694234E-4,1.923386455E-1,1.923444062E-1
1.089257496E1,-7.077825721E-4,1.256840304E-3,1.951005161E-1,1.951058481E-1
1.090253096E1,-1.029492356E-3,4.834579304E-4,1.923263073E-1,1.923296703E-1