"Time (s)","Gyroscope x (rad/s)","Gyroscope y (rad/s)","Gyroscope z (rad/s)","Absolute (rad/s)"
3.833083330E-3,1.606420148E-3,-8.651521057E-4,-4.165532440E-2,4.169526502E-2
1.379008333E-2,1.304620178E-3,-3.002546728E-4,-4.251654446E-2,4.253761558E-2
2.374608333E-2,2.257499145E-3,1.849737018E-4,-5.059870705E-2,5.064937979E-2
3.370308333E-2,2.844354603E-4,1.401098445E-3,-5.264192820E-2,5.266133861E-2
4.366008333E-2,6.499094889E-5,-1.166721806E-3,-5.539324135E-2,5.540556516E-2
5.361708333E-2,-6.425916217E-5,1.083531417E-3,-5.829492211E-2,5.830502649E-2
6.357308333E-2,-1.094103558E-3,-1.224364154E-3,-5.646239966E-2,5.648627006E-2
7.353008333E-2,-1.768538496E-3,-1.973314211E-4,-5.656211451E-2,5.659010042E-2
8.348708333E-2,7.756473497E-5,5.673430860E-5,-5.538233370E-2,5.538241707E-2
9.344308333E-2,-3.110080492E-3,-1.160721295E-3,-5.695943534E-2,5.705608775E-2
1.034000833E-1,-7.649008185E-4,-2.355128527E-5,-5.922072381E-2,5.922566805E-2
1.133570833E-1,2.685021609E-4,5.675610155E-4,-6.095600873E-2,6.095924228E-2
1.233140833E-1,-2.763806842E-4,2.470123582E-3,-6.106439605E-2,6.111496022E-2
1.332700833E-1,-2.010605065E-3,-4.318989813E-4,-5.802888051E-2,5.806530842E-2
1.432270833E-1,-1.979179913E-3,7.705185562E-4,-5.553003773E-2,5.557063921E-2
1.531840833E-1,2.427031985E-3,-6.546778604E-4,-5.325627699E-2,5.331557115E-2
1.631400833E-1,-7.367646322E-5,-1.366008073E-3,-5.356333777E-2,5.358080402E-2
1.730970833E-1,-1.844189828E-3,-2.209072933E-3,-5.387765542E-2,5.395445109E-2
1.830540833E-1,-1.651376951E-3,1.235193573E-3,-5.973048508E-2,5.976607396E-2
1.930110833E-1,-1.073421910E-3,-4.553245381E-4,-5.778641999E-2,5.779818241E-2
2.029670833E-1,2.270177007E-3,-3.282270394E-3,-5.917765573E-2,5.931207246E-2
2.129240833E-1,-8.155060932E-4,-1.495230012E-3,-5.624274537E-2,5.626852735E-2
2.228810833E-1,3.184677335E-4,-2.309624106E-3,-5.563367903E-2,5.568251097E-2
2.328370833E-1,-5.269865505E-5,-2.226199955E-3,-5.581342056E-2,5.585782540E-2
2.427940833E-1,-1.986399293E-4,-2.489053644E-3,-5.616522580E-2,5.622070291E-2
2.527510833E-1,-2.838249784E-4,-9.859222919E-4,-5.596502125E-2,5.597442455E-2
2.627080833E-1,-5.722453352E-4,-7.699402049E-4,-5.731657147E-2,5.732459889E-2
2.726640833E-1,2.148731146E-3,-2.238154411E-5,-5.831453949E-2,5.835411779E-2
2.826210833E-1,3.212930402E-3,-2.102310769E-3,-5.810494721E-2,5.823167113E-2
2.925780833E-1,2.409987617E-3,-1.624012366E-3,-6.054231897E-2,6.061202721E-2
3.025340833E-1,1.651253086E-3,1.895088702E-3,-5.625942349E-2,5.631554608E-2
3.124910833E-1,9.764276911E-4,-1.473763026E-3,-5.767726526E-2,5.770435266E-2
3.224480833E-1,1.951144659E-3,-1.963517629E-3,-5.874439329E-2,5.880957498E-2
3.324050833E-1,2.639088547E-3,1.169989817E-3,-5.952351540E-2,5.959347742E-2
3.423610833E-1,-1.191868680E-3,-1.681190915E-3,-5.535433814E-2,5.539268638E-2
3.523180833E-1,1.248191809E-3,-3.560681827E-3,-5.465385690E-2,5.478394393E-2
3.622750833E-1,3.387223696E-4,-2.444018610E-3,-5.610874295E-2,5.616296819E-2
3.722320833E-1,-1.437261002E-3,-3.029722720E-3,-5.576492846E-2,5.586566195E-2
3.821880833E-1,2.094889525E-3,-1.058983617E-3,-5.388740078E-2,5.393850175E-2
3.921450833E-1,1.200067229E-3,-1.289491542E-3,-5.662015826E-2,5.664755309E-2
4.021020833E-1,-5.190032534E-4,-1.166719943E-3,-6.052381545E-2,6.053728468E-2
4.120580833E-1,-3.121760674E-4,-3.619799390E-4,-5.901118740E-2,5.901312331E-2
4.220150833E-1,2.452717628E-3,-2.884792164E-3,-5.654110387E-2,5.666775341E-2
4.319720833E-1,8.601119043E-4,-1.053000800E-3,-5.738794804E-2,5.740405197E-2
4.419290833E-1,3.665752243E-3,-3.604308702E-3,-5.408669263E-2,5.433046199E-2
4.518850833E-1,9.781977860E-4,-1.345518976E-4,-5.338096991E-2,5.339010137E-2
4.618420833E-1,-2.377385274E-3,-3.494974226E-5,-5.506568402E-2,5.511699138E-2
4.717990833E-1,5.920419935E-4,4.642196000E-4,-5.667961389E-2,5.668460676E-2
4.817550833E-1,8.058939129E-4,-1.086272299E-3,-5.706577003E-2,5.708179711E-2
4.917120833E-1,-2.548624761E-4,-4.217214882E-4,-5.919962004E-2,5.920167072E-2
5.016690833E-1,3.720456734E-4,-6.504869089E-4,-6.131630018E-2,6.132087915E-2
5.116260833E-1,-7.418529131E-4,-3.983890638E-4,-5.888922513E-2,5.889524510E-2
5.215820833E-1,-1.134402817E-3,-2.568865195E-3,-5.834434181E-2,5.841188372E-2
5.315390833E-1,-1.578566153E-4,-1.845546067E-4,-5.625646934E-2,5.625699354E-2
5.414960833E-1,-3.338914830E-4,-6.431518123E-4,-5.511157587E-2,5.511633989E-2
5.514530833E-1,8.988275658E-5,-1.525673084E-3,-5.589984730E-2,5.592073574E-2
5.614090833E-1,3.664910095E-3,-1.102496870E-3,-5.618640408E-2,5.631659674E-2
5.713660833E-1,6.652674638E-4,1.456386410E-3,-5.672415346E-2,5.674674641E-2
5.813230833E-1,2.368358895E-3,-9.175548330E-4,-5.922246724E-2,5.927690661E-2
5.912790833E-1,-2.263300354E-3,-3.822138533E-4,-5.769831687E-2,5.774395540E-2
6.012360833E-1,1.799618010E-3,-6.844820455E-4,-5.970234424E-2,5.973338303E-2
6.111930833E-1,1.154690050E-3,-2.494051121E-3,-5.718523636E-2,5.725124329E-2
6.211500833E-1,-3.185707610E-4,-1.323059201E-3,-5.575085804E-2,5.576746493E-2
6.311060833E-1,1.535268733E-3,-6.857672706E-4,-5.368391052E-2,5.371023716E-2
6.410630833E-1,-5.324096419E-4,-1.353421248E-3,-5.451108888E-2,5.453048707E-2
6.510200833E-1,-1.703414600E-4,4.073977470E-4,-5.759353936E-2,5.759523214E-2
6.609760833E-1,1.187604386E-3,-1.206743531E-3,-5.801245570E-2,5.803715750E-2
6.709330833E-1,-1.365265111E-3,2.204161137E-4,-5.751930550E-2,5.753592823E-2
6.808900833E-1,1.685119700E-3,-3.080838360E-3,-5.830680206E-2,5.841245039E-2
6.908470833E-1,1.611855580E-3,-1.270893030E-3,-5.725452304E-2,5.729130524E-2
7.008030833E-1,-2.947014291E-4,1.080146059E-3,-5.408962071E-2,5.410120731E-2
7.107600833E-1,1.603516750E-3,-1.228935085E-3,-5.604756996E-2,5.608396960E-2
7.207170833E-1,3.506611567E-3,1.338040456E-4,-5.664278567E-2,5.675138233E-2
7.306730833E-1,6.315479986E-4,2.168966457E-4,-5.763261393E-2,5.763648224E-2
7.406300833E-1,1.689888188E-3,-6.673019379E-5,-6.073652953E-2,6.076007072E-2
7.505870833E-1,1.515939599E-3,2.521654591E-3,-5.961513892E-2,5.968770060E-2
7.605440833E-1,-2.402635524E-3,-1.739669591E-3,-5.474634841E-2,5.482665202E-2
7.705000833E-1,2.395957708E-4,-2.392994240E-3,-5.360906571E-2,5.366298309E-2
7.804570833E-1,2.984516323E-4,3.058528528E-4,-5.376965553E-2,5.377135366E-2
7.904140833E-1,1.120028901E-3,-2.121521160E-3,-5.034263805E-2,5.039976708E-2
8.003710833E-1,6.616988685E-4,-3.135386854E-3,-5.621837080E-2,5.630962361E-2
8.103270833E-1,-1.357823610E-3,-1.008929685E-4,-5.638380721E-2,5.640024450E-2
8.202840833E-1,2.994615352E-4,-9.001074359E-4,-5.259945616E-2,5.260800946E-2
8.302410833E-1,1.732595498E-3,1.576501876E-3,-5.032218620E-2,5.037667783E-2
8.401970833E-1,3.138789907E-6,5.280151963E-4,-4.600307345E-2,4.600610369E-2
8.501540833E-1,2.704225015E-3,6.431844085E-4,-4.439715296E-2,4.448408378E-2
8.601110833E-1,-1.103030052E-3,-2.095610835E-3,-4.792717472E-2,4.798564719E-2
8.700680833E-1,-3.906991333E-4,-3.095436841E-4,-5.101348832E-2,5.101592353E-2
8.800240833E-1,-1.248236978E-3,-2.393733710E-3,-5.618667975E-2,5.625149810E-2
8.899810833E-1,-1.321211457E-3,-2.281415276E-3,-5.637499690E-2,5.643660807E-2
8.999380833E-1,-2.265418880E-5,-2.334145829E-3,-5.149049312E-2,5.154337621E-2
9.098940833E-1,2.256013919E-3,-1.330822706E-4,-5.178207532E-2,5.183136728E-2
9.198510833E-1,2.694636583E-3,5.493685603E-5,-4.817775637E-2,4.825308584E-2
9.298080833E-1,1.859117765E-4,-1.745208167E-3,-5.053019151E-2,5.056066227E-2
9.397650833E-1,2.409651410E-3,-2.110327594E-3,-5.271079019E-2,5.280802311E-2
9.497210833E-1,2.862035297E-3,8.289543912E-4,-5.570742115E-2,5.578705211E-2
9.596780833E-1,2.729676198E-3,-1.146311872E-3,-5.587946251E-2,5.595783675E-2
9.696350833E-1,1.953474712E-4,-1.641675830E-3,-5.327615514E-2,5.330180079E-2
9.795908750E-1,2.464094199E-3,-7.913280278E-4,-4.871895537E-2,4.878764774E-2
9.895478750E-1,3.417496337E-4,-2.418998629E-3,-4.657524452E-2,4.663927260E-2
9.995048750E-1,2.603039611E-3,3.656027839E-4,-4.988155887E-2,4.995076972E-2
1.009461875E0,-1.497021993E-3,1.268724911E-3,-5.160057172E-2,5.163787118E-2
1.019417875E0,-1.921796356E-3,-1.099890098E-3,-5.423417315E-2,5.427935700E-2
1.029374875E0,1.552923699E-3,-2.907526679E-3,-5.664390326E-2,5.673973087E-2
1.039331875E0,-2.555801068E-3,8.320342749E-5,-5.206060410E-2,5.212336847E-2
1.049288875E0,-1.399114728E-3,1.442997716E-3,-4.836224765E-2,4.840399531E-2
1.059244875E0,5.798803177E-4,-1.797004603E-3,-5.203181878E-2,5.206607006E-2
1.069201875E0,-3.169121919E-4,-1.937256195E-3,-5.055095255E-2,5.058905217E-2
1.079158875E0,1.479123719E-3,-7.729213685E-4,-5.259706080E-2,5.262353104E-2
1.089114875E0,1.909193816E-3,-5.449382588E-4,-5.300819501E-2,5.304536471E-2
1.099071875E0,2.737466712E-4,6.268527359E-4,-5.167714879E-2,5.168167556E-2
1.109028875E0,3.972938284E-4,-1.178031787E-3,-5.418255180E-2,5.419681283E-2
1.118985875E0,1.524077263E-3,-4.371960647E-3,-5.002854764E-2,5.024233704E-2
1.128941875E0,-2.273855265E-3,-1.034688205E-3,-5.115257204E-2,5.121353945E-2
1.138898875E0,2.859750530E-4,-5.049854517E-4,-5.114671215E-2,5.115000446E-2
1.148855875E0,1.357364701E-3,-8.518388495E-4,-5.353306234E-2,5.355704278E-2
1.158812875E0,2.516905079E-3,-2.285152674E-3,-5.018147081E-2,5.029648841E-2
1.168768875E0,1.389799640E-3,1.863762736E-5,-5.191158503E-2,5.193018921E-2
1.178725875E0,-2.208802616E-4,4.623197019E-4,-4.992806166E-2,4.993069065E-2
1.188682875E0,4.225820303E-4,-3.633080050E-3,-5.063632876E-2,5.076825422E-2
1.198638875E0,7.184591377E-4,1.729194075E-3,-4.964616895E-2,4.968146925E-2
1.208595875E0,2.492688363E-3,4.011765122E-4,-4.967264459E-2,4.973676767E-2
1.218552875E0,1.389873330E-3,-1.205242239E-3,-5.118105933E-2,5.121411125E-2
1.228509875E0,1.294328598E-3,-1.254645176E-3,-5.228080228E-2,5.231186967E-2
1.238465875E0,2.892516786E-4,-2.048267052E-3,-5.462171882E-2,5.466087478E-2
1.248422875E0,2.424687613E-3,7.756212726E-4,-5.402756855E-2,5.408751114E-2
1.258379875E0,4.456924507E-4,-3.351829946E-4,-5.188186094E-2,5.188485795E-2
1.268335875E0,1.627137768E-3,1.424700022E-3,-5.227720365E-2,5.232192054E-2
1.278292875E0,1.168275136E-3,-3.782603890E-4,-4.964866489E-2,4.966384876E-2
1.288249875E0,-8.607393829E-4,1.129312441E-4,-4.952885583E-2,4.953646319E-2
1.298206875E0,-3.177208127E-4,-3.794878721E-4,-5.257045105E-2,5.257278080E-2
1.308162875E0,-1.685111551E-3,1.472201198E-3,-5.392165110E-2,5.396805939E-2
1.318119875E0,1.068330603E-3,-1.914274879E-3,-5.510702357E-2,5.515061038E-2
1.328076875E0,2.640251536E-3,-2.261381596E-3,-5.435237288E-2,5.446343005E-2
1.338033875E0,1.081769587E-3,-9.513720870E-4,-5.458246917E-2,5.460147685E-2
1.347989875E0,1.576128532E-3,-2.111119218E-3,-5.082403123E-2,5.089227010E-2
1.357946875E0,2.413522452E-4,-2.535626292E-3,-5.007408559E-2,5.013882427E-2
1.367903875E0,1.958285458E-3,-9.543886408E-4,-4.981860518E-2,4.986621263E-2
1.377859875E0,9.598664474E-4,-2.257206477E-3,-4.895547777E-2,4.901688616E-2
1.387816875E0,2.217412228E-3,-1.938863657E-3,-5.163317174E-2,5.171712031E-2
1.397773875E0,2.415551571E-3,-2.466435544E-3,-5.246248096E-2,5.257594604E-2
1.407730875E0,2.716467716E-4,-2.151382156E-3,-5.392826349E-2,5.397184303E-2
1.417686875E0,5.105322925E-4,-4.861075431E-4,-5.481988937E-2,5.482442169E-2
1.427643875E0,1.584296115E-5,3.029257059E-4,-5.114793777E-2,5.114883727E-2
1.437600875E0,-1.469135634E-3,-1.972159371E-4,-5.032289028E-2,5.034471710E-2
1.447556875E0,1.535972347E-3,-6.956979632E-6,-5.388967693E-2,5.391156220E-2
1.457513875E0,1.536771306E-3,-1.668769866E-3,-5.321456864E-2,5.326290243E-2
1.467470875E0,-2.373878378E-4,-3.957590088E-4,-5.006989092E-2,5.007201768E-2
1.477427875E0,6.164216902E-4,-1.835198142E-3,-4.885921627E-2,4.889755559E-2
1.487383875E0,-5.792512093E-5,-1.018635929E-3,-4.772422090E-2,4.773512580E-2
1.497340875E0,4.552659811E-4,1.863703132E-3,-4.798361287E-2,4.802195081E-2
1.507297875E0,6.514410488E-4,4.887804389E-4,-4.840011895E-2,4.840697053E-2
1.517254875E0,-3.389905673E-3,-2.613269724E-3,-4.823633656E-2,4.842586916E-2
1.527210875E0,1.475741621E-3,8.547334000E-4,-4.781247303E-2,4.784287784E-2
1.537167875E0,5.739952903E-4,-3.745816648E-4,-4.967135936E-2,4.967608804E-2
1.547124875E0,2.355122240E-3,-1.799620688E-3,-4.421785846E-2,4.431708748E-2
1.557080875E0,2.762053162E-3,-2.945845015E-3,-4.736784473E-2,4.753966402E-2
1.567037875E0,9.248370770E-5,-8.367560804E-5,-4.624740779E-2,4.624757596E-2
1.576994875E0,1.182515523E-3,-9.641163051E-4,-4.639867321E-2,4.642375188E-2
1.586951875E0,1.364935888E-3,-3.345375881E-4,-4.344011843E-2,4.346284453E-2
1.596907875E0,1.157741994E-3,-1.133219339E-3,-4.663218558E-2,4.666031809E-2
1.606864875E0,5.007459549E-4,8.195601404E-4,-4.661697894E-2,4.662687156E-2
1.616821875E0,-4.215068184E-4,5.388632417E-4,-4.489311576E-2,4.489832830E-2
1.626777875E0,2.158561721E-3,-4.557864740E-4,-4.612427950E-2,4.617701040E-2
1.636734875E0,5.066988524E-5,1.771681011E-3,-4.301770404E-2,4.305420168E-2
1.646691875E0,1.570209046E-3,1.881698146E-3,-4.645295069E-2,4.651755552E-2
1.656648875E0,-2.308951225E-3,-4.688072950E-4,-4.709210992E-2,4.715101115E-2
1.666604875E0,4.435034934E-4,9.392416105E-4,-4.666318744E-2,4.667474620E-2
1.676561875E0,1.530872192E-3,-7.356200367E-4,-4.813431948E-2,4.816427534E-2
1.686518875E0,6.547196535E-4,9.963493794E-4,-4.517737031E-2,4.519309857E-2
1.696474875E0,-8.441073587E-4,-6.438912824E-4,-4.513902217E-2,4.515150535E-2
1.706431875E0,1.340874936E-3,1.933973283E-3,-4.737927392E-2,4.743768329E-2
1.716388875E0,-1.321753487E-3,1.221843995E-3,-4.591294006E-2,4.594820997E-2
1.726345875E0,-1.418882399E-3,-2.322425134E-3,-4.835307226E-2,4.842960337E-2
1.736301875E0,-4.106097622E-4,3.441981971E-4,-4.818689078E-2,4.818986943E-2
1.746258875E0,1.264400082E-3,-1.918251626E-3,-4.615530744E-2,4.621245289E-2
1.756215875E0,1.235105330E-3,-2.067655325E-3,-4.307962209E-2,4.314689471E-2
1.766172875E0,8.569342317E-4,6.884979084E-4,-4.512815177E-2,4.514153795E-2
1.776128875E0,6.220433861E-4,-6.920853630E-4,-4.348072037E-2,4.349067675E-2
1.786085875E0,1.051952131E-5,-2.105597407E-3,-4.726712406E-2,4.731400076E-2
1.796042875E0,1.398159657E-5,-3.758743405E-4,-5.130074918E-2,5.130212806E-2
1.805998875E0,1.994290622E-3,3.941133618E-4,-4.667869210E-2,4.672293673E-2
1.815955875E0,-1.908332342E-4,-6.767828017E-5,-4.695459455E-2,4.695503112E-2
1.825912875E0,1.005557016E-3,-5.224011838E-4,-4.439909011E-2,4.441354805E-2
1.835869875E0,2.047385555E-3,8.027879521E-4,-4.419029877E-2,4.424498572E-2
1.845825875E0,3.722630208E-4,5.508810282E-4,-4.049924761E-2,4.050470475E-2
1.855782875E0,1.948964782E-4,-1.789239235E-3,-4.185026884E-2,4.188895276E-2
1.865739875E0,-1.022493350E-3,4.579536617E-4,-4.731937870E-2,4.733264006E-2
1.875696875E0,1.292858738E-3,-1.780432649E-3,-4.786852375E-2,4.791906708E-2
1.885652875E0,-9.920647135E-4,-6.951047108E-4,-4.725353420E-2,4.726905814E-2
1.895609875E0,1.085200929E-3,-1.560898498E-3,-4.431606457E-2,4.435682184E-2
1.905566875E0,-1.482165419E-3,-1.296919771E-3,-4.375223070E-2,4.379653533E-2
1.915522875E0,-3.532515839E-4,1.499755308E-4,-4.372320324E-2,4.372488743E-2
1.925479875E0,2.637057099E-3,1.423552632E-3,-4.235258326E-2,4.245847243E-2
1.935436875E0,-5.131963408E-4,1.077873632E-3,-4.260132089E-2,4.261804458E-2
1.945393875E0,1.435871236E-4,-1.257071272E-4,-4.622978345E-2,4.623017734E-2
1.955349875E0,-1.300911419E-3,-8.918978274E-4,-4.623244703E-2,4.625934511E-2
1.965306875E0,1.605472527E-3,3.922618926E-4,-4.308432341E-2,4.311601019E-2
1.975264000E0,1.479771337E-3,-1.138256863E-3,-4.220627993E-2,4.224754925E-2
1.985220000E0,-4.042986315E-3,4.131477326E-4,-4.059929401E-2,4.080219483E-2
1.995177000E0,-1.128156320E-3,1.384668984E-3,-4.070928320E-2,4.074844517E-2
2.005134000E0,4.277958069E-4,2.327405848E-3,-4.349225387E-2,4.355658359E-2
2.015091000E0,3.285367507E-3,-9.677233174E-4,-4.690882191E-2,4.703368688E-2
2.025047000E0,1.104232506E-3,-8.472418413E-4,-4.521745071E-2,4.523886600E-2
2.035004000E0,7.782616303E-4,-2.677099779E-3,-4.484593868E-2,4.493251351E-2
2.044961000E0,-1.046855352E-3,-2.319812775E-4,-4.474614933E-2,4.475899464E-2
2.054917000E0,3.546831198E-3,3.035716712E-3,-4.127445072E-2,4.153764401E-2
2.064874000E0,-3.534741700E-5,6.726654246E-4,-4.288927466E-2,4.289456386E-2
2.074831000E0,-1.011662185E-3,-3.374712542E-4,-4.633620381E-2,4.634847496E-2
2.084788000E0,2.763783559E-3,-1.081642695E-3,-4.806381464E-2,4.815536033E-2
2.094744000E0,3.490955569E-4,-1.113068312E-3,-4.877115041E-2,4.878509917E-2
2.104701000E0,5.505630979E-4,6.538676098E-4,-4.561390728E-2,4.562191578E-2
2.114658000E0,-5.330770509E-4,-1.806360669E-3,-4.679608718E-2,4.683397148E-2
2.124615000E0,3.374977503E-3,1.269505359E-3,-4.254141822E-2,4.269396189E-2
2.134571000E0,3.107445082E-4,-3.542238846E-4,-4.286845401E-2,4.287104368E-2
2.144528000E0,-1.106417738E-3,6.817318499E-4,-4.575087130E-2,4.576932535E-2
2.154485000E0,4.672440700E-4,-8.269483224E-4,-4.730083048E-2,4.731036594E-2
2.164441000E0,9.650465799E-4,-4.545226693E-4,-4.612827301E-2,4.614060551E-2
2.174398000E0,-3.516787197E-3,-6.864843890E-4,-4.690192267E-2,4.703859483E-2
2.184355000E0,2.228941536E-3,-7.550837472E-4,-4.294212162E-2,4.300655928E-2
2.194312000E0,1.287726918E-4,3.559868783E-4,-4.324572161E-2,4.324737849E-2
2.204268000E0,-8.369798306E-4,-5.234275013E-4,-4.396433383E-2,4.397541541E-2
2.214225000E0,1.123698894E-5,1.115215942E-3,-4.384529218E-2,4.385947422E-2
2.224182000E0,1.415494829E-3,1.986656338E-3,-4.453025758E-2,4.459702086E-2
2.234139000E0,2.905755537E-4,-5.212426186E-4,-4.761952534E-2,4.762326450E-2
2.244095000E0,1.327832346E-3,-6.664404646E-4,-4.536273703E-2,4.538705975E-2
2.254052000E0,-1.365422504E-3,8.140113205E-4,-4.629351199E-2,4.632079711E-2
2.264009000E0,-1.704689348E-3,8.169813082E-4,-4.393447563E-2,4.397512448E-2
2.273965000E0,2.139583696E-3,-2.494926564E-3,-4.582505301E-2,4.594276831E-2
2.283922000E0,3.907710779E-3,-4.547787830E-4,-4.399159551E-2,4.416715411E-2
2.293879000E0,1.349478494E-3,-4.981877282E-4,-4.508961737E-2,4.511255787E-2
2.303836000E0,8.620693116E-4,9.226500988E-4,-4.620925710E-2,4.622650634E-2
2.313792000E0,2.295648912E-3,2.667130902E-4,-4.734589159E-2,4.740226356E-2
2.323749000E0,-1.409824472E-5,1.080323011E-3,-4.411912709E-2,4.413235403E-2
2.333706000E0,3.938979935E-4,1.432392746E-3,-4.081574455E-2,4.084277057E-2
2.343662000E0,-4.817557056E-4,-8.137105033E-4,-4.130145162E-2,4.131227565E-2
2.353619000E0,2.265561372E-3,4.646060988E-4,-4.580059648E-2,4.585894967E-2
2.363576000E0,-9.801357519E-4,5.549341440E-4,-4.508877546E-2,4.510284126E-2
2.373533000E0,-1.194786513E-3,2.055359073E-3,-4.822864383E-2,4.828720433E-2
2.383489000E0,-1.302530291E-4,-9.300187230E-6,-4.869922251E-2,4.869939758E-2
2.393446000E0,2.300726483E-4,8.383840322E-4,-4.345279932E-2,4.346149549E-2
2.403403000E0,1.486954978E-3,1.215354539E-3,-4.294352233E-2,4.298644242E-2
2.413360000E0,-4.156072391E-4,-2.717868425E-3,-4.467191547E-2,4.475644725E-2
2.423316000E0,2.030283213E-4,5.814423785E-4,-4.616442323E-2,4.616853114E-2
2.433273000E0,-4.236134700E-4,-4.200357944E-5,-4.763981700E-2,4.764171887E-2
2.443230000E0,1.838604221E-3,-1.457140781E-3,-4.745178670E-2,4.750974411E-2
2.453186000E0,-1.403261675E-3,-6.315605715E-4,-4.408768564E-2,4.411453318E-2
2.463143000E0,-4.392291885E-4,-1.443327405E-3,-4.318273813E-2,4.320908456E-2
2.473100000E0,8.228427614E-4,-2.528565936E-3,-3.902288526E-2,3.911337738E-2
2.483057000E0,-2.381626517E-3,-6.762025878E-4,-3.949482739E-2,3.957234875E-2
2.493013000E0,9.542491753E-4,1.819712110E-3,-4.241152108E-2,4.246126545E-2
2.502970000E0,-1.705411123E-3,9.910613298E-4,-4.712019116E-2,4.716145719E-2
2.512927000E0,-8.310955018E-4,-7.277429104E-4,-4.923767224E-2,4.925006291E-2
2.522883000E0,3.846395994E-4,-3.730524331E-4,-4.492419213E-2,4.492738758E-2
2.532840000E0,-1.151737990E-3,-2.080671489E-3,-4.530902207E-2,4.537139159E-2
2.542797000E0,-1.105394796E-3,5.086446181E-4,-4.092549905E-2,4.094358423E-2
2.552754000E0,1.372360857E-4,-5.329176784E-4,-4.156678915E-2,4.157043174E-2
2.562710000E0,5.396500928E-4,1.045351848E-3,-4.272747040E-2,4.274366280E-2
2.572667000E0,-9.354747599E-4,9.191185236E-4,-4.599117488E-2,4.600986914E-2
2.582624000E0,-3.531478578E-4,1.596525311E-3,-4.905740917E-2,4.908465138E-2
2.592581000E0,1.178169623E-3,-3.369301558E-4,-4.685204476E-2,4.686806700E-2
2.602537000E0,-1.202593558E-5,-1.549920067E-3,-4.628589749E-2,4.631184194E-2
2.612494000E0,1.199712278E-3,1.267437823E-3,-4.742892832E-2,4.746102558E-2
2.622451000E0,1.452773926E-3,1.353618689E-3,-4.376129061E-2,4.380631680E-2
2.632407000E0,2.341204323E-3,1.884857193E-4,-4.089625925E-2,4.096365200E-2
2.642364000E0,2.066647867E-4,7.045483217E-4,-4.212393239E-2,4.213033086E-2
2.652321000E0,-8.015765343E-5,6.811125204E-4,-4.514875263E-2,4.515396111E-2
2.662278000E0,-4.720455036E-5,1.600977965E-3,-4.538803920E-2,4.541629070E-2
2.672234000E0,4.526707344E-4,-1.799612306E-3,-4.692415148E-2,4.696082950E-2
2.682191000E0,2.886182396E-3,-7.803551853E-5,-4.565174878E-2,4.574295907E-2
2.692148000E0,-2.634284087E-3,-4.740469158E-4,-4.339711368E-2,4.347957738E-2
2.702105000E0,1.989280106E-3,-1.756251790E-3,-4.283361137E-2,4.291573043E-2
2.712061000E0,-3.050331725E-4,1.477092505E-3,-4.212094843E-2,4.214794354E-2
2.722018000E0,-7.437900640E-4,-7.822029293E-4,-4.490070418E-2,4.491367610E-2
2.731975000E0,9.766120929E-4,7.472503930E-4,-4.781393334E-2,4.782974363E-2
2.741931000E0,5.083151627E-4,2.032921650E-3,-4.534895718E-2,4.539734653E-2
2.751888000E0,1.264178427E-4,-1.477125101E-3,-4.645310342E-2,4.647675438E-2
2.761845000E0,4.546693526E-4,5.087275058E-4,-4.217365384E-2,4.217917266E-2
2.771802000E0,3.902208991E-4,-2.888897434E-4,-4.185887426E-2,4.186168993E-2
2.781758000E0,1.579619828E-3,-2.385508269E-3,-4.515261576E-2,4.524317140E-2
2.791715000E0,1.825256040E-4,1.104830764E-3,-4.406498000E-2,4.407920631E-2
2.801672000E0,1.070858445E-3,1.233343966E-3,-4.523303360E-2,4.526251433E-2
2.811629000E0,-1.692171325E-3,-7.347324863E-4,-4.630708322E-2,4.634381547E-2
2.821585000E0,-3.262422979E-6,7.582474500E-4,-4.848532751E-2,4.849125626E-2
2.831542000E0,-2.448843326E-3,5.334764719E-4,-5.016098917E-2,5.022356284E-2
2.841499000E0,6.224461831E-4,-3.968644887E-5,-4.404788092E-2,4.405229651E-2
2.851455000E0,-1.746701892E-3,-9.395685047E-4,-4.453364015E-2,4.457778439E-2
2.861412000E0,3.209452610E-3,-1.834913157E-3,-4.368545860E-2,4.384161021E-2
2.871369000E0,-3.651250154E-6,1.920676790E-3,-4.473234713E-2,4.477356243E-2
2.881326000E0,2.240521135E-3,2.279765904E-4,-4.421791434E-2,4.427522848E-2
2.891282000E0,-9.499459993E-4,1.104955561E-3,-4.511752725E-2,4.514105215E-2
2.901239000E0,-3.874320537E-4,1.110992394E-3,-4.599978775E-2,4.601483327E-2
2.911196000E0,2.894647885E-3,1.908075996E-3,-4.469377548E-2,4.482804152E-2
2.921153000E0,-1.254984643E-3,2.267832868E-3,-4.112093151E-2,4.120253706E-2
2.931109000E0,2.574245445E-4,-5.495250225E-4,-4.340112954E-2,4.340537168E-2
2.941066000E0,1.880299882E-3,-4.592156038E-4,-4.277501255E-2,4.281878216E-2
2.951023000E0,-2.552265534E-3,-6.533320993E-5,-4.425679147E-2,4.433037242E-2
2.960979000E0,3.354938235E-3,1.438084058E-3,-4.190366715E-2,4.206234679E-2
2.970936000E0,3.192009171E-4,-1.534002833E-3,-4.471543431E-2,4.474287787E-2
2.980892375E0,1.175600337E-4,-1.588825136E-3,-4.501123354E-2,4.503941974E-2
2.990849375E0,1.135420287E-3,1.309226267E-3,-4.817746580E-2,4.820862437E-2
3.000805375E0,3.500340041E-3,1.358253881E-3,-4.773103073E-2,4.787847668E-2
3.010762375E0,-3.918960690E-3,-2.476964146E-3,-4.304014146E-2,4.328911389E-2
3.020719375E0,-2.573292702E-3,1.186419278E-3,-4.483201727E-2,4.492147815E-2
3.030675375E0,-1.348238904E-3,-3.451649100E-4,-4.181518778E-2,4.183834146E-2
3.040632375E0,2.910039155E-3,1.779926009E-3,-4.391877353E-2,4.405105144E-2
3.050589375E0,-1.797097968E-3,5.972161889E-4,-4.277787358E-2,4.281976992E-2
3.060546375E0,9.766530711E-4,-1.581039280E-3,-4.560609534E-2,4.564394230E-2
3.070502375E0,2.079201862E-3,-9.456090629E-4,-4.523777962E-2,4.529540773E-2
3.080459375E0,-3.801147686E-4,9.154425934E-4,-4.657565057E-2,4.658619698E-2
3.090416375E0,5.972653744E-4,-1.271545887E-3,-4.098567367E-2,4.100974275E-2
3.100373375E0,-2.567347838E-4,5.763117224E-4,-4.304845259E-2,4.305307559E-2
3.110329375E0,1.107069897E-3,-7.973462343E-4,-4.290224612E-2,4.292393373E-2
3.120286375E0,-2.722586505E-4,1.792633906E-3,-4.105536267E-2,4.109538253E-2
3.130243375E0,1.136287348E-3,1.215003431E-4,-4.315793142E-2,4.317305821E-2
3.140199375E0,7.477509789E-4,2.905558795E-4,-4.599607363E-2,4.600306885E-2
3.150156375E0,-1.776925637E-3,6.383648142E-4,-4.609647393E-2,4.613512635E-2
3.160113375E0,-4.605300725E-3,1.468698494E-3,-4.358633608E-2,4.385355815E-2
3.170070375E0,1.331151812E-3,1.363195479E-4,-4.319485277E-2,4.321557421E-2
3.180026375E0,8.539619739E-4,-2.404690720E-3,-3.837056458E-2,3.845532492E-2
3.189983375E0,3.735277569E-4,6.379280239E-5,-3.867469728E-2,3.867655365E-2
3.199940375E0,1.086337608E-3,4.895562306E-4,-4.081203789E-2,4.082942849E-2
3.209897375E0,2.834702842E-3,8.280444890E-4,-3.844128922E-2,3.855455764E-2
3.219853375E0,8.606872871E-4,-3.745984286E-4,-4.121085256E-2,4.122154140E-2
3.229810375E0,-2.835780382E-3,4.062401131E-4,-4.174348712E-2,4.184167060E-2
3.239767375E0,-9.697058704E-4,9.113829583E-5,-4.105959088E-2,4.107114119E-2
3.249723375E0,6.582845235E-4,-2.667363733E-3,-3.798124194E-2,3.808047935E-2
3.259680375E0,2.183340723E-3,-1.993961632E-4,-3.744935244E-2,3.751347403E-2
3.269637375E0,2.221890027E-4,-2.165874466E-3,-3.644694388E-2,3.651191721E-2
3.279594375E0,2.372067422E-3,-9.681852534E-4,-3.836264089E-2,3.844809881E-2
3.289550375E0,-1.668480691E-3,-1.328511164E-3,-4.050834849E-2,4.056445572E-2
3.299507375E0,-1.972579630E-4,1.102779061E-5,-4.255997390E-2,4.256043245E-2
3.309464375E0,2.735681366E-3,2.363314852E-4,-4.129124433E-2,4.138244390E-2
3.319421375E0,5.213590339E-5,-2.192892134E-4,-4.186099023E-2,4.186159706E-2
3.329377375E0,3.576005111E-4,-2.870732918E-3,-3.814668208E-2,3.825621962E-2
3.339334375E0,-4.804052878E-5,1.048515551E-3,-3.804753348E-2,3.806200858E-2
3.349291375E0,2.105125226E-3,1.682347618E-3,-4.198554903E-2,4.207194045E-2
3.359247375E0,-5.881690886E-4,-2.449890599E-4,-4.226933420E-2,4.227413602E-2
3.369204375E0,2.211657120E-4,1.098842360E-3,-4.165627807E-2,4.167135553E-2
3.379161375E0,-6.898451829E-4,-1.417459920E-3,-4.069695994E-2,4.072748001E-2
3.389118375E0,-1.669622143E-3,-5.386164412E-4,-3.922902420E-2,3.926823252E-2
3.399074375E0,1.493165619E-3,-1.114140265E-3,-4.149172455E-2,4.153352933E-2
3.409031375E0,4.372221883E-4,-2.411365509E-3,-4.158999771E-2,4.166213816E-2
3.418988375E0,8.796020411E-4,6.868671626E-4,-4.215204343E-2,4.216681458E-2
3.428945375E0,-1.919912989E-3,2.397224307E-4,-3.861296922E-2,3.866141390E-2
3.438901375E0,-7.110710721E-4,-1.655586064E-3,-3.854544461E-2,3.858753539E-2
3.448858375E0,-1.325728605E-3,3.428496420E-4,-4.082191363E-2,4.084487403E-2
3.458815375E0,2.011549659E-3,-2.697756514E-3,-4.032890126E-2,4.046905607E-2
3.468771375E0,-6.801073905E-4,2.245070413E-3,-3.909585997E-2,3.916617360E-2
3.478728375E0,-1.282776822E-3,1.996782608E-3,-3.917954862E-2,3.925136542E-2
3.488685375E0,-2.348229755E-4,5.019502714E-4,-3.950685263E-2,3.951073905E-2
3.498642375E0,5.756594473E-4,-4.435209557E-4,-4.025860876E-2,4.026516700E-2
3.508598375E0,8.254639688E-4,2.822846174E-3,-4.003836960E-2,4.014624380E-2
3.518555375E0,-1.872406458E-3,-1.819650643E-3,-3.738510981E-2,3.747617203E-2
3.528512375E0,1.817935845E-3,6.743995473E-4,-3.950951248E-2,3.955706362E-2
3.538469375E0,6.326334551E-4,-3.579724580E-4,-3.683024645E-2,3.683741879E-2
3.548425375E0,3.157310188E-3,6.786733866E-5,-3.976638243E-2,3.989158288E-2
3.558382375E0,9.355655056E-4,1.072175801E-4,-4.110608250E-2,4.111686755E-2
3.568339375E0,-7.659280673E-4,-2.198813483E-3,-4.195829481E-2,4.202285009E-2
3.578295375E0,5.360504147E-4,-6.464570761E-4,-4.229528457E-2,4.230362105E-2
3.588252375E0,3.818533150E-4,-6.067762151E-4,-3.847844154E-2,3.848511988E-2
3.598209375E0,9.626325336E-4,-1.396316104E-3,-3.754363582E-2,3.758192319E-2
3.608166375E0,5.943173310E-4,5.674986169E-4,-3.360934556E-2,3.361938989E-2
3.618122375E0,-1.561129466E-4,-1.038755290E-3,-3.892171755E-2,3.893588937E-2
3.628079375E0,-1.338023692E-3,1.811360009E-3,-4.215745628E-2,4.221756095E-2
3.638036375E0,1.121889218E-3,-1.101356000E-3,-4.246543348E-2,4.249452507E-2
3.647993375E0,8.421600796E-6,-2.239857800E-3,-3.873061389E-2,3.879532815E-2
3.657949375E0,-1.279945020E-3,9.129196405E-5,-4.006528109E-2,4.008582471E-2
3.667906375E0,7.435248699E-4,-1.451969147E-4,-3.754913062E-2,3.755677198E-2
3.677863375E0,-3.928327002E-3,2.914739773E-3,-3.689586371E-2,3.721870793E-2
3.687819375E0,8.885327261E-4,-5.708169192E-5,-3.810813650E-2,3.811853639E-2
3.697776375E0,-5.264002830E-4,-2.389121801E-4,-3.756828234E-2,3.757272966E-2
3.707733375E0,2.778742928E-4,-3.182748333E-4,-3.998696432E-2,3.998919639E-2
3.717690375E0,1.962055918E-3,-2.672802657E-4,-3.764013946E-2,3.769219018E-2
3.727646375E0,2.460624091E-5,-6.221700460E-5,-3.681775928E-2,3.681782007E-2
3.737603375E0,-1.701161033E-3,2.405213192E-3,-3.748687357E-2,3.760245589E-2
3.747560375E0,-2.258028137E-3,1.316246577E-3,-3.500800580E-2,3.510543642E-2
3.757517375E0,2.823533723E-4,-6.877211854E-4,-3.438179940E-2,3.438983591E-2
3.767473375E0,1.759875100E-3,-1.477348618E-3,-3.521004319E-2,3.528493816E-2
3.777430375E0,2.549463883E-3,-2.698143013E-3,-3.697283566E-2,3.715871793E-2
3.787387375E0,-8.018580265E-4,4.971176386E-4,-3.891454637E-2,3.892598132E-2
3.797343375E0,-6.471346132E-4,2.223853953E-3,-4.137032479E-2,4.143510689E-2
3.807300375E0,4.210592015E-4,-1.247310080E-3,-3.575771302E-2,3.578193837E-2
3.817257375E0,6.255922490E-4,4.302803427E-4,-3.587863222E-2,3.588666544E-2
3.827214375E0,2.064231783E-3,-8.805282414E-4,-3.504932299E-2,3.512109658E-2
3.837170375E0,8.671386749E-4,2.887668088E-4,-3.879199922E-2,3.880276433E-2
3.847127375E0,-1.885770936E-3,1.315149479E-3,-3.577943146E-2,3.585322114E-2
3.857084375E0,3.317160299E-4,1.310264692E-3,-3.961515799E-2,3.963820848E-2
3.867041375E0,9.317261865E-4,-1.406259835E-4,-3.905243427E-2,3.906380052E-2
3.876997375E0,8.944689762E-5,1.006796956E-3,-3.716775402E-2,3.718149513E-2
3.886954375E0,-1.666108961E-3,-8.299853653E-4,-3.342467919E-2,3.347646896E-2
3.896911375E0,-7.874274161E-5,4.694294184E-4,-3.389052302E-2,3.389386544E-2
3.906867375E0,-3.692936152E-4,4.212269560E-4,-3.742107749E-2,3.742527021E-2
3.916824375E0,1.150317956E-3,-1.111870632E-3,-3.750659525E-2,3.754070025E-2
3.926781375E0,9.284765692E-4,3.968086094E-5,-3.577607125E-2,3.578813934E-2
3.936738375E0,1.203811844E-3,4.918323830E-4,-4.088798910E-2,4.090866308E-2
3.946694375E0,1.081838971E-3,-1.920192502E-3,-3.727088496E-2,3.733599310E-2
3.956651375E0,1.067185192E-3,1.531452872E-3,-3.722250834E-2,3.726928171E-2
3.966608375E0,1.203006366E-3,-7.918896154E-4,-3.691437840E-2,3.694246400E-2
3.976565875E0,1.923017437E-3,-8.349055424E-4,-3.774362803E-2,3.780180577E-2
3.986521875E0,1.574409660E-3,-5.433242768E-5,-3.675612807E-2,3.678987182E-2
3.996478875E0,9.405551245E-4,1.118064858E-3,-3.787411004E-2,3.790228126E-2
4.006435875E0,-1.560685690E-3,-2.795450389E-3,-3.847146034E-2,3.860444979E-2
4.016391875E0,-1.488422393E-3,9.516999125E-4,-3.562473878E-2,3.566851759E-2
4.026348875E0,1.001366996E-3,4.331823438E-4,-3.685405478E-2,3.687020120E-2
4.036305875E0,8.594260435E-4,1.007837243E-3,-3.666485846E-2,3.668877478E-2
4.046262875E0,-1.457524020E-3,-2.909672447E-3,-3.676046431E-2,3.690423155E-2
4.056218875E0,-7.237900281E-4,1.150742173E-3,-3.899361566E-2,3.901730567E-2
4.066175875E0,-1.508889836E-3,-2.300981432E-3,-4.393857345E-2,4.402464652E-2
4.076132875E0,1.092870953E-3,-2.759512514E-3,-4.032832012E-2,4.043739210E-2
4.086089875E0,1.229757443E-3,2.336179838E-3,-3.888674825E-2,3.897626495E-2
4.096045875E0,9.894558461E-4,3.984570503E-4,-3.321558982E-2,3.323271277E-2
4.106002875E0,1.707177726E-3,-1.157997176E-4,-3.207788616E-2,3.212349057E-2
4.115959875E0,2.661974868E-3,1.561119221E-3,-3.514593840E-2,3.528115912E-2
4.125916875E0,1.850776025E-3,-1.812573522E-3,-4.231410101E-2,4.239332423E-2
4.135872875E0,2.075173659E-3,-1.314653084E-3,-4.090923816E-2,4.098292846E-2
4.145829875E0,-2.793270396E-4,6.824517623E-4,-3.706576675E-2,3.707310115E-2
4.155786875E0,4.526500124E-4,-4.716021940E-4,-3.520312160E-2,3.520919015E-2
4.165742875E0,-4.725321196E-4,5.595739931E-4,-3.432986885E-2,3.433768054E-2
4.175699875E0,6.844680756E-4,1.725656912E-4,-3.257141635E-2,3.257906442E-2
4.185656875E0,2.289555268E-3,7.584616542E-4,-3.658932447E-2,3.666873318E-2
4.195613875E0,8.209372172E-4,-5.988273770E-4,-3.866005689E-2,3.867340857E-2
4.205569875E0,1.230797730E-3,-8.480986580E-4,-3.985368460E-2,3.988170396E-2
4.215526875E0,6.612378638E-4,5.217790604E-4,-3.812121972E-2,3.813052428E-2
4.225483875E0,-2.696742071E-3,9.596031159E-4,-3.756781667E-2,3.767670508E-2
4.235440875E0,1.759505831E-4,-4.818756133E-4,-3.514749184E-2,3.515123533E-2
4.245396875E0,-1.766518690E-4,7.109539583E-4,-3.479728475E-2,3.480499515E-2
4.255353875E0,1.091508660E-3,1.555622555E-3,-3.692065552E-2,3.696953011E-2
4.265310875E0,-1.830245368E-3,-6.598606706E-4,-3.506470099E-2,3.511863422E-2
4.275266875E0,2.154487185E-3,-3.962535411E-4,-3.878183290E-2,3.884365322E-2
4.285223875E0,-7.486246759E-4,1.286864281E-3,-3.634424135E-2,3.637472114E-2
4.295180875E0,1.196644153E-3,3.692610189E-4,-3.733461350E-2,3.735561104E-2
4.305137875E0,-6.223213859E-5,8.001597598E-4,-3.768216074E-2,3.769070663E-2
4.315093875E0,8.282173076E-4,-7.497482002E-4,-3.823332861E-2,3.824964683E-2
4.325050875E0,-1.637869864E-3,-4.117935896E-4,-3.956730664E-2,3.960333251E-2
4.335007875E0,-8.230051026E-4,-8.167605847E-5,-3.939991817E-2,3.940859754E-2
4.344964875E0,-9.487061761E-4,-1.855390146E-4,-4.175069183E-2,4.176188138E-2
4.354920875E0,1.448858995E-3,-1.023393124E-3,-3.678721189E-2,3.682995364E-2
4.364877875E0,2.380157821E-5,4.906207323E-5,-3.896966949E-2,3.896970764E-2
4.374834875E0,2.159085590E-3,-2.325796522E-3,-3.726076335E-2,3.739566105E-2
4.384790875E0,-1.454557758E-3,1.117950305E-4,-3.635475785E-2,3.638401647E-2
4.394747875E0,-6.502241595E-4,8.780304343E-4,-4.062622041E-2,4.064090936E-2
4.404704875E0,1.498414204E-3,-4.676645622E-4,-4.050371796E-2,4.053412296E-2
4.414661875E0,1.140468172E-3,-5.680592731E-4,-4.198728874E-2,4.200661585E-2
4.424617875E0,8.653636323E-4,-4.146611318E-4,-3.549103811E-2,3.550400801E-2
4.434574875E0,-9.282134706E-4,1.470259391E-3,-3.329522908E-2,3.334059871E-2
4.444531875E0,9.514457197E-4,-2.505839802E-3,-3.027520515E-2,3.039362645E-2
4.454488875E0,-8.817295311E-4,6.677601486E-4,-3.600540757E-2,3.602239199E-2
4.464444875E0,-1.160296262E-3,4.254123196E-4,-4.076660424E-2,4.078533173E-2
4.474401875E0,1.232217182E-3,2.296360210E-3,-4.258912802E-2,4.266878783E-2
4.484358875E0,-1.196033554E-4,-5.425699055E-4,-4.114569724E-2,4.114944821E-2
4.494314875E0,-1.631213818E-4,-6.047654897E-4,-3.782385960E-2,3.782904579E-2
4.504271875E0,1.498691156E-3,-5.508866161E-5,-3.376679868E-2,3.380008584E-2
4.514228875E0,1.655815402E-3,1.805656590E-3,-3.227711469E-2,3.236995911E-2
4.524185875E0,2.236118307E-3,-2.699613571E-3,-3.547424078E-2,3.564701807E-2
4.534141875E0,8.585475734E-4,-6.931079552E-4,-4.154058918E-2,4.155524097E-2
4.544098875E0,1.652968465E-3,-1.329869963E-3,-4.449749738E-2,4.454804296E-2
4.554055875E0,8.366681868E-4,9.462181479E-4,-4.390785098E-2,4.392601416E-2
4.564012875E0,5.575689138E-4,-1.719339751E-3,-3.872773796E-2,3.876989425E-2
4.573968875E0,1.191838528E-3,-2.430565655E-5,-3.335692734E-2,3.337822151E-2
4.583925875E0,-3.557243617E-4,-1.452025957E-3,-2.941651642E-2,2.945447942E-2
4.593882875E0,1.470346819E-3,6.404416636E-4,-3.497358784E-2,3.501034035E-2
4.603839875E0,7.654081564E-4,1.552142203E-4,-4.146051407E-2,4.146786910E-2
4.613795875E0,4.638918908E-4,1.967039891E-3,-4.558264837E-2,4.562742896E-2
4.623752875E0,-5.089712795E-5,3.923131153E-4,-4.238738865E-2,4.238923468E-2
4.633709875E0,-1.306840801E-3,9.432043880E-4,-3.841226175E-2,3.844605728E-2
4.643665875E0,5.555077805E-4,1.256130636E-4,-3.281908855E-2,3.282402993E-2
4.653622875E0,1.465751790E-3,1.439187676E-3,-2.964449301E-2,2.971557934E-2
4.663579875E0,-8.996678516E-4,-8.468693122E-4,-3.377478942E-2,3.379738141E-2
4.673536875E0,-1.230051275E-3,-1.088311896E-3,-3.941530734E-2,3.944951079E-2
4.683492875E0,-2.302240115E-3,-5.231890827E-4,-3.934074193E-2,3.941152131E-2
4.693449875E0,-2.306933980E-3,1.175082289E-3,-4.165748134E-2,4.173785470E-2
4.703406875E0,3.029640066E-4,7.759314030E-5,-3.780148923E-2,3.780278292E-2
4.713363875E0,2.281500492E-3,1.055540517E-3,-3.321446106E-2,3.330945562E-2
4.723319875E0,1.216769451E-4,-1.503224485E-3,-2.885406837E-2,2.889345515E-2
4.733276875E0,-1.504147542E-3,-2.606754191E-3,-3.734052926E-2,3.746161706E-2
4.743233875E0,1.031714492E-3,-7.081860676E-4,-4.514039680E-2,4.515773894E-2
4.753190875E0,-1.764975721E-3,1.810761169E-4,-4.704558849E-2,4.707903275E-2
4.763146875E0,-7.569692098E-4,3.217878751E-3,-4.151073843E-2,4.164215594E-2
4.773103875E0,1.668022014E-5,-2.552409656E-3,-3.436392546E-2,3.445859031E-2
4.783060875E0,-3.391181817E-4,-1.194197685E-3,-3.054148890E-2,3.056670825E-2
4.793017875E0,3.812230192E-3,-2.918271348E-4,-3.189653903E-2,3.212487299E-2
4.802973875E0,4.348094808E-4,3.366786987E-4,-3.402839601E-2,3.403283924E-2
4.812930875E0,-6.837404799E-4,6.544142962E-4,-3.714262322E-2,3.715467963E-2
4.822887875E0,9.671531734E-4,1.848309301E-3,-4.114162549E-2,4.119447755E-2
4.832843875E0,-7.193669444E-4,1.096362248E-3,-3.831357509E-2,3.833600834E-2
4.842800875E0,-1.278630807E-3,-9.966362268E-5,-3.449886292E-2,3.452269359E-2
4.852757875E0,4.738921998E-4,1.592564397E-3,-3.460229933E-2,3.464217017E-2
4.862714875E0,2.290168079E-3,-1.452493481E-3,-3.375194967E-2,3.386072524E-2
4.872670875E0,-6.951426622E-4,-1.438269392E-4,-3.633175790E-2,3.633869208E-2
4.882627875E0,2.351513598E-3,2.836783417E-3,-4.138643295E-2,4.155013584E-2
4.892584875E0,1.077465364E-3,1.988768578E-3,-4.070854187E-2,4.077133200E-2
4.902541875E0,-2.261520131E-4,5.557946861E-5,-3.942037374E-2,3.942106162E-2
4.912497875E0,1.094281906E-3,-1.444049180E-3,-3.688832372E-2,3.693279245E-2
4.922454875E0,-6.953622214E-4,-1.719419844E-3,-3.637992591E-2,3.642717313E-2
4.932411875E0,2.307285788E-3,1.210347749E-3,-3.744063154E-2,3.753117903E-2
4.942367875E0,-1.999578206E-3,7.498878986E-4,-3.547947854E-2,3.554369202E-2
4.952324875E0,-1.434189035E-3,1.006604172E-3,-3.904418647E-2,3.908348305E-2
4.962281875E0,-1.524736406E-3,-1.461613923E-3,-3.842660040E-2,3.848460412E-2
4.972238875E0,-1.857835450E-3,4.665395245E-4,-3.983402625E-2,3.988005590E-2
4.982195333E0,2.771271393E-3,-9.113801643E-4,-3.937250003E-2,3.948042955E-2
4.992152333E0,-9.876871482E-4,-8.274894208E-5,-3.751688451E-2,3.752997464E-2
5.002109333E0,-8.729049005E-4,-1.900356263E-3,-3.501244634E-2,3.507484449E-2
5.012066333E0,-1.852668356E-3,-1.027416438E-4,-3.328851983E-2,3.334019329E-2
5.022022333E0,3.433743259E-4,8.765021339E-4,-3.673971072E-2,3.675176874E-2
5.031979333E0,-8.396807825E-4,-3.523267806E-4,-3.466316313E-2,3.467512186E-2
5.041936333E0,-5.808215356E-4,1.021597534E-3,-3.935698420E-2,3.937452502E-2
5.051893333E0,1.881068456E-3,8.142618462E-4,-4.108564556E-2,4.113674406E-2
5.061849333E0,5.644015619E-4,-1.343697309E-3,-4.077645391E-2,4.080249092E-2
5.071806333E0,2.093265532E-3,4.336259328E-3,-3.767454624E-2,3.798099972E-2
5.081763333E0,-6.785525475E-4,1.230480149E-3,-3.682073206E-2,3.684753485E-2
5.091719333E0,-1.618609414E-3,1.234034076E-3,-3.605894744E-2,3.611634571E-2
5.101676333E0,1.589700812E-3,-8.434979245E-4,-3.483948857E-2,3.488593701E-2
5.111633333E0,2.548769815E-3,-5.978522822E-4,-3.619002178E-2,3.628458807E-2
5.121590333E0,5.801611696E-4,1.350516453E-3,-3.762067109E-2,3.764937417E-2
5.131546333E0,2.976500895E-3,-1.475941390E-4,-3.950029612E-2,3.961255779E-2
5.141503333E0,-7.721646689E-4,-1.747580245E-4,-3.954530507E-2,3.955322910E-2
5.151460333E0,-1.082383562E-3,6.462074816E-5,-3.881250322E-2,3.882764654E-2
5.161417333E0,3.587469459E-3,-2.735426649E-3,-3.789264709E-2,3.816025680E-2
5.171373333E0,1.111471676E-3,-1.772316173E-3,-3.720908239E-2,3.726784521E-2
5.181330333E0,-1.982855145E-3,-7.744291797E-4,-3.705994412E-2,3.712103061E-2
5.191287333E0,-1.959545771E-4,-5.671614781E-4,-3.491076827E-2,3.491592490E-2
5.201244333E0,-9.003607556E-4,-2.603651956E-4,-3.730015829E-2,3.731193171E-2
5.211200333E0,-8.396807825E-4,-5.399063230E-4,-3.572198376E-2,3.573592991E-2
5.221157333E0,-1.712931436E-3,-1.271162182E-4,-3.590387851E-2,3.594494102E-2
5.231114333E0,-3.014277667E-3,7.921857759E-4,-3.552523255E-2,3.566168218E-2
5.241071333E0,5.359823699E-4,7.073488086E-5,-3.794577718E-2,3.794962827E-2
5.251027333E0,-1.701860456E-3,1.247428358E-3,-3.780119866E-2,3.786004526E-2
5.260984333E0,1.837746939E-3,-1.579215750E-4,-4.051949084E-2,4.056145203E-2
5.270941333E0,-4.223332508E-4,-8.880561218E-4,-4.174005985E-2,4.175164195E-2
5.280897333E0,-9.509706870E-4,-1.181269996E-3,-4.080049694E-2,4.082867000E-2
5.290854333E0,-1.343641081E-3,-9.702425450E-5,-3.971100971E-2,3.973385304E-2
5.300811333E0,2.380104270E-4,-5.191359669E-4,-3.526619449E-2,3.527081832E-2
5.310768333E0,2.181173768E-3,1.234257594E-3,-3.554135934E-2,3.562961036E-2
5.320724333E0,-3.936991561E-5,-9.138481691E-4,-3.855126724E-2,3.856211708E-2
5.330681333E0,-8.476410294E-4,9.105810896E-4,-4.050463066E-2,4.052373080E-2
5.340638333E0,2.610207070E-3,-7.341876626E-4,-4.189293832E-2,4.198059663E-2
5.350595333E0,2.782035619E-3,8.945520967E-4,-4.016796127E-2,4.027412393E-2
5.360551333E0,2.183356788E-3,-1.103618182E-3,-3.866620734E-2,3.874352346E-2
5.370508333E0,2.058256650E-4,1.508379355E-4,-3.264805675E-2,3.264905398E-2
5.380465333E0,1.156574115E-3,-1.768768765E-3,-3.449522704E-2,3.455990300E-2
5.390422333E0,-2.067475114E-3,1.193379052E-3,-3.778364509E-2,3.785898101E-2
5.400378333E0,4.587995354E-4,2.130698413E-4,-4.073869064E-2,4.074183122E-2
5.410335333E0,-2.413549228E-4,-3.114128485E-4,-3.455519676E-2,3.455744281E-2
5.420292333E0,-5.473522469E-4,-1.569492742E-4,-3.137058765E-2,3.137575492E-2
5.430248333E0,1.643331372E-3,-8.956221864E-4,-3.135793284E-2,3.141373312E-2
5.440205333E0,-1.845409744E-3,-1.636513509E-3,-3.198777139E-2,3.208272483E-2
5.450162333E0,2.763184020E-4,1.344593242E-3,-2.998301387E-2,3.001441993E-2
5.460119333E0,4.622130655E-5,3.112200648E-5,-3.154815361E-2,3.154820282E-2
5.470075333E0,4.039646592E-4,2.300471999E-3,-3.386379778E-2,3.394425075E-2
5.480032333E0,3.507015062E-4,3.624903038E-4,-3.595650941E-2,3.596004672E-2
5.489989333E0,-5.413780455E-4,5.300063640E-5,-3.477215394E-2,3.477640851E-2
5.499946333E0,8.674341952E-4,-1.442098059E-3,-3.486189991E-2,3.490249496E-2
5.509902333E0,1.067751320E-3,-1.127204858E-3,-3.301826864E-2,3.305475379E-2
5.519859333E0,1.322882250E-3,-3.032227978E-4,-3.217857331E-2,3.220718153E-2
5.529816333E0,-8.098601829E-4,2.135173418E-3,-3.356833756E-2,3.364592287E-2
5.539773333E0,-4.316912964E-4,2.869395539E-4,-3.354090452E-2,3.354490972E-2
5.549729333E0,5.028498126E-4,1.781564206E-3,-3.273697197E-2,3.278926902E-2
5.559686333E0,-8.332580328E-4,2.457740717E-3,-3.486669809E-2,3.496314408E-2
5.569643333E0,-1.719286665E-3,1.197550446E-3,-3.526505083E-2,3.532723997E-2
5.579600333E0,4.000569461E-4,-3.594542854E-3,-3.375690430E-2,3.395010121E-2
5.589556333E0,-2.240529284E-5,6.641605869E-4,-3.209359199E-2,3.210047130E-2
5.599513333E0,-1.968377037E-3,5.403235555E-4,-3.237109259E-2,3.243538335E-2
5.609470333E0,5.718237371E-4,-1.689633355E-4,-3.443795443E-2,3.444311595E-2
5.619427333E0,1.581694465E-3,8.401079103E-4,-3.457270935E-2,3.461906658E-2
5.629383333E0,8.649044321E-4,1.003008336E-3,-3.480542451E-2,3.483061384E-2
5.639340333E0,-1.734873280E-3,2.083219588E-4,-2.925060317E-2,2.930274678E-2
5.649297333E0,-7.590143941E-4,-7.466133684E-4,-3.272190690E-2,3.273922304E-2
5.659253333E0,-2.528685145E-3,6.539430469E-4,-3.196690232E-2,3.207342722E-2
5.669210333E0,3.614650341E-4,-3.057131544E-4,-3.208427131E-2,3.208776376E-2
5.679167333E0,-3.072415013E-3,-2.628256567E-3,-3.383663297E-2,3.407734140E-2
5.689124333E0,2.065869980E-3,-4.012305290E-4,-3.200369701E-2,3.207281445E-2
5.699080333E0,1.168384682E-3,-1.167155802E-3,-3.241169453E-2,3.245374119E-2
5.709037333E0,-1.101712696E-4,1.829301938E-3,-3.158289567E-2,3.163602032E-2
5.718994333E0,-2.625040943E-4,1.680226997E-4,-3.051470220E-2,3.051629385E-2
5.728951333E0,-4.128841683E-4,-3.485167399E-4,-3.249645606E-2,3.250094758E-2
5.738907333E0,1.175957732E-3,-1.626035199E-3,-3.162080795E-2,3.168441829E-2
5.748864333E0,7.738826098E-4,-2.868464217E-4,-3.158382326E-2,3.159460503E-2
5.758821333E0,-5.811336450E-4,-1.666363329E-3,-3.431089967E-2,3.435625590E-2
5.768778333E0,-3.734778147E-4,1.506039873E-3,-3.084207885E-2,3.088108595E-2
5.778734333E0,-2.594945254E-4,9.609386325E-6,-3.141172975E-2,3.141280306E-2
5.788691333E0,9.109518141E-4,-1.144800335E-4,-2.974773943E-2,2.976190418E-2
5.798648333E0,3.769880859E-4,1.525495201E-3,-2.820283920E-2,2.824658199E-2
5.808605333E0,-1.276995987E-3,-8.288519457E-4,-3.160850331E-2,3.164514490E-2
5.818561333E0,2.993116621E-3,1.034561545E-3,-3.342983872E-2,3.357950538E-2
5.828518333E0,9.688411374E-4,1.018451527E-3,-3.902039677E-2,3.904570733E-2
5.838475333E0,-1.824814710E-3,3.095185384E-4,-3.522272408E-2,3.527132039E-2
5.848431333E0,-1.338512404E-3,-5.417373031E-4,-3.260699660E-2,3.263895405E-2
5.858388333E0,-5.392977037E-4,-3.633061424E-4,-2.944928594E-2,2.945646407E-2
5.868345333E0,8.629241493E-4,9.716004133E-4,-2.713753656E-2,2.716863147E-2
5.878302333E0,-5.698564928E-4,7.180674002E-4,-2.901852876E-2,2.903300481E-2
5.888258333E0,4.864002694E-4,-2.470972016E-3,-3.383158892E-2,3.392519266E-2
5.898215333E0,1.284549595E-3,5.402648821E-4,-3.634694591E-2,3.637365023E-2
5.908172333E0,-2.705934457E-5,-1.473298296E-3,-3.369105607E-2,3.372326496E-2
5.918129333E0,-9.085657075E-4,5.136150867E-5,-2.734554559E-2,2.736068335E-2
5.928085333E0,-1.942313625E-3,2.607889473E-4,-2.676688507E-2,2.683853069E-2
5.938042333E0,-1.535915188E-3,-3.719776869E-4,-2.636634931E-2,2.641366652E-2
5.947999333E0,1.010747510E-3,8.750045672E-4,-2.946547605E-2,2.949578822E-2
5.957956333E0,-8.318935288E-4,-1.692549326E-3,-3.116643615E-2,3.122344492E-2
5.967912333E0,-5.331895081E-4,5.162917078E-4,-3.656977415E-2,3.657730484E-2
5.977868833E0,-2.458122559E-3,-4.403162748E-4,-3.390448168E-2,3.399632514E-2
5.987825833E0,-1.748591196E-3,4.748580977E-4,-2.613873407E-2,2.620145951E-2
5.997782833E0,8.623718750E-4,-2.739843912E-3,-2.629985660E-2,2.645624477E-2
6.007738833E0,-1.023022691E-3,2.093780786E-4,-2.523887530E-2,2.526046795E-2
6.017695833E0,3.330588806E-4,1.899367198E-4,-2.793585882E-2,2.793848979E-2
6.027652833E0,1.488071168E-3,-3.107003868E-4,-3.386992589E-2,3.390402292E-2
6.037609833E0,5.152184167E-4,-4.124324769E-4,-3.956349567E-2,3.956899973E-2
6.047565833E0,2.897678642E-4,-6.276797503E-4,-3.535030037E-2,3.535705988E-2
6.057522833E0,-1.107858960E-3,1.305508427E-3,-2.744976804E-2,2.750311744E-2
6.067479833E0,-2.283032052E-3,1.103257760E-3,-2.547102794E-2,2.559692711E-2
6.077435833E0,2.584228059E-4,9.930022061E-4,-2.474211901E-2,2.476338606E-2
6.087392833E0,-2.937242622E-3,6.337994710E-4,-2.611996420E-2,2.629223508E-2
6.097349833E0,3.938392038E-4,1.365103759E-3,-3.273445368E-2,3.276527240E-2
6.107306833E0,1.430870616E-3,5.232607946E-4,-3.626992553E-2,3.630191029E-2
6.117262833E0,-2.517531859E-3,-7.701572031E-5,-3.381342441E-2,3.390710203E-2
6.127219833E0,-5.793562159E-4,3.025094047E-4,-3.063037992E-2,3.063735203E-2
6.137176833E0,-2.326127142E-4,-1.331837848E-4,-2.480045334E-2,2.480190179E-2
6.147133833E0,3.182113636E-3,1.861475408E-3,-2.709653601E-2,2.734617344E-2
6.157089833E0,-3.388515906E-4,-1.600899734E-3,-2.518944442E-2,2.524253970E-2
6.167046833E0,-6.790063344E-4,4.459125921E-4,-3.041038290E-2,3.042123067E-2
6.177003833E0,-6.209495477E-4,1.156178303E-3,-3.321655467E-2,3.324247029E-2
6.186960833E0,-2.959924052E-3,2.655263059E-3,-3.488572687E-2,3.511161505E-2
6.196916833E0,-3.428356722E-4,1.875489019E-3,-3.487986699E-2,3.493193548E-2
6.206873833E0,-1.315869740E-3,9.765382856E-4,-2.883563191E-2,2.888215379E-2
6.216830833E0,-5.688528763E-4,-1.371837221E-3,-2.740737796E-2,2.744758455E-2
6.226787833E0,1.546662650E-3,-5.365014076E-4,-2.718766779E-2,2.723691023E-2
6.236743833E0,-1.601992641E-3,-3.659857437E-3,-3.005615994E-2,3.032051595E-2
6.246700833E0,-1.116870320E-3,-1.392022707E-3,-3.120106459E-2,3.125206486E-2
6.256657833E0,-6.926286733E-4,-7.166443393E-4,-3.289243579E-2,3.290753175E-2
6.266614833E0,1.855816343E-3,1.077828929E-3,-3.106469661E-2,3.113874026E-2
6.276570833E0,9.388900362E-4,-6.188713014E-4,-3.039251640E-2,3.041331237E-2
6.286527833E0,1.746150083E-3,-1.393414102E-3,-2.911317721E-2,2.919876248E-2
6.296484833E0,-6.435043178E-4,-1.337388530E-4,-3.309806436E-2,3.310458954E-2
6.306441833E0,2.020409796E-3,9.097382426E-4,-2.990515903E-2,2.998713417E-2
6.316397833E0,6.169239059E-4,-1.368862577E-3,-2.996561304E-2,3.000320557E-2
6.326354833E0,5.206170608E-4,2.818312496E-4,-3.147025406E-2,3.147582186E-2
6.336311833E0,7.102341624E-4,-9.573381394E-4,-3.070326336E-2,3.072639435E-2
6.346267833E0,2.852029633E-3,-1.004530117E-3,-2.908033319E-2,2.923711566E-2
6.356224833E0,5.665047211E-4,-1.162189990E-3,-3.138956428E-2,3.141617989E-2
6.366181833E0,-2.103684936E-3,-2.654762939E-3,-3.238592669E-2,3.256257828E-2
6.376138833E0,7.411037222E-4,-2.600485459E-4,-3.084235638E-2,3.085235497E-2
6.386094833E0,2.809886821E-3,5.723675713E-4,-2.905524522E-2,2.919640977E-2
6.396051833E0,3.994598519E-4,-2.311542630E-5,-2.935911343E-2,2.936183992E-2
6.406008833E0,2.653114498E-4,-5.861837417E-4,-3.078085929E-2,3.078758354E-2
6.415965833E0,3.990021069E-4,7.334128022E-4,-3.229327127E-2,3.230406269E-2
6.425921833E0,3.376397770E-3,7.208324969E-4,-2.893965505E-2,2.914486740E-2
6.435878833E0,-2.703066450E-3,-1.409430057E-3,-3.299591690E-2,3.313643906E-2
6.445835833E0,5.625974736E-4,1.938454807E-3,-3.062335029E-2,3.068979808E-2
6.455792833E0,1.910157036E-3,1.123249531E-4,-3.123268113E-2,3.129123978E-2
6.465748833E0,7.110868464E-4,1.712334342E-3,-3.197765350E-2,3.203136052E-2
6.475705833E0,-1.594944391E-3,4.204353318E-4,-3.334438428E-2,3.338515503E-2
6.485662833E0,-5.384529941E-4,-1.927036792E-4,-3.367301077E-2,3.367786692E-2
6.495619833E0,4.567702999E-4,2.369523048E-3,-3.347966447E-2,3.356651921E-2
6.505575833E0,7.138086949E-4,2.207179554E-3,-3.096909076E-2,3.105584884E-2
6.515532833E0,-1.444150694E-3,-1.094341278E-3,-2.730830759E-2,2.736835431E-2
6.525489833E0,-5.486130249E-5,3.768829629E-4,-2.616291493E-2,2.616568685E-2
6.535446833E0,-2.910835901E-4,2.208338119E-3,-2.970545366E-2,2.978884799E-2
6.545402833E0,-4.072616575E-4,-4.885960370E-4,-2.999757975E-2,3.000432268E-2
6.555359833E0,9.493525140E-4,1.032601111E-3,-3.250734508E-2,3.253759394E-2
6.565316833E0,8.427409921E-5,1.277298667E-3,-3.169833124E-2,3.172416740E-2
6.575273833E0,3.631070722E-4,-1.612231135E-3,-2.959096991E-2,2.963708211E-2
6.585229833E0,1.907867729E-3,2.101878636E-3,-2.989784814E-2,3.003230222E-2
6.595186833E0,-1.121477922E-3,-3.024842590E-5,-2.611349709E-2,2.613758516E-2
6.605143833E0,9.644548409E-4,6.542336196E-4,-2.811844274E-2,2.814258370E-2
6.615100833E0,-3.823908977E-3,7.892558351E-4,-3.158028424E-2,3.182074099E-2
6.625056833E0,1.441200264E-3,-7.178140804E-4,-3.504989669E-2,3.508685755E-2
6.635013833E0,-1.918501221E-4,-1.118087210E-3,-3.201495856E-2,3.203505107E-2
6.644970833E0,-5.623658653E-4,1.382742077E-3,-2.950576134E-2,2.954349646E-2
6.654927833E0,-2.270517405E-3,3.068251535E-4,-2.850201540E-2,2.859395518E-2
6.664883833E0,-4.830999533E-4,-1.126511954E-3,-3.048866615E-2,3.051329511E-2
6.674840833E0,1.284440048E-3,-9.203832597E-4,-3.027375042E-2,3.031496093E-2
6.684797833E0,1.056820387E-3,3.742519766E-5,-3.230702877E-2,3.232433105E-2
6.694753833E0,2.038098173E-4,7.271841168E-4,-2.912055887E-2,2.913034988E-2
6.704710833E0,-1.723166788E-4,1.001250930E-3,-2.890558913E-2,2.892343824E-2
6.714667833E0,-1.856233459E-3,1.118696295E-3,-2.752260864E-2,2.760780814E-2
6.724624833E0,-1.744411653E-3,-7.113162428E-4,-2.694067545E-2,2.700646102E-2
6.734580833E0,2.897107042E-4,-4.929369316E-4,-3.254183382E-2,3.254685649E-2
6.744537833E0,-2.424493432E-4,1.177126542E-4,-2.929896861E-2,2.930020819E-2
6.754494833E0,-5.447180010E-4,-7.025403902E-4,-3.272778913E-2,3.273986045E-2
6.764451833E0,2.413056325E-3,-6.515234709E-4,-2.929119207E-2,2.939764032E-2
6.774407833E0,2.203998156E-3,-3.588423133E-4,-2.604053728E-2,2.613610449E-2
6.784364833E0,7.803562330E-4,6.971573457E-4,-2.582056262E-2,2.584175764E-2
6.794321833E0,1.249871450E-3,-1.278108917E-3,-2.627356537E-2,2.633431180E-2
6.804278833E0,-1.104394440E-3,-2.359771170E-3,-2.994335815E-2,3.005649521E-2
6.814234833E0,2.185639460E-5,-1.039110124E-3,-3.311678022E-2,3.313308558E-2
6.824191833E0,-2.327930415E-3,3.033095039E-3,-3.395260870E-2,3.416721474E-2
6.834148833E0,1.691312296E-3,-2.708220854E-4,-3.410813957E-2,3.415112102E-2
6.844105833E0,1.096140943E-3,1.658566296E-3,-3.061646782E-2,3.068094635E-2
6.854061833E0,1.701211091E-3,1.132591628E-3,-2.891310863E-2,2.898525028E-2
6.864018833E0,1.789870905E-3,-4.943255335E-4,-2.812406793E-2,2.818530100E-2
6.873975833E0,-1.161177759E-3,1.297716051E-3,-3.259631246E-2,3.264279380E-2
6.883932833E0,1.364156720E-3,3.099320456E-4,-3.155038506E-2,3.158138342E-2
6.893888833E0,1.419284148E-3,1.185313798E-3,-3.264467791E-2,3.269700800E-2
6.903845833E0,3.581152996E-4,-9.984215721E-4,-3.498987854E-2,3.500595224E-2
6.913802833E0,-2.624011831E-4,-2.344915643E-3,-3.415418044E-2,3.423558858E-2
6.923759833E0,5.731059937E-4,-5.834726617E-4,-3.206647187E-2,3.207689993E-2
6.933715833E0,-1.940119080E-3,1.484471373E-3,-2.887840383E-2,2.898154456E-2
6.943672833E0,3.320331220E-3,-3.320910037E-4,-2.868020907E-2,2.887367791E-2
6.953629833E0,-6.887912750E-4,7.137330249E-4,-2.864399180E-2,2.866116038E-2
6.963586833E0,2.715361770E-4,2.169578336E-3,-2.877476439E-2,2.885771765E-2
6.973542833E0,-1.379091060E-3,2.334602177E-4,-3.073991090E-2,3.077171620E-2
6.983499708E0,-7.809165400E-4,-2.393488772E-3,-3.222337738E-2,3.232158209E-2
6.993456708E0,-4.301782465E-4,1.734677702E-3,-3.130272031E-2,3.135369928E-2
7.003413708E0,9.906950872E-4,-5.457354710E-4,-2.974583581E-2,2.976733196E-2
7.013369708E0,1.798698097E-3,-1.894626766E-3,-2.851013094E-2,2.862957373E-2
7.023326708E0,1.007523038E-3,1.946336590E-3,-3.215922415E-2,3.223381806E-2
7.033283708E0,-1.027131919E-3,-7.735500112E-4,-3.122259118E-2,3.124905726E-2
7.043240708E0,-4.080083454E-4,1.611637883E-3,-3.346389532E-2,3.350516583E-2
7.053196708E0,-1.680576243E-4,-1.400397159E-3,-3.298985213E-2,3.301998939E-2
7.063153708E0,-1.752619166E-3,1.881957054E-3,-3.364254162E-2,3.374068824E-2
7.073110708E0,-2.033582656E-3,1.988392323E-4,-3.303933516E-2,3.310245706E-2
7.083067708E0,6.589283585E-4,8.826591074E-4,-3.303959221E-2,3.305794801E-2
7.093023708E0,-8.995535318E-4,-5.527846515E-4,-3.050479479E-2,3.052306133E-2
7.102980708E0,2.474899171E-3,-3.183968365E-4,-2.334565297E-2,2.347862890E-2
7.112937708E0,-2.427259460E-7,1.672582701E-3,-2.702907100E-2,2.708077200E-2
7.122894708E0,3.929813392E-4,1.080607995E-3,-2.501609176E-2,2.504250377E-2
7.132850708E0,1.044390490E-3,-1.052050851E-3,-2.863346040E-2,2.867180875E-2
7.142807708E0,4.428186803E-4,1.659271307E-3,-2.765780129E-2,2.771106713E-2
7.152764708E0,-1.939431531E-4,6.904136389E-4,-2.977634780E-2,2.978498235E-2
7.162721708E0,1.292316359E-3,-1.314440742E-3,-2.747011557E-2,2.753189215E-2
7.172677708E0,3.098205896E-3,8.507091552E-4,-2.397631481E-2,2.419062335E-2
7.182634708E0,8.030345198E-4,2.178288996E-4,-2.248051018E-2,2.249590300E-2
7.192591708E0,1.796127297E-3,1.736363396E-3,-2.532716468E-2,2.545007469E-2
7.202547708E0,-2.435271163E-4,7.271068171E-4,-2.892796509E-2,2.893812630E-2
7.212504708E0,2.351190662E-3,1.062931493E-3,-2.964488603E-2,2.975696874E-2
7.222461708E0,2.870502882E-3,2.219233662E-3,-2.814786136E-2,2.838074848E-2
7.232418708E0,4.377053119E-4,-2.001876943E-3,-2.726342529E-2,2.734032655E-2
7.242374708E0,1.088775694E-3,8.964054286E-4,-2.645868249E-2,2.649624227E-2
7.252331708E0,2.438731957E-3,1.124372706E-3,-2.507463656E-2,2.521802979E-2
7.262288708E0,5.014370545E-4,3.208145499E-4,-2.466068417E-2,2.466786786E-2
7.272245708E0,-6.517115980E-4,-4.027662799E-4,-2.768683434E-2,2.769743209E-2
7.282201708E0,-1.062515075E-3,2.968246117E-4,-3.052362613E-2,3.054355571E-2
7.292158708E0,1.026202110E-3,-2.973265946E-4,-2.865754627E-2,2.867745546E-2
7.302115708E0,1.082224539E-3,-3.514448181E-4,-2.848932892E-2,2.851204282E-2
7.312072708E0,8.513708599E-5,-1.470238902E-3,-2.668743581E-2,2.672803922E-2
7.322028708E0,1.109499834E-3,3.175241873E-4,-2.520010434E-2,2.522651522E-2
7.331985708E0,2.799008507E-5,1.203292049E-3,-2.267063595E-2,2.270256439E-2
7.341942708E0,-1.714262879E-3,-1.161079854E-3,-2.585839108E-2,2.594114864E-2
7.351899708E0,-1.641292125E-3,-9.078131989E-4,-2.791062370E-2,2.797357467E-2
7.361855708E0,8.934935904E-4,-1.400231384E-3,-2.871606871E-2,2.876406754E-2
7.371812708E0,-1.759547507E-3,8.259043097E-4,-2.845427766E-2,2.852058980E-2
7.381769708E0,5.206157803E-4,-2.675433643E-3,-2.462693304E-2,2.477730447E-2
7.391726708E0,2.919857623E-3,-2.189334482E-4,-2.396114543E-2,2.413938671E-2
7.401682708E0,3.642351367E-4,1.103455201E-3,-2.637665346E-2,2.640223719E-2
7.411639708E0,-1.646686578E-4,-7.338589057E-4,-2.746801451E-2,2.747830937E-2
7.421596708E0,-8.858654182E-4,-1.313840039E-3,-2.912548929E-2,2.916856287E-2
7.431553708E0,-1.313835615E-3,5.088271573E-4,-2.896889299E-2,2.900313483E-2
7.441509708E0,-1.681043766E-3,1.153407618E-3,-2.804829925E-2,2.812229273E-2
7.451466708E0,-1.859450713E-4,-1.654096879E-3,-2.585545182E-2,2.590897530E-2
7.461423708E0,2.080065897E-3,1.423303038E-4,-2.582332306E-2,2.590735312E-2
7.471380708E0,3.194332588E-3,-1.784732565E-3,-2.253139205E-2,2.282657790E-2
7.481336708E0,4.503305536E-5,9.139254689E-4,-2.334340848E-2,2.336133573E-2
7.491293708E0,-2.544891089E-3,1.653106883E-4,-2.535649203E-2,2.548441654E-2
7.501250708E0,5.928693572E-4,1.962911338E-4,-2.422977425E-2,2.423782137E-2
7.511207708E0,1.086885692E-3,1.064214855E-3,-2.533951588E-2,2.538513224E-2
7.521163708E0,-1.082872623E-3,3.332733177E-3,-2.517567575E-2,2.541838651E-2
7.531120708E0,-1.760805026E-5,-2.950709313E-5,-2.671737969E-2,2.671740179E-2
7.541077708E0,-7.946854457E-4,6.948523223E-4,-2.551583946E-2,2.553766645E-2
7.551034708E0,-2.154229209E-3,8.328044787E-4,-2.608575672E-2,2.618780194E-2
7.560990708E0,1.682381844E-3,4.631830379E-4,-2.388052084E-2,2.394418975E-2
7.570947708E0,1.752156764E-3,5.052611232E-4,-2.691466175E-2,2.697636668E-2
7.580904708E0,-9.128171951E-4,2.346479334E-3,-2.613742277E-2,2.625840950E-2
7.590861708E0,-2.994912211E-4,-4.775365815E-4,-2.662264928E-2,2.662861602E-2
7.600817708E0,-7.913814625E-4,-1.512493007E-3,-2.751144394E-2,2.756435139E-2
7.610774708E0,9.601797210E-4,1.928044483E-3,-2.530767769E-2,2.539917027E-2
7.620731708E0,8.800253272E-5,1.053186134E-3,-2.545293421E-2,2.547486615E-2
7.630688708E0,-1.138651278E-4,9.479904547E-4,-2.242092788E-2,2.244124904E-2
7.640644708E0,-1.996342093E-3,4.486460239E-5,-2.333942242E-2,2.342468855E-2
7.650601708E0,5.552324583E-4,-1.509622671E-3,-2.730753087E-2,2.735486219E-2
7.660558708E0,-1.800669241E-3,6.079021841E-4,-2.606440336E-2,2.613360054E-2
7.670515708E0,2.339858329E-4,-7.476471364E-4,-2.658318728E-2,2.659472827E-2
7.680471708E0,5.623328034E-4,-1.690468751E-3,-2.342748083E-2,2.349512207E-2
7.690428708E0,5.945570301E-4,-1.072194427E-4,-2.331376262E-2,2.332158917E-2
7.700385708E0,-4.169720924E-4,1.838575117E-3,-2.267392911E-2,2.275217101E-2
7.710342708E0,-3.024739446E-3,1.623816788E-4,-2.429073490E-2,2.447887290E-2
7.720298708E0,-8.709728718E-5,-1.762787811E-3,-2.344765887E-2,2.351398973E-2
7.730255708E0,1.575247850E-3,-5.587730557E-4,-2.529136464E-2,2.534653346E-2
7.740212708E0,-1.092204126E-3,4.052454606E-4,-2.696521208E-2,2.699036488E-2
7.750169708E0,-3.039083676E-4,1.659328118E-3,-2.727573738E-2,2.732785355E-2
7.760125708E0,2.588191070E-3,-2.197977155E-4,-2.450787090E-2,2.464513705E-2
7.770082708E0,1.594832051E-3,8.758269250E-4,-2.451266535E-2,2.458010017E-2
7.780039708E0,-9.028653149E-4,5.030939355E-4,-2.702286653E-2,2.704262533E-2
7.789996708E0,-6.850187201E-4,-5.962587893E-4,-2.628277056E-2,2.629845629E-2
7.799952708E0,1.696049236E-3,1.365621574E-3,-2.565690130E-2,2.574913765E-2
7.809909708E0,-3.718956141E-3,1.613395289E-4,-2.310932055E-2,2.340720747E-2
7.819866708E0,3.351094434E-3,-1.619406044E-3,-2.411260828E-2,2.439815952E-2
7.829823708E0,-1.157104620E-3,-4.798388109E-4,-2.394376323E-2,2.397650796E-2
7.839779708E0,1.260147314E-3,-2.534355968E-3,-2.117869444E-2,2.136698457E-2
7.849736708E0,3.714504419E-4,-1.802518964E-3,-2.209695242E-2,2.217346063E-2
7.859693708E0,-1.875115791E-3,-1.482785679E-3,-2.325171418E-2,2.337427914E-2
7.869650708E0,1.103363698E-3,-1.377590932E-3,-2.460886352E-2,2.467207595E-2
7.879606708E0,-6.274833577E-4,-1.827962697E-3,-2.442206629E-2,2.449841841E-2
7.889563708E0,-1.305790502E-3,-1.182127744E-4,-2.241910063E-2,2.245740715E-2
7.899520708E0,-1.808555797E-3,3.129122779E-4,-2.150314115E-2,2.158133146E-2
7.909477708E0,4.098574864E-4,-2.239812165E-4,-2.139475383E-2,2.139985145E-2
7.919433708E0,6.573253777E-4,-1.098749228E-3,-2.222445980E-2,2.226131038E-2
7.929390708E0,-1.301695942E-3,4.865229130E-6,-2.154801786E-2,2.158729973E-2
7.939347708E0,-1.801547827E-3,5.651647225E-4,-2.626505680E-2,2.633283491E-2
7.949304708E0,-2.559749642E-3,2.667307854E-5,-2.341387980E-2,2.355340308E-2
7.959260708E0,-1.460440224E-3,5.233613774E-4,-2.124556154E-2,2.130212848E-2
7.969217708E0,2.181699034E-3,-2.849074081E-4,-2.128257975E-2,2.139600859E-2
7.979175000E0,1.984436065E-3,-1.584175043E-3,-2.553555742E-2,2.566149430E-2
7.989132000E0,-1.221210929E-3,-6.035985425E-4,-2.668204531E-2,2.671679676E-2
7.999088000E0,-1.681232126E-3,-8.228458464E-4,-2.582037263E-2,2.588812970E-2
8.009045000E0,-1.828238601E-3,1.294633374E-3,-2.237344347E-2,2.248531753E-2
8.019002000E0,2.184375189E-4,-4.468504339E-4,-2.278138325E-2,2.278681226E-2
8.028959000E0,1.015787944E-3,1.252512448E-3,-2.076643705E-2,2.082895870E-2
8.038915000E0,1.167315990E-3,-1.800418831E-3,-2.363185398E-2,2.372906777E-2
8.048872000E0,1.198947430E-4,-2.093099989E-3,-2.325501479E-2,2.334932880E-2
8.058829000E0,-1.587414183E-3,-6.090449169E-4,-2.545722201E-2,2.551393682E-2
8.068786000E0,-1.170629403E-3,-2.745965496E-3,-2.177140862E-2,2.197509802E-2
8.078742000E0,-3.817941062E-3,-1.692017540E-3,-2.198791504E-2,2.238097418E-2
8.088699000E0,-1.334574772E-4,-1.706131734E-3,-2.153065056E-2,2.159855573E-2
8.098656000E0,-3.766122973E-4,-7.865540683E-4,-2.213832736E-2,2.215549689E-2
8.108613000E0,7.355238195E-4,-8.938796818E-4,-2.028503641E-2,2.031803924E-2
8.118569000E0,-1.225162763E-3,-6.745299324E-4,-2.119703777E-2,2.124312653E-2
8.128526000E0,1.403377275E-3,-2.066129819E-4,-2.210384421E-2,2.214931343E-2
8.138483000E0,6.375680096E-4,-4.475815222E-4,-1.931554452E-2,1.933124626E-2
8.148440000E0,9.310484165E-4,-1.026020385E-3,-1.791206002E-2,1.796556326E-2
8.158396000E0,1.074280706E-3,2.208298072E-3,-2.162081562E-2,2.175983289E-2
8.168353000E0,5.965096061E-4,-2.039931715E-4,-2.350074239E-2,2.350919671E-2
8.178310000E0,1.998110441E-3,-2.948259003E-3,-2.546717785E-2,2.571501165E-2
8.188267000E0,-1.018185751E-3,7.498068735E-4,-2.358139493E-2,2.361527258E-2
8.198223000E0,-9.029884823E-4,9.119734168E-4,-2.342552878E-2,2.346065818E-2
8.208180000E0,1.656575711E-3,2.194475383E-5,-2.191737853E-2,2.197990460E-2
8.218137000E0,-3.302026307E-4,1.041148789E-3,-1.756809838E-2,1.760201992E-2
8.228094000E0,-8.599055000E-4,1.287497580E-4,-2.029703744E-2,2.031565265E-2
8.238051000E0,5.839049118E-4,1.114069484E-3,-2.030752972E-2,2.034644586E-2
8.248007000E0,1.691247337E-3,-2.757367678E-3,-2.233818918E-2,2.257117831E-2
8.257964000E0,-4.786890931E-4,7.705483586E-5,-2.275758237E-2,2.276274667E-2
8.267921000E0,-1.045942307E-3,1.108767465E-4,-2.057059482E-2,2.059746732E-2
8.277877000E0,-6.652994780E-4,-1.445135102E-3,-2.086905390E-2,2.092960701E-2
8.287834000E0,6.369862240E-4,-1.310112886E-3,-1.907301694E-2,1.912856823E-2
8.297791000E0,7.112555904E-4,-1.380356960E-3,-1.836838573E-2,1.843390529E-2
8.307748000E0,3.033532063E-3,-1.293538138E-3,-2.024884149E-2,2.051563159E-2
8.317705000E0,-5.251361290E-4,9.492794052E-4,-2.056961134E-2,2.059819919E-2
8.327661000E0,-3.245135304E-5,-1.577261835E-3,-2.099225298E-2,2.105144871E-2
8.337618000E0,5.634722766E-4,-5.658445880E-4,-2.150379494E-2,2.151861701E-2
8.347575000E0,3.723159898E-5,1.430884004E-4,-1.985556260E-2,1.985611308E-2
8.357532000E0,1.326998463E-4,-3.910397179E-3,-2.394540235E-2,2.426295755E-2
8.367488000E0,-1.437499886E-3,1.993831247E-3,-2.176959813E-2,2.190792486E-2
8.377445000E0,2.388550434E-3,-3.330176696E-4,-2.201515064E-2,2.214684925E-2
8.387402000E0,-1.151589560E-3,-5.082534626E-4,-2.243113890E-2,2.246642990E-2
8.397359000E0,-2.169140382E-3,2.008359879E-4,-1.969815418E-2,1.981824370E-2
8.407315000E0,-5.496721715E-4,1.940678805E-3,-1.897750422E-2,1.908439258E-2
8.417272000E0,-2.023544163E-3,-1.205189154E-3,-1.830093563E-2,1.845186865E-2
8.427229000E0,1.877454109E-3,-1.158583909E-3,-1.985888556E-2,1.998105318E-2
8.437186000E0,2.738834592E-4,5.256664008E-5,-2.139150724E-2,2.139332506E-2
8.447142000E0,1.342343632E-3,1.472829841E-3,-2.262002230E-2,2.270763138E-2
8.457099000E0,-8.290363476E-4,1.495456323E-3,-2.056336403E-2,2.063433137E-2
8.467056000E0,4.391609109E-4,-7.037818432E-4,-1.982114092E-2,1.983849285E-2
8.477013000E0,4.968562280E-4,1.602910459E-3,-1.851477101E-2,1.859066792E-2
8.486969000E0,1.487811096E-4,-7.252246141E-4,-1.777441427E-2,1.778982544E-2
8.496926000E0,-9.534659330E-4,-6.649382412E-4,-1.911383495E-2,1.914914950E-2
8.506883000E0,7.307170890E-4,4.692468792E-5,-1.805522665E-2,1.807006804E-2
8.516840000E0,-2.149927663E-3,2.324057743E-3,-1.707087085E-2,1.736197180E-2
8.526796000E0,-4.485133104E-6,-5.974294618E-4,-1.986612380E-2,1.987510545E-2
8.536753000E0,-2.927762689E-4,-1.476546749E-4,-2.009646967E-2,2.009914459E-2
8.546710000E0,4.473162116E-4,1.397011802E-4,-2.028848231E-2,2.029389373E-2
8.556667000E0,8.738538600E-4,9.264461696E-4,-1.849517226E-2,1.853896761E-2
8.566623000E0,2.198776463E-3,-1.249888912E-3,-1.698942110E-2,1.717664896E-2
8.576580000E0,2.931095660E-4,-2.405232750E-3,-1.931334659E-2,1.946474799E-2
8.586537000E0,-8.587077027E-4,-2.081392333E-3,-1.857405156E-2,1.871002310E-2
8.596494000E0,-2.549199853E-4,-1.745913178E-4,-1.891291514E-2,1.891543881E-2
8.606450000E0,2.697726712E-3,1.718858257E-4,-2.123226225E-2,2.140365003E-2
8.616407000E0,2.166433260E-3,1.155681908E-3,-1.981437951E-2,1.996593772E-2
8.626364000E0,1.103299204E-3,-2.056356519E-3,-2.007936314E-2,2.021451694E-2
8.636321000E0,2.130356850E-3,3.902409226E-4,-1.822956279E-2,1.835776859E-2
8.646277000E0,-1.887820428E-3,1.247236505E-4,-1.811664551E-2,1.821516584E-2
8.656234000E0,-9.924848564E-4,9.098276496E-5,-1.931087300E-2,1.933657467E-2
8.666191000E0,-2.488915110E-3,2.476110123E-3,-1.780166104E-2,1.814455719E-2
8.676148000E0,1.382476999E-3,8.433619514E-4,-2.219124138E-2,2.225025160E-2
8.686105000E0,-5.334010348E-4,-1.098029315E-5,-2.041464671E-2,2.042161692E-2
8.696061000E0,-4.191225162E-4,6.643235683E-4,-1.964991167E-2,1.966560495E-2
8.706018000E0,6.482723984E-4,2.265416086E-3,-1.769355312E-2,1.784976720E-2
8.715975000E0,6.857435219E-4,6.878236309E-4,-1.643240079E-2,1.646107959E-2
8.725932000E0,1.880437601E-3,5.019344389E-4,-1.921939850E-2,1.931769299E-2
8.735888000E0,4.283566377E-4,-3.443108872E-4,-2.273432538E-2,2.274096721E-2
8.745845000E0,-1.352499239E-3,7.606353611E-4,-2.190182358E-2,2.195672326E-2
8.755802000E0,1.124183415E-3,-6.745755672E-4,-2.000500262E-2,2.004791686E-2
8.765759000E0,-3.955530003E-3,2.450111322E-3,-1.775596291E-2,1.835547553E-2
8.775715000E0,-7.704265881E-4,4.421267658E-5,-1.735875010E-2,1.737589471E-2
8.785672000E0,-3.486149944E-5,-6.828298792E-4,-1.793053001E-2,1.794356092E-2
8.795629000E0,1.398860477E-4,8.820416406E-4,-1.759368554E-2,1.761633720E-2
8.805586000E0,-4.342915490E-4,-1.936115324E-3,-2.107523754E-2,2.116843852E-2
8.815542000E0,-1.634823391E-3,-3.924267367E-4,-2.224022895E-2,2.230368647E-2
8.825499000E0,-1.206320710E-3,3.711022437E-4,-1.908544824E-2,1.912713415E-2
8.835456000E0,-3.691917518E-4,4.295324907E-4,-1.823583245E-2,1.824462622E-2
8.845413000E0,3.229638096E-4,9.219516069E-4,-1.760119945E-2,1.762828756E-2
8.855369000E0,2.102791332E-3,-2.693263814E-4,-1.957604289E-2,1.969049830E-2
8.865326000E0,-4.759476287E-4,-1.316405833E-4,-1.720902324E-2,1.721610688E-2
8.875283000E0,-4.964206601E-4,2.249876969E-3,-1.882964373E-2,1.897007809E-2
8.885240000E0,-2.421087120E-3,-9.238114581E-4,-2.026481926E-2,2.042983089E-2
8.895196000E0,2.071658848E-3,5.310093984E-4,-1.859633625E-2,1.871890657E-2
8.905153000E0,1.142215682E-3,1.911858097E-3,-1.848528162E-2,1.861895525E-2
8.915110000E0,-6.683334941E-4,-1.449789852E-4,-1.965568587E-2,1.966757930E-2
8.925067000E0,1.668057637E-3,-7.694903761E-4,-1.710890234E-2,1.720723891E-2
8.935023000E0,6.446572952E-4,1.582000405E-4,-1.946712658E-2,1.947844007E-2
8.944980000E0,-1.954854233E-3,6.167963147E-4,-1.754032820E-2,1.765970006E-2
8.954937000E0,1.954667270E-3,-5.580829456E-4,-1.838175580E-2,1.849381321E-2
8.964894000E0,7.363967597E-6,-1.209492795E-3,-1.911439002E-2,1.915261947E-2
8.974850000E0,3.661762457E-5,-8.917404339E-4,-1.946741343E-2,1.948786102E-2
8.984806833E0,-2.062219661E-3,8.805934340E-4,-1.644472405E-2,1.659690164E-2
8.994763833E0,-7.191705517E-4,9.322306141E-4,-1.511300728E-2,1.515880105E-2
9.004720833E0,-8.435400669E-4,-2.647589892E-3,-1.808456331E-2,1.829679541E-2
9.014677833E0,2.733827801E-3,-4.236493260E-4,-1.830661669E-2,1.851446753E-2
9.024633833E0,-6.518487353E-4,7.753055543E-4,-1.894737408E-2,1.897442989E-2
9.034590833E0,2.460514661E-4,-9.973440319E-5,-1.865264773E-2,1.865453714E-2
9.044547833E0,-2.908417955E-4,-1.494165510E-3,-1.908487827E-2,1.914548767E-2
9.054504833E0,1.473085373E-3,8.745277300E-4,-1.486701891E-2,1.496539443E-2
9.064460833E0,-2.728317864E-3,1.298769377E-3,-1.848465949E-2,1.873000686E-2
9.074417833E0,-1.270997571E-3,1.911949366E-4,-1.805864275E-2,1.810432457E-2
9.084374833E0,1.773528173E-3,-7.824571803E-4,-1.871511340E-2,1.881523614E-2
9.094331833E0,1.094641630E-4,3.570653498E-4,-1.606883109E-2,1.607317052E-2
9.104287833E0,1.677874243E-4,7.117986679E-4,-1.640306041E-2,1.641935445E-2
9.114244833E0,-2.087264322E-3,7.048528641E-4,-1.765303314E-2,1.778997102E-2
9.124201833E0,1.660363050E-4,8.742297068E-4,-1.725063100E-2,1.727356696E-2
9.134158833E0,-1.801433973E-5,2.822662704E-3,-1.728940383E-2,1.751831139E-2
9.144114833E0,-1.796681900E-4,-2.197325230E-4,-1.542172953E-2,1.542434131E-2
9.154071833E0,2.211933024E-3,-4.452839494E-4,-1.698438451E-2,1.713359981E-2
9.164028833E0,-1.254969975E-3,-6.042746827E-4,-1.549274847E-2,1.555523554E-2
9.173985833E0,1.255532727E-3,9.625498205E-5,-1.579803973E-2,1.584814459E-2
9.183941833E0,-6.555516738E-4,2.291765064E-3,-1.453756541E-2,1.473169180E-2
9.193898833E0,-7.895433810E-4,1.923512667E-3,-1.892104000E-2,1.903494246E-2
9.203855833E0,-3.104407806E-4,2.017794177E-4,-1.860865206E-2,1.861233515E-2
9.213812833E0,6.220698706E-4,1.413800754E-3,-1.563886926E-2,1.571496214E-2
9.223769833E0,-2.031770069E-3,1.658434048E-4,-1.778191701E-2,1.789838445E-2
9.233725833E0,1.565483166E-3,-1.579196192E-3,-1.707944274E-2,1.722358739E-2
9.243682833E0,-6.673110183E-4,-1.634601504E-4,-1.660406590E-2,1.661827390E-2
9.253639833E0,2.405230189E-4,1.370394602E-3,-1.479900628E-2,1.486426654E-2
9.263596833E0,3.284072736E-4,-5.252435803E-4,-1.566453278E-2,1.567677643E-2
9.273552833E0,1.197393285E-4,-1.076299697E-3,-1.786845550E-2,1.790124187E-2
9.283509833E0,3.977732849E-4,2.318453044E-4,-1.850335300E-2,1.850908015E-2
9.293466833E0,-2.041273750E-3,1.301730052E-3,-1.855121925E-2,1.870852842E-2
9.303423833E0,5.478513776E-4,-1.193384640E-3,-1.833070815E-2,1.837768128E-2
9.313379833E0,-1.563996309E-3,-6.796792150E-6,-1.674791798E-2,1.682078736E-2
9.323336833E0,-2.912716009E-4,6.970772520E-4,-1.460567117E-2,1.462519696E-2
9.333293833E0,1.246178523E-3,-7.696608081E-4,-1.525834203E-2,1.532848134E-2
9.343250833E0,4.435018054E-4,4.942752421E-4,-1.686582342E-2,1.687889219E-2
9.353206833E0,-1.356204739E-3,-9.905295447E-4,-1.819962636E-2,1.827694831E-2
9.363163833E0,3.261141246E-4,2.712062560E-3,-1.841614023E-2,1.861762215E-2
9.373120833E0,-4.304850008E-4,-1.527164131E-3,-1.652453467E-2,1.660053595E-2
9.383077833E0,5.237256410E-4,8.936496451E-4,-1.669977233E-2,1.673186463E-2
9.393033833E0,1.457226463E-4,4.519615322E-4,-1.566279680E-2,1.566999387E-2
9.402990833E0,-1.232567010E-4,1.342521980E-3,-1.633471251E-2,1.639025290E-2
9.412947833E0,-2.202759497E-3,-1.730024815E-4,-1.837196946E-2,1.850436006E-2
9.422904833E0,-1.430176431E-3,7.801428437E-4,-1.491438970E-2,1.500310127E-2
9.432860833E0,-1.331698499E-3,1.747298986E-3,-1.390141249E-2,1.407393846E-2
9.442817833E0,3.745887661E-4,-1.404551789E-3,-1.326331869E-2,1.334273979E-2
9.452774833E0,7.497990737E-4,1.388187520E-3,-1.659246162E-2,1.666730469E-2
9.462731833E0,1.175638521E-3,1.235322095E-3,-1.587633789E-2,1.596766267E-2
9.472688833E0,1.942610834E-4,2.567791380E-3,-1.680526137E-2,1.700141464E-2
9.482644833E0,-2.927230205E-3,-5.206763744E-4,-1.666757464E-2,1.693067704E-2
9.492601833E0,1.550837304E-3,-7.038097829E-4,-1.651964709E-2,1.660720279E-2
9.502558833E0,1.356692868E-3,-1.497166231E-3,-1.721819490E-2,1.733633058E-2
9.512515833E0,2.376958728E-3,1.022545621E-4,-1.579848304E-2,1.597662215E-2
9.522471833E0,1.469886163E-3,-1.572608016E-3,-1.891358197E-2,1.903568344E-2
9.532428833E0,6.047606003E-4,1.031616703E-4,-1.850283891E-2,1.851300693E-2
9.542385833E0,-1.852271846E-3,5.529699847E-4,-1.705727726E-2,1.716646132E-2
9.552342833E0,-1.804718981E-3,-7.685758173E-4,-1.292173192E-2,1.306976951E-2
9.562298833E0,-2.506461926E-3,-2.772605047E-3,-1.519447565E-2,1.564742089E-2
9.572255833E0,-1.361789182E-4,1.985534094E-3,-1.296754181E-2,1.311937617E-2
9.582212833E0,-8.613576647E-4,1.264350489E-3,-1.566345990E-2,1.573799527E-2
9.592169833E0,-7.101088995E-4,1.928672194E-3,-1.502963156E-2,1.516950414E-2
9.602125833E0,1.417756779E-3,1.025860198E-3,-1.768613234E-2,1.777249844E-2
9.612082833E0,-1.665750518E-3,3.078728914E-3,-1.742815599E-2,1.777621776E-2
9.622039833E0,1.698620967E-3,1.515720040E-3,-1.482997462E-2,1.500369513E-2
9.631996833E0,1.833377872E-3,-2.755782567E-3,-1.179990917E-2,1.225534449E-2
9.641952833E0,2.080507111E-4,1.110861078E-3,-1.084702834E-2,1.090574717E-2
9.651909833E0,3.498867620E-3,-5.627768114E-4,-1.429311931E-2,1.472589732E-2
9.661866833E0,1.710555051E-3,5.650715902E-4,-1.516823471E-2,1.527483710E-2
9.671823833E0,2.039512619E-4,-2.644630149E-4,-1.917293295E-2,1.917584144E-2
9.681780833E0,-1.373705454E-3,1.350211911E-3,-1.987494156E-2,1.996806052E-2
9.691736833E0,1.425107010E-3,5.017751828E-4,-1.823450625E-2,1.829699228E-2
9.701693833E0,-1.936867600E-3,-2.009585500E-3,-1.348396018E-2,1.376978838E-2
9.711650833E0,1.963179559E-3,1.397444867E-3,-1.096246764E-2,1.122419810E-2
9.721607833E0,-4.324608017E-5,1.282130368E-3,-9.915579110E-3,9.998221722E-3
9.731563833E0,-3.282474354E-4,9.569469839E-4,-1.199413463E-2,1.203672545E-2
9.741520833E0,-7.258402184E-5,-5.895504728E-4,-1.654494181E-2,1.655560140E-2
9.751477833E0,-3.208760405E-3,-2.146974206E-3,-1.921454072E-2,1.959857690E-2
9.761434833E0,1.706369454E-3,-7.461523637E-4,-1.414867491E-2,1.427071973E-2
9.771390833E0,2.555172890E-3,4.478702322E-4,-1.483321190E-2,1.505834226E-2
9.781347833E0,2.273037098E-4,1.163993962E-3,-1.172130927E-2,1.178115614E-2
9.791304833E0,-2.495734254E-3,5.299635231E-4,-9.705275297E-3,1.003503460E-2
9.801261833E0,-8.019637316E-4,1.054073684E-3,-1.402598619E-2,1.408838195E-2
9.811218833E0,7.974372711E-4,-2.979561687E-4,-1.679708809E-2,1.681864597E-2
9.821174833E0,-2.144024009E-3,-1.507564448E-3,-1.714836061E-2,1.734750302E-2
9.831131833E0,-2.921771957E-4,1.460257918E-3,-1.426472887E-2,1.434225263E-2
9.841088833E0,-9.901917074E-4,1.656953245E-4,-1.225724071E-2,1.229828787E-2
9.851045833E0,1.024757279E-3,-3.804452717E-5,-8.395373821E-3,8.457770183E-3
9.861001833E0,-2.192341257E-3,-5.664154887E-4,-1.165082306E-2,1.186881901E-2
9.870958833E0,6.523851771E-4,2.942336723E-4,-1.666031405E-2,1.667567822E-2
9.880915833E0,-1.240057172E-3,1.194648445E-3,-1.765660197E-2,1.774036414E-2
9.890872833E0,2.392204013E-3,-1.430409960E-3,-1.811371744E-2,1.832690569E-2
9.900828833E0,-1.668275800E-4,-6.788661703E-4,-1.486173272E-2,1.487816488E-2
9.910785833E0,-3.241488012E-4,-3.528641537E-4,-1.389895380E-2,1.390721044E-2
9.920742833E0,3.624141682E-4,4.934882745E-4,-1.291358471E-2,1.292809130E-2
9.930699833E0,9.716907516E-5,-5.502067506E-4,-1.228719950E-2,1.229989597E-2
9.940655833E0,1.122752437E-3,1.877546310E-4,-1.520922035E-2,1.525176083E-2
9.950612833E0,-4.353004042E-4,-1.494397409E-3,-1.748656854E-2,1.755570532E-2
9.960569833E0,2.738994081E-4,1.188470982E-3,-1.480529457E-2,1.485544451E-2
9.970526833E0,-8.885309799E-4,-4.725167528E-4,-1.807660237E-2,1.810459369E-2
9.980484250E0,-3.084944328E-4,-1.782374457E-4,-1.486323401E-2,1.486750358E-2
9.990440250E0,2.216822235E-3,-4.762299359E-4,-1.317917183E-2,1.337279574E-2
1.000039725E1,8.218585281E-4,1.488383859E-3,-1.232030243E-2,1.243706516E-2
1.001035425E1,-7.434673607E-4,1.197681762E-3,-1.367145777E-2,1.374394204E-2
1.002031125E1,1.359630842E-3,-5.719885230E-4,-1.750374958E-2,1.756579108E-2
1.003026725E1,8.269667160E-5,6.050067022E-4,-1.596678421E-2,1.597845643E-2
1.004022425E1,-1.298685092E-3,-1.555083320E-3,-1.528368518E-2,1.541738952E-2
1.005018125E1,5.529378541E-6,-2.325249836E-3,-1.255527511E-2,1.276878031E-2
1.006013825E1,1.818306046E-4,-6.117718294E-4,-1.085484773E-2,1.087359399E-2
1.007009425E1,-3.029021900E-4,-1.439349726E-4,-1.256630570E-2,1.257077984E-2
1.008005125E1,1.061435207E-3,-1.023044810E-3,-1.352158189E-2,1.360170732E-2
1.009000825E1,1.664860873E-3,5.323123187E-4,-1.951579377E-2,1.959391040E-2
1.009996525E1,-2.702190541E-3,-1.624848694E-3,-1.841511205E-2,1.868310249E-2
1.010992225E1,1.388994977E-3,2.063424326E-3,-1.576846093E-2,1.596343907E-2
1.011987825E1,-2.696218435E-4,5.209213123E-4,-1.508696005E-2,1.509835814E-2
1.012983525E1,1.642270247E-3,1.548788510E-3,-1.059453934E-2,1.083236176E-2
1.013979225E1,-1.383347204E-3,-5.257036537E-5,-1.098868996E-2,1.107554604E-2
1.014974925E1,-8.402389940E-4,-1.406641677E-4,-1.611462981E-2,1.613713363E-2
1.015970525E1,-6.434314419E-4,-8.107153699E-4,-1.951761916E-2,1.954504339E-2
1.016966225E1,-3.113091225E-4,4.386864603E-4,-1.694911346E-2,1.695764743E-2
1.017961925E1,-4.804198397E-4,-1.829793677E-3,-1.620529592E-2,1.631534750E-2
1.018957625E1,-8.486907464E-4,4.744287580E-4,-1.198643073E-2,1.202580061E-2
1.019953225E1,-3.155259183E-4,1.236358657E-3,-9.169340134E-3,9.257696140E-3
1.020948925E1,1.067718724E-3,-3.579864278E-4,-1.073944196E-2,1.079832354E-2
1.021944625E1,-3.623986850E-4,-5.574570969E-4,-1.158712432E-2,1.160618547E-2
1.022940325E1,-3.486115020E-5,-9.213164449E-4,-1.730726659E-2,1.733180649E-2
1.023935925E1,-4.806743236E-4,3.191838041E-4,-1.659433916E-2,1.660436745E-2
1.024931625E1,4.894035519E-4,-2.769278362E-4,-1.698307693E-2,1.699238379E-2
1.025927325E1,-1.574013615E-3,-2.846512944E-4,-1.216621697E-2,1.227091604E-2
1.026923025E1,9.677435155E-4,-1.668090932E-3,-8.625596762E-3,8.838550467E-3
1.027918725E1,-2.192273969E-4,-1.085437834E-4,-7.169913501E-3,7.174085448E-3
1.028914325E1,-1.084855758E-4,-1.590948552E-3,-1.043589041E-2,1.055702112E-2
1.029910025E1,1.031613676E-3,-1.260982826E-3,-1.607300341E-2,1.615536267E-2
1.030905725E1,4.356789868E-4,1.585613005E-3,-2.070486546E-2,2.077006111E-2
1.031901425E1,-1.778739505E-3,3.046328202E-4,-1.871149242E-2,1.879831545E-2
1.032897025E1,-8.593706880E-4,1.870635897E-4,-1.414781436E-2,1.417512476E-2
1.033892725E1,-1.613578061E-3,7.244898006E-4,-8.524283767E-3,8.705856268E-3
1.034888425E1,1.852471381E-3,1.136482693E-3,-7.815718651E-3,8.112256231E-3
1.035884125E1,-8.825950790E-4,-5.186712369E-4,-9.116139263E-3,9.173439322E-3
1.036879725E1,-5.306884414E-4,-2.859765664E-4,-1.807548478E-2,1.808553463E-2
1.037875425E1,-2.294233767E-3,2.295958810E-3,-2.048804238E-2,2.074354878E-2
1.038871125E1,-1.659192378E-3,4.643807188E-4,-2.101554349E-2,2.108605314E-2
1.039866825E1,9.965117788E-4,1.751622185E-4,-1.563915238E-2,1.567184752E-2
1.040862525E1,2.724498045E-3,-2.638929524E-3,-1.227989420E-2,1.285233987E-2
1.041858125E1,1.431267010E-3,-1.540641300E-3,-9.552285075E-3,9.781014826E-3
1.042853825E1,2.880600514E-4,-4.290668294E-4,-9.846881032E-3,9.860433205E-3
1.043849525E1,-1.021393109E-5,7.690889761E-4,-1.309514046E-2,1.311770962E-2
1.044845225E1,2.735157032E-3,8.598146960E-4,-1.734812558E-2,1.758345320E-2
1.045840825E1,4.553297069E-3,2.142647281E-4,-1.713161170E-2,1.772767732E-2
1.046836525E1,2.723572543E-4,-1.005902886E-4,-1.579663903E-2,1.579930699E-2
1.047832225E1,-8.698725142E-4,-9.022019804E-4,-1.370019838E-2,1.375740100E-2
1.048827925E1,1.247301814E-3,1.057646237E-3,-1.104206592E-2,1.116250855E-2
1.049823525E1,4.550113808E-4,-3.109518439E-4,-9.072661400E-3,9.089384538E-3
1.050819225E1,1.339501468E-3,5.088504404E-4,-1.143259555E-2,1.152204122E-2
1.051814925E1,1.375187770E-3,-1.487188041E-3,-1.582042128E-2,1.594956423E-2
1.052810625E1,4.490401479E-4,-7.523475215E-4,-1.779921353E-2,1.782076503E-2
1.053806325E1,9.129628306E-4,-1.227762550E-4,-1.804289222E-2,1.806639241E-2
1.054801925E1,-1.179138548E-3,1.765950583E-3,-1.627223939E-2,1.641020182E-2
1.055797625E1,4.642981221E-4,3.084028140E-4,-1.271878183E-2,1.273098960E-2
1.056793325E1,6.947037182E-4,1.467883587E-3,-8.754935116E-3,8.904278992E-3
1.057789025E1,-2.030478790E-4,8.630799130E-4,-1.062713563E-2,1.066405866E-2
1.058784625E1,-3.411456710E-4,-1.580473967E-3,-1.415790245E-2,1.424992913E-2
1.059780325E1,-8.998769335E-4,-7.090875879E-4,-1.650574431E-2,1.654545795E-2
1.060776025E1,-7.591927424E-4,1.151143573E-3,-1.950121671E-2,1.954990942E-2
1.061771725E1,-1.963474089E-3,1.031833701E-3,-1.882557198E-2,1.895579257E-2
1.062767325E1,-1.143422094E-3,1.432374120E-4,-1.459621638E-2,1.464163460E-2
1.063763025E1,-3.300927347E-4,4.026293755E-4,-1.370192692E-2,1.371181508E-2
1.064758725E1,2.347600646E-3,-4.087369889E-4,-1.170140132E-2,1.194156973E-2
1.065754425E1,2.154739341E-4,-1.128604636E-4,-1.448973268E-2,1.449177421E-2
1.066750125E1,-8.500283584E-4,-5.535101518E-4,-1.764614508E-2,1.767527532E-2
1.067745725E1,-2.007704461E-3,-3.194184974E-4,-1.875295490E-2,1.886282648E-2
1.068741425E1,9.402266005E-4,-1.087032259E-3,-1.386174187E-2,1.393605227E-2
1.069737125E1,-6.773773348E-4,-3.359506838E-3,-1.473499089E-2,1.512828751E-2
1.070732825E1,1.075510983E-3,2.151571214E-3,-1.278077066E-2,1.300515595E-2
1.071728425E1,-1.952236751E-3,-1.062564552E-4,-1.130697876E-2,1.147476743E-2
1.072724125E1,5.912002525E-4,1.851239242E-3,-1.593714207E-2,1.605518925E-2
1.073719825E1,-1.727880444E-3,4.826402292E-4,-1.553154364E-2,1.563481245E-2
1.074715525E1,6.604533410E-4,-3.652712330E-4,-1.516483352E-2,1.518360291E-2
1.075711225E1,-2.067156136E-3,1.493881457E-3,-1.214241236E-2,1.240737661E-2
1.076706825E1,1.694172388E-3,1.289962791E-3,-1.126309857E-2,1.146261809E-2
1.077702525E1,-7.785726339E-4,-1.952825114E-4,-1.150065288E-2,1.152863076E-2
1.078698225E1,1.578662777E-3,-6.921682507E-4,-1.424540952E-2,1.434931934E-2
1.079693925E1,-8.022030815E-4,7.177703083E-6,-1.596634462E-2,1.598648623E-2
1.080689525E1,9.811570635E-4,2.296050079E-3,-1.859376580E-2,1.876066741E-2
1.081685225E1,-1.133925514E-3,-5.002692342E-4,-1.897193491E-2,1.901237415E-2
1.082680925E1,-3.487720387E-4,-8.269390091E-4,-1.417698339E-2,1.420536265E-2
1.083676625E1,1.228884561E-3,9.744428098E-5,-1.380680501E-2,1.386172851E-2
1.084672225E1,-1.315467060E-3,-2.216774039E-3,-1.361859962E-2,1.386040391E-2
1.085667925E1,-1.751959324E-3,2.549057826E-4,-1.273496449E-2,1.285743594E-2
1.086663625E1,9.790589102E-4,-6.536301225E-5,-1.363959163E-2,1.367484145E-2
1.087659325E1,1.850977889E-3,3.945641220E-4,-1.433148235E-2,1.445590490E-2
1.088655025E1,3.021160373E-3,-1.638317481E-4,-1.575497165E-2,1.604286080E-2
1.089650625E1,-1.988245640E-3,-1.808067784E-3,-1.603060588E-2,1.625430881E-2
1.090646325E1,-6.516342983E-4,2.322968096E-3,-1.555559412E-2,1.574157922E-2
1.091642025E1,-8.689481765E-4,3.271053545E-3,-1.251399517E-2,1.296360048E-2
1.092637725E1,2.182574011E-3,-5.538444966E-4,-1.262380928E-2,1.282306257E-2
1.093633325E1,-1.786335139E-3,-5.077291280E-5,-1.271995157E-2,1.284487209E-2
1.094629025E1,3.078022506E-3,6.038667634E-4,-1.469555497E-2,1.502658356E-2
1.095624725E1,-1.769995783E-3,-1.271702349E-4,-1.361244544E-2,1.372762646E-2
1.096620425E1,-1.248026150E-3,-8.970182389E-4,-1.407846808E-2,1.416211406E-2
1.097616025E1,8.217825671E-4,-7.769102231E-4,-1.232051849E-2,1.237231151E-2
1.098611646E1,2.375273034E-4,-7.508415729E-5,-1.250235736E-2,1.250483892E-2
1.099607346E1,-9.300024249E-4,-1.520114951E-3,-1.082083955E-2,1.096659576E-2
1.100603046E1,1.445909031E-3,7.309755310E-4,-1.122114062E-2,1.133750303E-2
1.101598746E1,6.240575458E-4,-1.177711412E-3,-1.577328146E-2,1.582949335E-2
1.102594346E1,-7.764513139E-4,-3.407383338E-4,-1.789722964E-2,1.791730471E-2
1.103590046E1,1.117322594E-3,2.017225139E-3,-1.381034032E-2,1.400153944E-2
1.104585746E1,-8.787167026E-4,-3.021443263E-4,-1.244271547E-2,1.247736360E-2
1.105581446E1,1.660074689E-3,1.200943254E-3,-1.047650352E-2,1.067498191E-2
1.106577046E1,1.986762742E-3,-3.934549168E-3,-1.416499168E-2,1.483492139E-2
1.107572746E1,1.255458687E-3,3.986805677E-4,-1.017184928E-2,1.025678510E-2
1.108568446E1,-7.328969659E-4,-1.895204186E-4,-1.553177461E-2,1.555021153E-2
1.109564146E1,4.504209384E-3,-1.642807387E-3,-1.685217023E-2,1.752091207E-2
1.110559846E1,9.178222390E-4,8.630752563E-4,-1.750374585E-2,1.754902890E-2
1.111555446E1,-3.961814800E-4,2.335039899E-4,-1.452766359E-2,1.453494043E-2
1.112551146E1,2.608707873E-4,6.230175495E-5,-1.139605045E-2,1.139920616E-2
1.113546846E1,8.124114247E-4,2.844091505E-4,-1.026181132E-2,1.029784795E-2
1.114542546E1,-1.792887226E-3,-9.087203071E-4,-1.112698019E-2,1.130707324E-2
1.115538146E1,2.934333170E-4,-7.385443896E-4,-1.243565977E-2,1.246102663E-2
1.116533846E1,-3.388354089E-4,-1.764685847E-3,-1.501185447E-2,1.511901783E-2
1.117529546E1,1.333363471E-3,-6.855726242E-4,-1.536445692E-2,1.543743516E-2
1.118525246E1,1.612248830E-3,-1.435184851E-3,-1.472164318E-2,1.487904163E-2
1.119520946E1,-1.112964004E-3,-2.372954041E-4,-1.337674633E-2,1.342506388E-2
1.120516546E1,-1.451533521E-3,7.537826896E-4,-1.260345057E-2,1.270913467E-2
1.121512246E1,-5.926640006E-4,9.119743481E-4,-1.235497743E-2,1.240275837E-2
1.122507946E1,1.126621268E-3,1.723536290E-3,-1.391645148E-2,1.406795915E-2
1.123503646E1,3.165271133E-3,-2.817685716E-3,-1.308634505E-2,1.375538879E-2
1.124499246E1,-7.344271289E-4,-8.046822622E-4,-1.244638488E-2,1.249397428E-2
1.125494946E1,9.540170431E-4,-8.654017001E-4,-1.062052324E-2,1.069834485E-2
1.126490646E1,2.177753486E-3,1.527752727E-3,-8.942455053E-3,9.329744960E-3
1.127486346E1,-3.746384755E-5,-1.217434183E-3,-1.116592810E-2,1.123216363E-2
1.128482046E1,-1.212046482E-5,-1.550484449E-3,-1.190050691E-2,1.200109219E-2
1.129477646E1,1.983752009E-5,-1.420788467E-3,-1.579830796E-2,1.586207955E-2
1.130473346E1,2.968172543E-3,-2.887489274E-3,-1.532613859E-2,1.587570995E-2
1.131469046E1,-2.058277605E-3,-1.106103882E-4,-1.548086852E-2,1.561749120E-2
1.132464746E1,7.960598450E-4,-2.263700590E-4,-1.297425106E-2,1.300062096E-2
1.133460346E1,5.582395825E-4,-2.646118402E-3,-1.122508943E-2,1.154626376E-2
1.134456046E1,2.286727540E-4,-2.034781501E-4,-9.627968073E-3,9.632832595E-3
1.135451746E1,9.228242561E-6,5.232989788E-4,-1.006206125E-2,1.007566393E-2
1.136447446E1,4.281209549E-4,2.151361667E-3,-1.071839035E-2,1.094054552E-2
1.137443146E1,-2.738883486E-4,-1.798904501E-3,-1.164463907E-2,1.178595314E-2
1.138438746E1,-1.205403823E-4,8.575581014E-4,-1.402379945E-2,1.405051198E-2
1.139434446E1,6.565700169E-4,5.779266357E-4,-1.584939659E-2,1.587351428E-2
1.140430146E1,1.079399604E-3,8.291769773E-4,-1.490571722E-2,1.496773343E-2
1.141425846E1,-3.101230832E-3,1.277010888E-4,-1.569454744E-2,1.599852367E-2
1.142421446E1,1.110997517E-3,9.277733043E-4,-1.174914092E-2,1.183796398E-2
1.143417146E1,-1.102888258E-3,2.119272016E-3,-1.046656445E-2,1.073576489E-2
1.144412846E1,-8.866167627E-5,-1.831559464E-3,-1.254617050E-2,1.267946628E-2
1.145408546E1,-5.933307111E-4,9.522428736E-4,-1.316455752E-2,1.321228150E-2
1.146404246E1,1.818682300E-3,4.126541317E-4,-1.060962304E-2,1.077227877E-2
1.147399846E1,-7.512680022E-4,3.362214193E-4,-1.295560226E-2,1.298172093E-2
1.148395546E1,-7.521018852E-4,8.684396744E-5,-1.289291307E-2,1.291512318E-2
1.149391246E1,-1.805914799E-3,-1.203191467E-3,-1.038261503E-2,1.060696435E-2
1.150386946E1,-1.983982744E-3,1.204971224E-3,-8.739203215E-3,9.042224063E-3
1.151382546E1,-3.711723257E-4,-1.664318144E-3,-9.694475681E-3,9.843301403E-3
1.152378246E1,2.522179857E-3,-5.534784868E-4,-1.034358144E-2,1.066102278E-2
1.153373946E1,5.357278860E-4,1.495964825E-4,-1.395855844E-2,1.396963626E-2
1.154369646E1,-5.426441785E-4,1.634737477E-3,-1.370466873E-2,1.381248618E-2
1.155365346E1,-1.097647008E-3,-1.227094792E-3,-1.213553175E-2,1.224670248E-2
1.156360946E1,-1.859379001E-3,1.194544137E-3,-7.195126265E-3,7.526889659E-3
1.157356646E1,-5.016993964E-4,-2.329084091E-3,-8.839894086E-3,9.155329729E-3
1.158352346E1,1.217545825E-3,-6.771571934E-4,-9.932383895E-3,1.002961662E-2
1.159348046E1,-1.480502659E-3,4.349369556E-5,-1.296332479E-2,1.304766528E-2
1.160343646E1,6.036220584E-4,-6.818985566E-4,-1.759333536E-2,1.761688946E-2
1.161339346E1,-5.255582510E-4,6.550084800E-4,-1.528624073E-2,1.530929140E-2
1.162335046E1,4.416472511E-4,3.726165742E-4,-1.217859983E-2,1.219230041E-2
1.163330746E1,7.662865683E-4,6.589069963E-4,-7.780123502E-3,7.845487572E-3
1.164326446E1,-7.855575532E-4,1.209365204E-3,-8.632406592E-3,8.752034532E-3
1.165322046E1,-1.840435667E-3,7.614213973E-4,-9.504061192E-3,9.710517243E-3
1.166317746E1,-3.373246640E-3,1.375965774E-3,-1.127599552E-2,1.184990083E-2
1.167313446E1,-8.946426678E-4,8.057821542E-4,-1.510988176E-2,1.515777679E-2
1.168309146E1,-1.332175685E-3,1.636478119E-3,-1.598639414E-2,1.612505970E-2
1.169304746E1,1.117666136E-3,-4.186835140E-4,-1.327370107E-2,1.332725079E-2
1.170300446E1,9.272802272E-4,1.725054346E-3,-1.126980409E-2,1.143871257E-2
1.171296146E1,2.982441569E-3,1.110396348E-3,-9.972844273E-3,1.046831222E-2
1.172291846E1,6.016443367E-4,-1.088166609E-3,-9.558279067E-3,9.638816380E-3
1.173287546E1,-6.790698972E-4,2.183802426E-4,-9.061601013E-3,9.089633589E-3
1.174283146E1,-1.279596938E-3,2.210468054E-3,-1.184393466E-2,1.211620095E-2
1.175278846E1,5.891431356E-4,-3.522923216E-4,-1.183914021E-2,1.185902358E-2
1.176274546E1,-1.178368693E-3,1.022516750E-3,-1.110531762E-2,1.121437349E-2
1.177270246E1,1.899712835E-3,-2.098708414E-3,-1.165685803E-2,1.199565859E-2
1.178265946E1,-5.773039302E-4,3.628488630E-4,-9.320382029E-3,9.345290808E-3
1.179261546E1,9.127346566E-4,-1.988112926E-4,-9.208530188E-3,9.255789469E-3
1.180257246E1,2.931425814E-3,-2.224836498E-4,-1.322269440E-2,1.354556767E-2
1.181252946E1,-6.305520656E-4,2.502268180E-4,-1.572446898E-2,1.573909572E-2
1.182248646E1,1.745098387E-3,1.361965202E-3,-1.671950519E-2,1.686541347E-2
1.183244246E1,-4.940874642E-4,9.664855897E-4,-1.157001778E-2,1.162082305E-2
1.184239946E1,1.346692443E-3,-1.484308392E-3,-1.233071461E-2,1.249252876E-2
1.185235646E1,2.598564606E-4,-7.593957707E-4,-1.099567115E-2,1.102492591E-2
1.186231346E1,-3.026559716E-4,9.336974472E-4,-7.063753903E-3,7.131620486E-3
1.187226946E1,-2.489910228E-3,5.432218313E-5,-6.486382335E-3,6.948075967E-3
1.188222646E1,3.952247789E-4,-3.114230931E-4,-8.536890149E-3,8.551706285E-3
1.189218346E1,-1.009220723E-4,-2.757366747E-4,-1.329649240E-2,1.329973406E-2
1.190214046E1,1.582237659E-3,-1.406656578E-3,-1.486990973E-2,1.501986599E-2
1.191209746E1,3.148975316E-3,7.925815880E-4,-1.482916251E-2,1.518052344E-2
1.192205346E1,-2.433126792E-5,1.198312268E-3,-1.136735082E-2,1.143036346E-2
1.193201046E1,4.827345838E-4,-3.702891991E-4,-9.850416332E-3,9.869186830E-3
1.194196746E1,2.911092015E-4,1.481007785E-4,-1.084959134E-2,1.085450647E-2
1.195192446E1,2.056252211E-3,-1.695339568E-3,-1.174095273E-2,1.203961463E-2
1.196188146E1,-4.864123184E-4,-8.613374084E-4,-1.257874817E-2,1.261758315E-2
1.197183746E1,-1.464058645E-3,-1.162541099E-3,-1.241949201E-2,1.255940887E-2
1.198179458E1,2.628990449E-3,8.182609454E-4,-8.847638965E-3,9.266167331E-3
1.199175158E1,-1.444255468E-4,1.421466470E-3,-1.002768427E-2,1.012896231E-2
1.200170858E1,8.122629952E-4,-5.219178274E-4,-1.187590882E-2,1.191509042E-2
1.201166458E1,2.407486318E-4,-4.287073389E-4,-1.494866237E-2,1.495674619E-2
1.202162158E1,-1.913808752E-3,2.091309987E-3,-1.274555176E-2,1.305700315E-2
1.203157858E1,-2.448305255E-3,-3.745806403E-3,-1.430590078E-2,1.498946501E-2
1.204153558E1,2.900682157E-4,-1.944549382E-3,-1.147912815E-2,1.164627816E-2
1.205149258E1,1.210722956E-3,-1.209782436E-3,-9.643677622E-3,9.794383171E-3
1.206144858E1,4.595338833E-4,-7.297843695E-6,-8.244134486E-3,8.256935150E-3
1.207140558E1,-1.436721068E-4,-3.340672702E-4,-1.179013401E-2,1.179574087E-2
1.208136258E1,3.715699539E-3,-1.079391688E-3,-9.052630514E-3,9.844878298E-3
1.209131958E1,-4.958233330E-4,1.359798014E-3,-1.250461861E-2,1.258810463E-2
1.210127658E1,6.728660665E-4,1.492618583E-3,-1.262277737E-2,1.272851789E-2
1.211123258E1,-2.735713730E-3,-3.130044788E-4,-1.266086102E-2,1.295683229E-2
1.212118958E1,-1.215316821E-3,1.113346778E-3,-1.173887402E-2,1.185401616E-2
1.213114658E1,6.582169444E-4,-1.207863912E-3,-9.846165776E-3,9.941788836E-3
1.214110358E1,2.232714323E-4,-4.649348557E-4,-1.030738279E-2,1.032027880E-2
1.215105958E1,1.103712479E-3,-9.046224877E-4,-1.163123921E-2,1.171845760E-2
1.216101658E1,-5.470204633E-5,1.923177391E-3,-1.069901511E-2,1.087062684E-2
1.217097358E1,-7.101061055E-4,-2.040138468E-3,-1.293953508E-2,1.311861211E-2
1.218093058E1,2.005802002E-3,2.376977354E-4,-1.435638219E-2,1.449777402E-2
1.219088758E1,4.867347889E-4,-8.853990585E-5,-1.241174340E-2,1.242159911E-2
1.220084358E1,6.059032166E-4,2.611186355E-4,-1.388116181E-2,1.389683255E-2
1.221080058E1,-1.492134994E-3,-7.417332381E-5,-1.064089313E-2,1.074525826E-2
1.222075758E1,3.370447550E-3,-9.297160432E-4,-8.913978934E-3,9.575140158E-3
1.223071458E1,-1.320444513E-3,-1.102554612E-3,-9.164851159E-3,9.324896629E-3
1.224067058E1,1.853249269E-3,-1.115962863E-3,-9.712163359E-3,9.950177037E-3
1.225062758E1,9.183457587E-5,-6.118267775E-4,-7.985904813E-3,8.009834035E-3
1.226058458E1,-6.333261263E-4,-6.483215839E-4,-1.021379977E-2,1.025393235E-2
1.227054158E1,-1.032534055E-3,-6.002932787E-5,-1.362664253E-2,1.366583757E-2
1.228049858E1,1.435223618E-3,7.744561881E-4,-1.044504717E-2,1.057159683E-2
1.229045458E1,-6.771958433E-4,1.006684266E-3,-7.677756250E-3,7.773026981E-3
1.230041158E1,-1.178201288E-3,-4.311539233E-4,-6.942600012E-3,7.055051162E-3
1.231036858E1,-3.057497088E-4,8.189333603E-4,-1.117755845E-2,1.121168799E-2
1.232032558E1,3.678307403E-4,9.918222204E-4,-1.001900062E-2,1.007469028E-2
1.233028258E1,1.873848261E-3,-3.650579602E-4,-1.247603074E-2,1.262124865E-2
1.234023858E1,-1.152146957E-3,6.505474448E-4,-1.421711594E-2,1.427855175E-2
1.235019558E1,-8.639927255E-4,-2.316214144E-3,-1.399234682E-2,1.420904997E-2
1.236015258E1,-8.278877940E-4,2.279986627E-3,-9.655077010E-3,9.955111717E-3
1.237010958E1,-7.959296927E-4,2.254419960E-3,-6.903763860E-3,7.306015937E-3
1.238006558E1,-7.545143599E-4,-1.282564364E-3,-6.991211325E-3,7.147817783E-3
1.239002258E1,-1.100294758E-4,-1.167781651E-3,-9.979277849E-3,1.004797526E-2
1.239997958E1,1.501346240E-3,1.302888617E-3,-1.035305858E-2,1.054217156E-2
1.240993658E1,-1.042771386E-3,5.955528468E-4,-1.225748286E-2,1.231616585E-2
1.241989358E1,-7.907919353E-4,-2.793515101E-3,-1.292542741E-2,1.324748097E-2
1.242984958E1,-1.652590814E-3,4.123980179E-4,-1.106467471E-2,1.119500580E-2
1.243980658E1,9.657893097E-4,9.923754260E-4,-7.436186075E-3,7.564021505E-3
1.244976358E1,-2.807377372E-3,-1.130163670E-3,-8.535537869E-3,9.056160574E-3
1.245972058E1,1.504487824E-3,-3.413613886E-4,-9.939834476E-3,1.005884291E-2
1.246967758E1,1.939115697E-3,-2.471171319E-5,-1.143466681E-2,1.159794747E-2
1.247963358E1,-2.937950660E-3,7.407628000E-4,-1.044998318E-2,1.088036911E-2
1.248959058E1,-1.672923099E-5,-2.795383334E-3,-9.468611330E-3,9.872641408E-3
1.249954758E1,-4.348492948E-4,1.183838584E-3,-1.256213337E-2,1.262528267E-2
1.250950458E1,4.858055036E-4,7.337639108E-4,-1.296853274E-2,1.299835597E-2
1.251946058E1,1.086460543E-3,7.096910849E-4,-1.128081232E-2,1.135520958E-2
1.252941758E1,-1.927172532E-3,-1.275962219E-3,-1.200758666E-2,1.222800928E-2
1.253937458E1,-1.179778716E-3,-1.308550127E-3,-9.573150426E-3,9.733929850E-3
1.254933158E1,-1.613074914E-3,6.906846538E-4,-9.728677571E-3,9.885657451E-3
1.255928858E1,1.654161373E-3,-5.368189886E-4,-7.913824171E-3,8.102656199E-3
1.256924458E1,-1.774392091E-3,-2.607160248E-3,-1.119217649E-2,1.162800785E-2
1.257920158E1,-1.895609079E-3,-5.277991295E-5,-1.178923622E-2,1.194077929E-2
1.258915858E1,5.683474010E-4,-2.519842237E-4,-1.364253089E-2,1.365668934E-2
1.259911558E1,6.909243530E-4,-3.141937777E-4,-1.146415249E-2,1.148925091E-2
1.260907258E1,6.584337680E-4,-1.329923980E-3,-6.768997759E-3,6.929759265E-3
1.261902858E1,4.187955055E-4,5.463920534E-4,-4.352953285E-3,4.407055281E-3
1.262898558E1,-7.308910135E-4,1.381560229E-3,-4.743106663E-3,4.993993508E-3
1.263894258E1,-2.163651632E-3,-4.700636491E-4,-8.327394724E-3,8.616719277E-3
1.264889958E1,-8.312719874E-4,-1.569682732E-3,-9.000908583E-3,9.174490303E-3
1.265885558E1,1.162760891E-4,-6.012748927E-4,-9.641271085E-3,9.660701825E-3
1.266881258E1,-2.962475410E-4,3.258977085E-3,-9.980022907E-3,1.050283540E-2
1.267876958E1,2.074761083E-3,6.612716243E-4,-1.006921008E-2,1.030198551E-2
1.268872658E1,-3.351334017E-4,-7.925480604E-4,-6.973020732E-3,7.025913817E-3
1.269868358E1,1.871153363E-3,1.592386514E-3,-6.775476038E-3,7.207217581E-3
1.270863958E1,2.051982097E-3,-2.728914842E-4,-5.699824542E-3,6.064082791E-3
1.271859658E1,-4.468598636E-4,1.284386963E-5,-6.060533226E-3,6.076998575E-3
1.272855358E1,1.449310803E-3,-1.187442802E-3,-8.564170450E-3,8.766729020E-3
1.273851058E1,-1.746101771E-4,-1.332051121E-3,-1.111673191E-2,1.119761480E-2
1.274846758E1,2.272302285E-3,-7.259156555E-4,-8.937198669E-3,9.250071960E-3
1.275842358E1,-2.029088791E-4,1.310088672E-3,-8.441861719E-3,8.545322324E-3
1.276838058E1,-1.797393197E-4,1.267745160E-3,-6.822392344E-3,6.941507136E-3
1.277833758E1,-7.309959037E-4,2.814433537E-3,-1.016953215E-2,1.057708728E-2
1.278829458E1,-1.485735760E-3,8.322428912E-4,-8.579093963E-3,8.746478846E-3
1.279825158E1,-6.834669039E-4,-3.240760416E-4,-1.422548294E-2,1.424557886E-2
1.280820758E1,-2.019673120E-4,1.305512153E-3,-1.029039919E-2,1.037484787E-2
1.281816458E1,1.514313859E-3,1.818564720E-3,-1.004333049E-2,1.031837252E-2
1.282812158E1,-1.446588663E-3,7.186792791E-4,-6.561513990E-3,6.757409601E-3
1.283807858E1,-1.337691676E-3,5.095787346E-4,-4.098143429E-3,4.340952553E-3
1.284803458E1,-6.005286705E-4,1.656602137E-3,-9.175196290E-3,9.342868525E-3
1.285799158E1,-9.107291698E-4,1.201563515E-3,-1.027422398E-2,1.038426025E-2
1.286794858E1,1.192369149E-3,-2.221623436E-4,-1.210887358E-2,1.216946669E-2
1.287790558E1,-2.977645257E-3,6.279163063E-5,-1.237297058E-2,1.272637871E-2
1.288786258E1,1.163836569E-3,-3.944737837E-4,-1.203581318E-2,1.209838519E-2
1.289781858E1,-4.800134338E-4,-1.698971726E-3,-5.514737219E-3,5.790444233E-3
1.290777558E1,4.720666911E-4,-9.064152837E-4,-5.276650190E-3,5.374706770E-3
1.291773258E1,2.596138511E-3,-7.725507021E-4,-7.322482765E-3,7.807401847E-3
1.292768958E1,7.886509993E-4,-1.085205935E-3,-7.816500962E-3,7.930783669E-3
1.293764658E1,-4.672107752E-5,-4.843836650E-4,-1.414609328E-2,1.415446097E-2
1.294760258E1,1.265418367E-3,2.708891407E-4,-1.143206656E-2,1.150507759E-2
1.295755958E1,-1.320688636E-3,1.247799024E-3,-8.175641298E-3,8.375101881E-3
1.296751658E1,1.863919315E-3,7.146345451E-4,-6.556171924E-3,6.853341378E-3
1.297747358E1,3.032478504E-3,-3.880420700E-4,-5.865573883E-3,6.614488605E-3
1.298743062E1,1.850034809E-3,1.459214836E-4,-7.163066417E-3,7.399556903E-3
1.299738662E1,-2.026186790E-3,5.008466542E-5,-7.753636688E-3,8.014163916E-3
1.300734362E1,-1.424578601E-3,-3.520529717E-4,-1.200244576E-2,1.209181829E-2
1.301730062E1,-9.717582725E-4,3.003729507E-4,-1.228896156E-2,1.233098189E-2
1.302725762E1,-2.106797649E-3,-3.094905987E-4,-9.573068470E-3,9.807039344E-3
1.303721362E1,-9.113964625E-4,1.710087992E-3,-5.478281528E-3,5.810904659E-3
1.304717062E1,2.323545283E-3,1.028701663E-4,-6.260987371E-3,6.679027460E-3
1.305712762E1,-1.205994049E-3,-1.665689051E-4,-5.394205451E-3,5.529884203E-3
1.306708462E1,-1.394013176E-3,4.747202620E-4,-9.779632092E-3,9.889885536E-3
1.307704162E1,1.082901028E-3,-8.072145283E-4,-1.432865486E-2,1.439217217E-2
1.308699762E1,-2.649248345E-4,6.039943546E-4,-1.358377188E-2,1.359977400E-2
1.309695462E1,3.332815832E-4,-2.480398864E-3,-1.075273007E-2,1.104013855E-2
1.310691162E1,9.439444402E-4,-1.517666504E-3,-6.347592920E-3,6.594412681E-3
1.311686862E1,-2.002395457E-3,1.544748433E-3,-2.336192876E-3,3.442910461E-3
1.312682562E1,-1.463638153E-3,-4.552854225E-4,-3.519438207E-3,3.838745466E-3
1.313678162E1,5.114237429E-4,1.758103259E-3,-1.072018966E-2,1.087542862E-2
1.314673862E1,-1.963451738E-3,-3.449954093E-4,-1.180303097E-2,1.197020069E-2
1.315669562E1,-1.533398638E-3,-2.174675465E-4,-1.377263665E-2,1.385944169E-2
1.316665262E1,-3.312390065E-3,-1.476928592E-4,-9.709719568E-3,1.026023368E-2
1.317660962E1,2.287348500E-3,-3.220278770E-3,-8.032746613E-3,8.951378478E-3
1.318656562E1,5.938444519E-4,1.176865771E-3,-5.753345788E-3,5.902427639E-3
1.319652262E1,2.174058929E-3,8.212989196E-4,-6.167516112E-3,6.590851169E-3
1.320647962E1,-7.378414739E-4,4.252865911E-4,-9.718310088E-3,9.755553787E-3
1.321643662E1,-2.881594701E-4,-3.019608557E-4,-1.220608875E-2,1.221322311E-2
1.322639362E1,-1.512414543E-3,-9.822845459E-5,-1.174109802E-2,1.183851465E-2
1.323634963E1,-5.258240271E-3,-6.113117561E-4,-1.172546670E-2,1.286504419E-2
1.324630662E1,-1.182538341E-3,-2.734117210E-3,-9.963784367E-3,1.039955733E-2
1.325626362E1,1.023088116E-3,1.801931299E-3,-6.548210979E-3,6.868240875E-3
1.326622062E1,3.178916872E-3,-6.982451305E-4,-3.815811127E-3,5.015323848E-3
1.327617662E1,-2.013948979E-4,4.263501614E-5,-6.797667593E-3,6.800783951E-3
1.328613362E1,2.045514062E-3,-1.094313338E-4,-9.375076741E-3,9.596257963E-3
1.329609062E1,2.767533297E-4,1.304266043E-3,-1.343208551E-2,1.349809704E-2
1.330604762E1,2.351355739E-3,-2.214835025E-3,-1.500548422E-2,1.534923206E-2
1.331600462E1,-1.190464711E-3,1.139719039E-3,-1.263587177E-2,1.274289689E-2
1.332596062E1,-6.309344899E-4,-7.950672880E-4,-6.432306021E-3,6.511894584E-3
1.333591762E1,2.374515170E-4,6.561921909E-4,-6.396666169E-3,6.434618053E-3
1.334587462E1,1.195923192E-3,-5.155988038E-4,-6.586816162E-3,6.714329569E-3
1.335583162E1,2.082085703E-3,-2.862755209E-4,-7.578302175E-3,7.864330766E-3
1.336578862E1,-1.291606808E-3,1.004292630E-3,-1.451450586E-2,1.460642777E-2
1.337574462E1,-5.828554276E-4,-2.518785186E-3,-1.502382010E-2,1.524464397E-2
1.338570162E1,-6.220040377E-4,-2.629573457E-3,-1.057314500E-2,1.091297122E-2
1.339565862E1,1.975177554E-3,-1.677917317E-4,-6.911654025E-3,7.190301927E-3
1.340561562E1,-4.163431004E-5,-5.354266614E-5,-3.205329180E-3,3.206046691E-3
1.341557262E1,-1.205685781E-3,-1.594986767E-3,-4.179034382E-3,4.632708641E-3
1.342552862E1,-1.889319392E-3,-1.402973197E-3,-8.011057973E-3,8.349545581E-3
1.343548562E1,-4.006009083E-3,-1.324483193E-3,-9.382981807E-3,1.028798873E-2
1.344544262E1,-1.669085119E-3,7.293466479E-4,-1.104239747E-2,1.119161890E-2
1.345539962E1,7.721059374E-4,1.490265131E-3,-1.047900692E-2,1.061256914E-2
1.346535662E1,8.429459995E-4,-1.140938140E-3,-7.009975612E-3,7.152066546E-3
1.347531262E1,1.189897652E-3,5.730111152E-4,-7.692769170E-3,7.805312016E-3
1.348526962E1,1.693501486E-3,-2.886701375E-3,-8.500505239E-3,9.135621568E-3
1.349522662E1,1.950280741E-3,6.377752870E-4,-9.497337043E-3,9.716468659E-3
1.350518362E1,-2.583218273E-3,-1.106328331E-3,-9.196132421E-3,9.615915481E-3
1.351514062E1,-5.062414566E-4,2.963664010E-4,-1.165391505E-2,1.166866956E-2
1.352509662E1,-5.563453306E-5,-2.081599087E-5,-9.805679321E-3,9.805859241E-3
1.353505362E1,7.327491767E-4,-4.420010373E-4,-8.700679988E-3,8.742660838E-3
1.354501062E1,-4.369111266E-4,4.615634680E-5,-1.056249440E-2,1.057162758E-2
1.355496762E1,-3.068470629E-3,-4.794234410E-4,-8.177168667E-3,8.747082156E-3
1.356492362E1,-1.794414595E-3,-2.474131063E-3,-4.462059587E-3,5.408440072E-3
1.357488062E1,7.793588447E-4,-6.298469380E-4,-9.126335382E-3,9.181182107E-3
1.358483762E1,1.532234484E-3,-2.220019698E-3,-5.259960890E-3,5.911295842E-3
1.359479462E1,-2.426371211E-4,2.211825922E-3,-8.739065379E-3,9.017888355E-3
1.360475162E1,-1.724686241E-3,-1.095287502E-3,-7.551293820E-3,7.822802292E-3
1.361470762E1,-1.579392701E-4,-3.922730684E-4,-7.534649223E-3,7.546506602E-3
1.362466462E1,-1.269808970E-3,-2.928357571E-5,-9.559184313E-3,9.643198488E-3
1.363462162E1,-9.412078653E-4,-8.675195277E-4,-9.363841265E-3,9.450925120E-3
1.364457862E1,-1.512722345E-3,2.195825800E-4,-9.099125862E-3,9.226626516E-3
1.365453562E1,2.183334436E-4,2.242680639E-4,-5.844812840E-3,5.853187405E-3
1.366449162E1,-7.241592975E-4,-1.435168087E-5,-8.327677846E-3,8.359116638E-3
1.367444862E1,-1.687848708E-3,1.679779962E-4,-8.933924139E-3,9.093516942E-3
1.368440562E1,2.671777038E-4,3.658505157E-4,-8.003413677E-3,8.016224860E-3
1.369436262E1,2.277231310E-3,-5.270540714E-5,-1.296505705E-2,1.316363417E-2
1.370431962E1,-3.198833438E-4,1.135863364E-3,-1.235625893E-2,1.241247943E-2
1.371427562E1,-2.169442829E-3,-5.278689787E-4,-9.800612926E-3,1.005172331E-2
1.372423262E1,-9.220179636E-4,-1.802990213E-3,-8.421093225E-3,8.661160543E-3
1.373418962E1,2.151669469E-3,8.479040116E-5,-8.364006877E-3,8.636751817E-3
1.374414662E1,2.031294629E-3,-6.675524637E-4,-6.740011275E-3,7.071035012E-3
1.375410362E1,2.001783811E-3,-5.602138117E-4,-1.107653975E-2,1.126990288E-2
1.376405962E1,-8.201017044E-4,-1.511228271E-3,-1.128799468E-2,1.141819608E-2
1.377401662E1,2.941512503E-5,-2.031362616E-3,-1.259951666E-2,1.276225370E-2
1.378397362E1,-1.661159564E-3,-5.868645385E-4,-1.152626052E-2,1.166012619E-2
1.379393062E1,-3.775116056E-5,1.437424682E-3,-8.632134646E-3,8.751077843E-3
1.380388762E1,2.489588689E-3,-2.502212301E-4,-4.204630852E-3,4.892809326E-3
1.381384362E1,2.069721930E-3,-1.243585721E-3,-3.764014691E-3,4.471919152E-3
1.382380062E1,-5.068699829E-5,-1.856644638E-3,-8.961439133E-3,9.151889958E-3
1.383375762E1,1.253972179E-3,9.500384331E-4,-1.121335849E-2,1.132318100E-2
1.384371462E1,-1.229691785E-3,2.114105970E-3,-1.324535161E-2,1.346925853E-2
1.385367162E1,1.070353552E-3,1.229015179E-3,-1.153961569E-2,1.165413512E-2
1.386362762E1,1.723626978E-3,-6.722155958E-4,-8.413862437E-3,8.614861860E-3
1.387358462E1,1.661675167E-3,1.844818704E-3,-6.896156818E-3,7.329495158E-3
1.388354162E1,-5.671243416E-4,-1.164286397E-3,-3.977864981E-3,4.183372161E-3
1.389349862E1,1.529051689E-3,-1.571733505E-3,-9.814497083E-3,1.005647544E-2
1.390345562E1,-7.032097783E-4,9.433552623E-4,-1.297939941E-2,1.303262185E-2
1.391341162E1,-2.904622350E-3,3.294739872E-5,-1.139023528E-2,1.175480226E-2
1.392336862E1,-1.330960891E-3,-3.390964121E-4,-1.241288707E-2,1.248864318E-2
1.393332562E1,-2.050267067E-3,3.398053348E-3,-7.452897727E-3,8.443698605E-3
1.394328262E1,7.814721903E-4,2.286183648E-3,-2.942033112E-3,3.806953282E-3
1.395323962E1,-8.683232591E-4,1.466882415E-3,-2.200756222E-3,2.783712853E-3
1.396319562E1,-1.483513275E-3,-1.445017755E-3,-3.911305219E-3,4.425742476E-3
1.397315262E1,-5.969768390E-4,-1.204540953E-3,-8.392199874E-3,8.499195196E-3
1.398311008E1,1.737816492E-3,8.149342611E-4,-1.168439910E-2,1.184100107E-2
1.399306708E1,1.267638407E-3,1.177363098E-3,-1.056329161E-2,1.070402824E-2
1.400302408E1,5.536747631E-5,5.866745487E-4,-9.794171900E-3,9.811883396E-3
1.401298008E1,-5.271660630E-4,5.023246631E-4,-5.937211215E-3,5.981698015E-3
1.402293708E1,-1.312265871E-3,2.173660323E-4,-3.559276462E-3,3.799702441E-3
1.403289408E1,-7.413611747E-4,-5.366513506E-4,-5.903843790E-3,5.974360431E-3
1.404285108E1,-9.597404860E-4,2.654348500E-3,-1.131458953E-2,1.166132943E-2
1.405280808E1,1.085663680E-4,-8.058734238E-4,-1.400054991E-2,1.402414406E-2
1.406276408E1,1.808994683E-3,1.168061048E-3,-1.451933384E-2,1.467814305E-2
1.407272108E1,3.286382183E-3,1.148096286E-3,-1.096944511E-2,1.150856894E-2
1.408267808E1,1.527896966E-3,1.140373759E-3,-6.466303021E-3,6.741512902E-3
1.409263508E1,6.102941115E-4,3.697266802E-4,-2.763789147E-3,2.854415382E-3
1.410259208E1,1.075814711E-3,-6.992658600E-4,-3.643430769E-3,3.862762976E-3
1.411254808E1,2.171020024E-3,-1.243200153E-3,-7.014878094E-3,7.447643200E-3
1.412250508E1,-5.560568534E-4,7.692910731E-5,-1.201043651E-2,1.202354783E-2
1.413246208E1,3.467810806E-3,1.271786168E-3,-1.451183483E-2,1.497452844E-2
1.414241908E1,6.919979351E-4,-1.128787175E-3,-1.327239722E-2,1.333827386E-2
1.415237608E1,2.146212151E-3,1.744981855E-4,-9.405151010E-3,9.648499455E-3
1.416233208E1,-1.751856646E-3,-1.213274896E-3,-5.396828055E-3,5.802309087E-3
1.417228908E1,1.309281099E-3,-8.861990646E-4,-7.511872798E-3,7.676444406E-3
1.418224608E1,-6.731761387E-4,-3.280006349E-4,-5.362968892E-3,5.414996386E-3
1.419220308E1,-1.389614656E-3,7.713995874E-4,-7.335029542E-3,7.505247804E-3
1.420216008E1,-1.385087264E-3,-1.491221599E-3,-6.016764790E-3,6.351666484E-3
1.421211608E1,3.721314482E-3,-2.838997170E-4,-8.426696062E-3,9.216180719E-3
1.422207308E1,3.514653305E-3,4.745684564E-4,-9.877320379E-3,1.049473492E-2
1.423203008E1,6.583474460E-4,1.647546887E-3,-7.784996182E-3,7.984610050E-3
1.424198708E1,-2.204817021E-3,-3.641758114E-3,-7.653702050E-3,8.758012065E-3
1.425194408E1,-3.612691071E-4,1.502642408E-4,-7.448192686E-3,7.458462911E-3
1.426190008E1,1.276308671E-3,2.429664135E-3,-8.783236146E-3,9.202036124E-3
1.427185708E1,-1.979127992E-4,5.456870422E-4,-1.094704494E-2,1.096242385E-2
1.428181408E1,-3.992477432E-4,-6.125215441E-4,-1.058964804E-2,1.061485878E-2
1.429177108E1,1.001241617E-3,-1.611251384E-3,-1.254573837E-2,1.268834769E-2
1.430172808E1,7.956455811E-4,4.044082016E-5,-1.102480665E-2,1.105355368E-2
1.431168408E1,-1.375706634E-4,-3.202185035E-4,-1.003034785E-2,1.003640093E-2
1.432164108E1,2.741541248E-4,3.531388938E-5,-9.853512049E-3,9.857388460E-3
1.433159808E1,1.167700277E-3,-1.453746110E-3,-9.665794671E-3,9.844007736E-3
1.434155508E1,-2.750608604E-3,2.183066681E-3,-9.959276766E-3,1.056024723E-2
1.435151208E1,-1.853239490E-3,2.042605542E-3,-7.400263101E-3,7.897507706E-3
1.436146808E1,1.342776231E-4,-2.186493948E-3,-9.715616703E-3,9.959517769E-3
1.437142508E1,1.066371100E-3,3.550359048E-3,-1.001277566E-2,1.067697865E-2
1.438138208E1,-2.485753037E-3,-2.739401534E-4,-1.140134782E-2,1.167239236E-2
1.439133908E1,9.240625077E-4,3.558891825E-3,-8.320547640E-3,9.096764017E-3
1.440129608E1,6.271200837E-4,-2.020696178E-3,-1.010992751E-2,1.032894606E-2
1.441125208E1,-9.641435463E-5,-3.970358521E-4,-5.247581750E-3,5.263463443E-3
1.442120908E1,-1.985660754E-3,-5.818596110E-4,-5.006566644E-3,5.417298108E-3
1.443116608E1,1.161805354E-3,1.105775125E-3,-1.110100374E-2,1.121627453E-2
1.444112308E1,-5.312880967E-5,-2.580294386E-4,-1.161925495E-2,1.162224107E-2
1.445108008E1,-2.515979344E-3,-1.527319662E-3,-1.386543736E-2,1.417438572E-2
1.446103608E1,-7.812154945E-5,-2.193909138E-3,-1.207472757E-2,1.227266825E-2
1.447099308E1,-2.662785584E-3,-1.000617631E-3,-6.378088146E-3,6.983671750E-3
1.448095008E1,-5.138809793E-4,1.366931945E-3,-2.902660519E-3,3.249309879E-3
1.449090708E1,3.083547112E-3,8.649267256E-4,-6.938397884E-3,7.641840500E-3
1.450086408E1,7.157307700E-4,4.441468045E-4,-1.272544637E-2,1.275329457E-2
1.451082008E1,-1.324159792E-3,1.318944618E-3,-1.338743046E-2,1.351725965E-2
1.452077708E1,-1.679425593E-3,-2.274458297E-3,-1.190964133E-2,1.224063672E-2
1.453073408E1,2.299597720E-3,1.249986701E-3,-6.987132132E-3,7.461275484E-3
1.454069108E1,1.268421765E-3,5.772728473E-4,-6.829209626E-3,6.969952785E-3
1.455064808E1,1.054629101E-3,1.318590716E-3,-4.741221666E-3,5.032902434E-3
1.456060408E1,9.259984363E-4,-5.224524066E-4,-7.783085108E-3,7.855370355E-3
1.457056108E1,1.110474113E-4,-4.363032058E-4,-9.985033423E-3,9.995178061E-3
1.458051808E1,2.405893290E-3,2.143501304E-3,-9.841226041E-3,1.035531991E-2
1.459047508E1,-1.823848346E-3,1.091388054E-3,-8.561879396E-3,8.821753197E-3
1.460043208E1,-3.322118428E-4,2.303925343E-3,-6.393533200E-3,6.804094611E-3
1.461038808E1,1.029680250E-3,-2.295997925E-3,-5.627758801E-3,6.164699264E-3
1.462034508E1,2.123706741E-3,3.089978360E-3,-5.393665284E-3,6.568844783E-3
1.463030208E1,1.494046184E-3,-1.204803586E-3,-1.066695526E-2,1.083824987E-2
1.464025908E1,-2.093117218E-4,-1.922696829E-4,-1.114019752E-2,1.114382249E-2
1.465021608E1,1.556923846E-3,1.424113289E-3,-1.220562309E-2,1.238665998E-2
1.466017208E1,1.788618858E-3,-3.205239773E-4,-1.225142926E-2,1.238545162E-2
1.467012908E1,-1.550978050E-3,-5.092248321E-4,-1.023330912E-2,1.036269552E-2
1.468008608E1,-1.320081996E-3,6.058402359E-4,-4.641734064E-3,4.863677002E-3
1.469004308E1,6.363684661E-4,1.180281863E-3,-5.757752806E-3,5.911831144E-3
1.470000008E1,-7.016037125E-4,8.335383609E-4,-4.718586802E-3,4.842736353E-3
1.470995608E1,8.926103474E-4,1.768118702E-3,-9.959686548E-3,1.015472073E-2
1.471991308E1,2.414674964E-4,4.425458610E-5,-1.103400439E-2,1.103673493E-2
1.472987008E1,8.230446838E-5,1.607462764E-3,-9.831320494E-3,9.962207247E-3
1.473982708E1,-1.845824067E-3,5.728248507E-4,-6.929542869E-3,7.194008561E-3
1.474978408E1,-1.495325705E-3,1.374295913E-3,-5.929894745E-3,6.268041154E-3
1.475974008E1,-3.094200511E-4,2.196946181E-3,-6.262257695E-3,6.643657482E-3
1.476969708E1,2.143864520E-3,-8.339714259E-5,-9.881693870E-3,1.011192286E-2
1.477965408E1,-1.666319906E-3,-1.746807247E-3,-9.156249464E-3,9.469153174E-3
1.478961108E1,-3.421066795E-4,3.156294115E-3,-8.579418063E-3,9.147985780E-3
1.479956808E1,1.196854282E-4,6.816852838E-4,-1.021646336E-2,1.023988003E-2
1.480952408E1,-9.896000847E-4,6.508082151E-5,-5.481582135E-3,5.570573269E-3
1.481948108E1,6.820661365E-4,8.006459102E-4,-3.945205361E-3,4.083000542E-3
1.482943808E1,7.478874759E-4,1.413420774E-3,-7.293634117E-3,7.466873013E-3
1.483939508E1,5.026103463E-4,4.440303892E-4,-1.033469662E-2,1.035643444E-2
1.484935208E1,-3.604281228E-4,2.281138673E-3,-1.121798158E-2,1.145323591E-2
1.485930808E1,1.024149358E-3,1.415078528E-3,-1.120280102E-2,1.133816916E-2
1.486926508E1,1.007124665E-3,3.825612366E-4,-1.067184284E-2,1.072608423E-2
1.487922208E1,-6.293877959E-4,7.072007284E-4,-7.862206548E-3,7.918999538E-3
1.488917908E1,3.138096072E-4,9.245602414E-4,-5.483161658E-3,5.569411987E-3
1.489913608E1,-1.769847586E-3,5.791485310E-4,-8.005708456E-3,8.219436804E-3
1.490909308E1,1.248896937E-3,-1.856754534E-3,-8.045889437E-3,8.351264443E-3
1.491904908E1,1.881397795E-3,-2.201100811E-3,-8.079979569E-3,8.583156312E-3
1.492900608E1,2.457104856E-4,-4.122024402E-4,-9.986050427E-3,9.997574087E-3
1.493896308E1,3.390104976E-3,1.047742553E-3,-9.199086577E-3,9.859704359E-3
1.494892008E1,2.112993272E-3,5.229022354E-4,-7.822092623E-3,8.119316493E-3
1.495887708E1,5.840725498E-4,9.111911058E-4,-8.653264493E-3,8.720687837E-3
1.496883308E1,-6.131241098E-4,1.050065272E-3,-7.856346667E-3,7.949889383E-3
1.497879008E1,-1.474656863E-3,5.624406040E-4,-5.670957267E-3,5.886485252E-3
1.498874721E1,-9.906634223E-4,5.774283782E-4,-8.851993829E-3,8.925952739E-3
1.499870421E1,2.261855174E-3,2.486915328E-3,-1.078039035E-2,1.129236702E-2
1.500866121E1,-1.727061928E-3,-1.584423706E-3,-1.356074587E-2,1.376179384E-2
1.501861721E1,-1.279650838E-3,-9.479280561E-4,-1.199560612E-2,1.210085287E-2
1.502857421E1,1.131501165E-3,1.569572836E-3,-1.090046391E-2,1.107086118E-2
1.503853121E1,1.372250961E-3,4.060370848E-4,-7.303599268E-3,7.442479498E-3
1.504848821E1,-3.925841302E-4,1.554653980E-3,-5.202315748E-3,5.443818553E-3
1.505844521E1,7.203508867E-4,-5.598962307E-4,-6.668921560E-3,6.731040333E-3
1.506840121E1,-1.541987993E-3,-3.091813996E-4,-9.427737445E-3,9.558009910E-3
1.507835821E1,-2.476491267E-3,-7.869526744E-4,-9.653307498E-3,9.996931987E-3
1.508831521E1,-5.870183231E-4,-1.974403858E-5,-1.033688337E-2,1.035355678E-2
1.509827221E1,-2.274916042E-4,-1.033343375E-3,-1.023355499E-2,1.028810958E-2
1.510822921E1,-1.484309323E-4,-1.429452561E-3,-8.173920214E-3,8.299297442E-3
1.511818621E1,-1.910415012E-4,1.540770754E-3,-3.889694810E-3,4.188101848E-3
1.512814221E1,-4.756603157E-4,4.554623738E-4,-6.654731929E-3,6.687238276E-3
1.513809921E1,-1.796854543E-3,-1.797838137E-3,-8.037444204E-3,8.429793446E-3
1.514805621E1,-7.143155672E-4,1.915322617E-3,-6.489653140E-3,6.803991868E-3
1.515801321E1,9.075796697E-5,-5.877818912E-4,-7.776759565E-3,7.799468821E-3
1.516797021E1,2.401900943E-3,1.140823588E-3,-5.707167089E-3,6.296218133E-3
1.517792621E1,9.316951036E-6,8.514709771E-5,-6.803590804E-3,6.804129971E-3
1.518788321E1,-1.782411709E-5,-1.462060027E-3,-8.052393794E-3,8.184068856E-3
1.519784021E1,-1.186685520E-3,7.313191891E-4,-6.410822272E-3,6.560616776E-3
1.520779721E1,8.757062024E-4,-4.174327478E-4,-8.392564952E-3,8.448447072E-3
1.521775421E1,8.493409259E-4,-3.416151740E-3,-9.808301926E-3,1.042085694E-2
1.522771021E1,1.470505958E-3,2.050176263E-3,-9.160917252E-3,9.502000599E-3
1.523766721E1,-2.040896798E-4,1.478809863E-4,-1.106774062E-2,1.107060991E-2
1.524762421E1,-1.191728050E-3,-3.761425614E-5,-9.236000478E-3,9.312643846E-3
1.525758121E1,2.680508420E-3,8.689258248E-4,-7.716666907E-3,8.215053599E-3
1.526753821E1,-7.540166844E-4,-3.062468022E-5,-7.362406701E-3,7.400980439E-3
1.527749421E1,-9.841138963E-4,-3.067944199E-4,-3.495495766E-3,3.644323480E-3
1.528745121E1,7.718405104E-4,-3.960561007E-4,-7.054030895E-3,7.107175957E-3
1.529740821E1,1.444555004E-3,-1.752670854E-3,-8.700665087E-3,8.992228157E-3
1.530736521E1,-1.448666793E-3,1.362969168E-3,-9.130299091E-3,9.344446582E-3
1.531732221E1,1.280540833E-3,7.536374032E-4,-7.629610598E-3,7.772947449E-3
1.532727921E1,5.239613820E-4,2.413773909E-4,-7.811706513E-3,7.832978822E-3
1.533723521E1,-1.504035783E-3,5.332594737E-4,-8.230622858E-3,8.383891813E-3
1.534719221E1,2.134983195E-3,2.685640939E-3,-6.293356419E-3,7.167785956E-3
1.535714921E1,8.388227434E-4,-1.405772753E-3,-6.983380765E-3,7.172686215E-3
1.536710621E1,-8.690513205E-4,1.338292845E-3,-6.065905094E-3,6.272278896E-3
1.537706321E1,1.032687724E-4,-1.417546533E-3,-9.871829301E-3,9.973621026E-3
1.538701921E1,4.398679594E-4,-4.542190582E-4,-1.263336837E-2,1.264918160E-2
1.539697621E1,7.815514691E-4,-1.672082581E-3,-1.077980921E-2,1.093668000E-2
1.540693321E1,1.729052281E-3,-6.402367726E-4,-4.382807761E-3,4.754842667E-3
1.541689021E1,-1.345567172E-3,-3.783032298E-3,-5.724508315E-3,6.992272866E-3
1.542684721E1,3.051187377E-3,-1.695777290E-3,-6.148763001E-3,7.070551002E-3
1.543680321E1,-1.816237345E-4,6.206408143E-4,-9.221784770E-3,9.244430570E-3
1.544676021E1,8.184374892E-4,-4.111956805E-4,-1.086753979E-2,1.090606909E-2
1.545671721E1,-1.235658652E-3,-6.796419621E-4,-1.000520959E-2,1.010410731E-2
1.546667421E1,-1.719522523E-3,-8.242568001E-4,-1.184181869E-2,1.199436646E-2
1.547663121E1,-5.876789801E-4,-7.142685354E-4,-7.133085281E-3,7.192805555E-3
1.548658721E1,6.723335246E-4,2.810852602E-4,-3.480080515E-3,3.555559265E-3
1.549654421E1,2.051318297E-3,1.109061763E-3,-5.575723946E-3,6.043725860E-3
1.550650121E1,8.737655007E-4,3.044111654E-3,-8.047658950E-3,8.648404274E-3
1.551645821E1,9.851937648E-5,6.589842960E-4,-1.340300962E-2,1.341956159E-2
1.552641521E1,1.780305640E-3,1.652566716E-3,-1.055285707E-2,1.082881606E-2
1.553637221E1,1.680969726E-3,-1.026039943E-3,-9.810365736E-3,1.000608280E-2
1.554632821E1,-1.398016466E-4,-1.188606024E-3,-3.479778767E-3,3.679835464E-3
1.555628521E1,-9.936110582E-4,-9.164307266E-4,-2.698674798E-3,3.018270014E-3
1.556624221E1,-1.366296783E-4,7.344316691E-5,-4.257749766E-3,4.260574449E-3
1.557619921E1,1.649019774E-3,-3.771632910E-4,-8.406158537E-3,8.574673155E-3
1.558615621E1,1.120640198E-3,1.174201258E-3,-1.219143718E-2,1.229901312E-2
1.559611221E1,-1.378470100E-3,1.295108348E-3,-1.063321903E-2,1.080013113E-2
1.560606921E1,-1.777847181E-3,1.259067096E-3,-9.890262038E-3,1.012735275E-2
1.561602621E1,1.573741087E-3,-9.209970012E-4,-4.293896258E-3,4.665023211E-3
1.562598321E1,5.292715505E-4,2.287997864E-3,-4.526875913E-3,5.099771381E-3
1.563594021E1,-1.508998685E-4,4.837065935E-4,-5.704525858E-3,5.726985080E-3
1.564589621E1,4.960746737E-4,-1.109416597E-3,-1.005826518E-2,1.013141617E-2
1.565585321E1,-1.638981514E-3,3.654137254E-5,-1.142286882E-2,1.153991021E-2
1.566581021E1,1.202770043E-3,1.653116196E-4,-1.394855976E-2,1.400129648E-2
1.567576721E1,2.201189054E-3,1.091293059E-3,-1.230299473E-2,1.254590902E-2
1.568572421E1,-1.987277996E-3,5.389470607E-4,-5.296215415E-3,5.682396984E-3
