"Time (s)","Gyroscope x (rad/s)","Gyroscope y (rad/s)","Gyroscope z (rad/s)","Absolute (rad/s)"
1.323500001E-3,1.668496057E-3,-1.507407986E-3,3.283856437E-3,3.979933545E-3
1.128050000E-2,-2.074637450E-5,-1.078597270E-3,4.446659237E-3,4.575650867E-3
2.123750000E-2,-1.025055535E-4,4.154359922E-4,7.801976055E-3,7.813701096E-3
3.119450000E-2,-6.092549302E-5,-2.745131962E-3,5.043109879E-3,5.742161497E-3
4.115150000E-2,-1.603960991E-3,5.060555413E-4,2.618035302E-3,3.111734550E-3
5.110750000E-2,-6.477064453E-4,-4.193643108E-4,6.527022459E-3,6.572473830E-3
6.106450000E-2,-1.605911879E-3,2.183076926E-3,5.105161108E-3,5.779917626E-3
7.102150000E-2,-1.881796634E-3,1.481082290E-5,8.245917968E-3,8.457927706E-3
8.097850000E-2,1.638103509E-3,1.233472489E-3,6.359067746E-3,6.681510314E-3
9.093550000E-2,7.010445697E-4,-3.820983693E-4,7.318165153E-3,7.361589765E-3
1.008925000E-1,-7.152245380E-4,1.973467879E-3,5.377519876E-3,5.772680627E-3
1.108495000E-1,2.197283320E-3,-3.322837874E-4,6.798263639E-3,7.152262230E-3
1.208065000E-1,9.514564881E-4,2.741813660E-6,5.180925131E-3,5.267567007E-3
1.307635000E-1,7.672307547E-4,-7.447535172E-4,3.281356767E-3,3.451174157E-3
1.407205000E-1,-6.591584533E-4,4.739090800E-4,7.601004094E-3,7.644235928E-3
1.506765000E-1,-1.184329856E-3,9.138248861E-4,6.548225880E-3,6.716917098E-3
1.606335000E-1,-1.287394203E-3,-1.366906799E-3,9.012714028E-3,9.206238765E-3
1.705905000E-1,-1.506049419E-3,-5.549881607E-4,7.138529792E-3,7.316748206E-3
1.805475000E-1,-1.004842576E-3,-4.026545212E-4,6.256757304E-3,6.349712689E-3
1.905045000E-1,9.628944099E-6,-1.039952971E-3,2.301741391E-3,2.525788655E-3
2.004615000E-1,-1.695859479E-3,-1.519055106E-3,2.866065130E-3,3.660300140E-3
2.104185000E-1,-2.668271773E-3,1.465719193E-3,2.287123352E-3,3.807747396E-3
2.203755000E-1,1.034587622E-3,1.821250655E-3,5.993710831E-3,6.349164907E-3
2.303325000E-1,2.273870632E-5,7.772184908E-4,9.450124577E-3,9.482058856E-3
2.402895000E-1,1.333812950E-3,1.360184513E-3,8.518552408E-3,8.728968669E-3
2.502455000E-1,-1.228447072E-3,-7.863612846E-4,8.517633192E-3,8.641615675E-3
2.602025000E-1,-1.418064348E-3,2.696830779E-5,5.061916076E-3,5.256864859E-3
2.701595000E-1,-2.840602072E-3,1.657084562E-3,5.788425915E-3,6.657388673E-3
2.801165000E-1,1.665466349E-3,1.670400612E-3,4.894402809E-3,5.433157022E-3
2.900735000E-1,9.066500934E-4,-8.949041367E-4,2.130347304E-3,2.482186021E-3
3.000305000E-1,7.860088954E-4,1.525171101E-4,8.527792059E-3,8.565296775E-3
3.099875000E-1,-1.561454963E-3,-7.837079465E-5,7.044019178E-3,7.215434135E-3
3.199445000E-1,-5.539811682E-4,1.051075757E-3,2.873508260E-3,3.109454148E-3
3.299015000E-1,-6.816477980E-4,7.553594187E-4,5.219802260E-3,5.318039790E-3
3.398585000E-1,2.944006119E-4,5.463007838E-4,4.650153220E-3,4.691379460E-3
3.498145000E-1,-7.583049592E-4,-9.494833648E-5,6.819663569E-3,6.862350384E-3
3.597715000E-1,-3.551023547E-4,-1.295693219E-4,4.167154431E-3,4.184263609E-3
3.697285000E-1,-1.161320368E-3,-1.151168719E-3,6.090717390E-3,6.306400934E-3
3.796855000E-1,-1.386664808E-4,-1.676641405E-4,3.052584827E-3,3.060329032E-3
3.896425000E-1,1.459567924E-3,7.331799716E-4,5.208978429E-3,5.459061062E-3
3.995995000E-1,2.428425942E-3,-1.418653876E-3,5.135741085E-3,5.855396474E-3
4.095565000E-1,8.898188826E-4,-2.191006206E-3,4.168147221E-3,4.792258037E-3
4.195135000E-1,1.238937257E-4,-3.153411672E-4,4.374541342E-3,4.387641925E-3
4.294705000E-1,-5.582198501E-4,-4.091076553E-4,4.386195913E-3,4.440460906E-3
4.394275000E-1,3.013878129E-3,-9.592063725E-5,5.744140595E-3,6.487512106E-3
4.493835000E-1,-3.709712997E-3,9.190840647E-4,5.335494876E-3,6.563093143E-3
4.593405000E-1,1.718441490E-4,1.843733713E-3,8.088672534E-3,8.297921895E-3
4.692975000E-1,1.818629797E-3,1.042661257E-3,2.910360694E-3,3.586747301E-3
4.792545000E-1,4.055565223E-4,-1.062266529E-4,6.350366399E-3,6.364189940E-3
4.892115000E-1,1.059991308E-3,-1.224533655E-3,4.517871886E-3,4.799398986E-3
4.991685000E-1,2.846706193E-3,-1.819059253E-4,4.085373133E-3,4.982679957E-3
5.091255000E-1,-6.223830860E-4,7.949620485E-4,4.365997389E-3,4.481211730E-3
5.190825000E-1,1.793370349E-3,2.080006525E-4,4.633111879E-3,4.972440766E-3
5.290395000E-1,1.199335791E-3,7.686102763E-4,4.965815693E-3,5.166090746E-3
5.389965000E-1,9.228996933E-4,-3.217608668E-3,5.709636956E-3,6.618512186E-3
5.489525000E-1,-1.354147913E-3,-9.956434369E-4,7.048064843E-3,7.245704966E-3
5.589095000E-1,-7.669208571E-4,-1.193249598E-3,3.672242165E-3,3.936670512E-3
5.688665000E-1,9.042362217E-4,1.602768898E-3,2.875199541E-3,3.413690626E-3
5.788235000E-1,-1.588603482E-5,-1.808740199E-3,4.222493619E-3,4.593609238E-3
5.887805000E-1,3.569163382E-4,1.028629951E-3,5.760904402E-3,5.862890786E-3
5.987375000E-1,-1.132855890E-3,2.359411679E-3,5.415758118E-3,6.015032995E-3
6.086945000E-1,-9.195022285E-4,7.441621274E-4,5.053497851E-3,5.190096545E-3
6.186515000E-1,1.218749676E-3,1.295169815E-3,5.858572200E-3,6.122555336E-3
6.286085000E-1,6.464779144E-4,-1.055010594E-3,5.150638521E-3,5.297174551E-3
6.385645000E-1,-6.733846385E-4,-1.596164890E-3,3.224907443E-3,3.660767302E-3
6.485215000E-1,-1.355791464E-3,1.705522649E-3,4.126461223E-3,4.666332631E-3
6.584785000E-1,-4.883999936E-4,-5.994439125E-4,2.938425168E-3,3.038455204E-3
6.684355000E-1,5.239758175E-4,3.858981654E-4,4.730792716E-3,4.775339545E-3
6.783925000E-1,8.121298160E-4,1.507088542E-3,6.488213316E-3,6.710274416E-3
6.883495000E-1,1.708433265E-4,-6.455928087E-4,4.038767889E-3,4.093607648E-3
6.983065000E-1,4.858953180E-4,5.272636190E-4,3.741824999E-3,3.809902297E-3
7.082635000E-1,5.147304619E-4,-4.099067301E-4,3.230586648E-3,3.296916903E-3
7.182203750E-1,-2.950308146E-3,3.080815077E-4,3.804231063E-3,4.824044605E-3
7.281773750E-1,1.005548635E-3,-3.196187317E-4,5.112655461E-3,5.220395584E-3
7.381333750E-1,-4.235035740E-4,-1.750094816E-4,5.838632584E-3,5.856587235E-3
7.480903750E-1,2.734884620E-3,-9.102467448E-4,2.888614312E-3,4.080715092E-3
7.580473750E-1,-3.751546610E-4,1.869294792E-3,5.120344460E-3,5.463783618E-3
7.680043750E-1,2.613039222E-3,-1.007387415E-3,3.707569093E-3,4.646382674E-3
7.779613750E-1,2.048449125E-3,-5.184309557E-4,5.658866838E-3,6.040503982E-3
7.879183750E-1,-4.339553416E-4,-1.275576651E-4,4.320021719E-3,4.343636247E-3
7.978753750E-1,9.178651962E-4,7.403669879E-4,4.057701677E-3,4.225584302E-3
8.078323750E-1,8.530330379E-4,2.657970414E-3,4.485128447E-3,5.282882667E-3
8.177893750E-1,1.290590502E-3,2.131730318E-3,4.236122593E-3,4.914736272E-3
8.277463750E-1,4.159495002E-4,1.360171475E-3,6.876789033E-3,7.022343472E-3
8.377023750E-1,1.720099477E-3,1.432077028E-3,5.522837862E-3,5.959137931E-3
8.476593750E-1,-4.731167573E-4,-3.041792661E-4,4.597244784E-3,4.631525029E-3
8.576163750E-1,3.335546935E-4,-2.499689348E-3,2.286687493E-3,3.404209932E-3
8.675733750E-1,8.752944414E-4,7.042866200E-4,1.122918911E-3,1.588429062E-3
8.775303750E-1,3.462288994E-3,1.118142158E-3,3.098984249E-3,4.779266716E-3
8.874873750E-1,4.736145493E-4,2.118075266E-3,4.638677463E-3,5.121316450E-3
8.974443750E-1,-8.523734286E-4,4.930142313E-4,5.584098399E-3,5.670252060E-3
9.074013750E-1,1.223585103E-3,-9.025922045E-4,3.096872941E-3,3.449993508E-3
9.173583750E-1,8.941520937E-4,1.275341026E-3,4.074519500E-3,4.362076553E-3
9.273153750E-1,1.704780036E-3,-1.208858564E-3,5.460677668E-3,5.846932067E-3
9.372713750E-1,1.899723429E-3,1.680671237E-3,5.067063496E-3,5.666457216E-3
9.472283750E-1,-1.072362997E-3,1.594346948E-3,4.199672490E-3,4.618349663E-3
9.571853750E-1,1.319184666E-4,-5.233986303E-4,3.034273162E-3,3.081908862E-3
9.671423750E-1,-6.538638845E-4,7.575983182E-4,6.158059463E-3,6.238845209E-3
9.770993750E-1,-1.526570413E-4,-1.211010851E-3,4.888530821E-3,5.038609435E-3
9.870563750E-1,1.393263228E-3,2.750790678E-3,4.196219146E-3,5.207330112E-3
9.970133750E-1,3.026047256E-3,-6.479360163E-4,4.137629643E-3,5.166890955E-3
1.006970375E0,-5.703717470E-4,1.504402608E-3,2.932351083E-3,3.344732277E-3
1.016927375E0,2.244790085E-5,-2.347061411E-3,1.642314717E-3,2.864681274E-3
1.026883375E0,4.334467230E-4,-2.365978435E-3,2.953350544E-3,3.808938100E-3
1.036840375E0,-4.246237222E-4,8.732238784E-4,2.912072465E-3,3.069689119E-3
1.046797375E0,-2.597339917E-4,-1.109539531E-3,2.257069573E-3,2.528419027E-3
1.056754375E0,-2.016772050E-4,7.741143927E-4,3.152957186E-3,3.252855024E-3
1.066711375E0,-1.301690238E-3,-3.660265356E-4,4.620039836E-3,4.813848874E-3
1.076668375E0,-2.449478488E-4,-3.765802830E-5,4.051722586E-3,4.059294704E-3
1.086625375E0,1.369332895E-4,-5.694422871E-4,7.989443839E-5,5.910992855E-4
1.096582375E0,-2.140868455E-3,1.062809490E-3,4.030959681E-3,4.686311737E-3
1.106539375E0,9.449038189E-4,-6.383573636E-4,4.060225561E-3,4.217318456E-3
1.116496375E0,-1.382699003E-3,-1.301484182E-3,3.417603672E-3,3.909697235E-3
1.126453375E0,1.168239396E-3,1.639259979E-3,4.179902375E-3,4.639346983E-3
1.136409375E0,-1.498117344E-3,1.806458458E-4,3.700532019E-3,3.996364063E-3
1.146366375E0,-2.080403036E-3,4.366645589E-4,2.814045176E-3,3.526698595E-3
1.156323375E0,9.398880647E-4,2.540029585E-3,4.069991410E-3,4.888759551E-3
1.166280375E0,1.564695849E-3,-1.043900847E-3,1.154091209E-3,2.206791471E-3
1.176237375E0,-1.721644774E-3,-1.607425511E-3,3.806866705E-3,4.476618323E-3
1.186194375E0,9.834230877E-4,-1.178273931E-3,5.988296121E-3,6.181839602E-3
1.196151375E0,-2.904792083E-3,2.579713240E-3,4.095055163E-3,5.644662456E-3
1.206108375E0,2.326355781E-3,-1.312253065E-3,3.750756383E-3,4.604575200E-3
1.216065375E0,8.182076272E-4,1.784470864E-3,1.348584890E-3,2.381697124E-3
1.226021375E0,2.107046545E-3,1.336726360E-3,-2.100877464E-5,2.495380506E-3
1.235978375E0,-6.101767067E-4,2.158014104E-4,2.946818247E-3,3.017055459E-3
1.245935375E0,1.225711312E-4,1.093655825E-3,3.427172080E-3,3.599529859E-3
1.255892375E0,-1.433513826E-3,9.849993512E-4,5.428269506E-3,5.700113634E-3
1.265849375E0,7.092132000E-4,2.641315572E-3,3.812922165E-3,4.692324237E-3
1.275806375E0,1.286441693E-4,-9.725932032E-4,3.335149959E-3,3.476451080E-3
1.285763375E0,-1.443645218E-3,9.186463431E-4,9.240433574E-4,1.944705311E-3
1.295720375E0,1.162790693E-3,-1.015873626E-3,2.997314557E-3,3.371642919E-3
1.305677375E0,-6.302385591E-4,-1.140000299E-3,1.694437116E-3,2.137268926E-3
1.315633375E0,-3.649878781E-4,-8.262805641E-4,8.161272854E-4,1.217382219E-3
1.325590375E0,1.100677298E-3,-1.296608709E-3,3.666982055E-3,4.042207571E-3
1.335547375E0,1.695627463E-3,1.349774189E-3,3.003323451E-3,3.703646123E-3
1.345504375E0,1.961293165E-3,1.323730685E-3,1.715840772E-3,2.922848501E-3
1.355461375E0,1.589515945E-3,4.041409120E-4,3.372859210E-3,3.750475978E-3
1.365418375E0,7.011439884E-4,3.386838362E-4,4.262365401E-4,8.876864432E-4
1.375375375E0,1.185572939E-3,5.056643859E-4,3.201518208E-3,3.451231447E-3
1.385332375E0,-4.387297668E-4,6.399983540E-4,2.891618758E-3,2.993917291E-3
1.395289375E0,1.767699257E-3,-1.250047237E-3,1.027673483E-3,2.396558271E-3
1.405246375E0,1.729222247E-3,1.519509591E-3,1.766137779E-3,2.901441303E-3
1.415202375E0,-2.942476422E-4,-2.227825113E-3,-1.185176894E-3,2.540557159E-3
1.425159375E0,-4.888963886E-4,1.752319746E-3,4.289774224E-3,4.659593015E-3
1.435116375E0,1.573721878E-3,7.874565199E-4,4.723338410E-3,5.040497402E-3
1.445073375E0,-1.192926429E-4,2.873023041E-3,3.763059154E-3,4.735937745E-3
1.455030375E0,7.595504867E-4,9.209262207E-4,2.914309502E-3,3.149320866E-3
1.464987375E0,7.088856073E-4,1.054842025E-3,2.353519201E-3,2.674745433E-3
1.474944375E0,-1.321774675E-3,-5.792733282E-4,3.469649702E-3,3.757807198E-3
1.484901375E0,-1.469308743E-3,3.267610446E-4,2.107476816E-3,2.589806844E-3
1.494858375E0,-4.045767710E-4,4.535270855E-4,5.569053814E-3,5.602118310E-3
1.504814375E0,-1.068660757E-3,-2.369796857E-4,3.594415262E-3,3.757394877E-3
1.514771375E0,-1.759692095E-4,-3.083525226E-4,4.557682201E-3,4.571489198E-3
1.524728375E0,-2.017538063E-4,1.676208340E-3,3.471694887E-3,3.860446138E-3
1.534685375E0,-1.759436680E-3,-1.614925452E-3,1.504663378E-4,2.392956699E-3
1.544642375E0,6.814224180E-4,7.805600762E-5,1.025235280E-3,1.233505830E-3
1.554599375E0,-2.801193157E-3,9.643556550E-4,1.669453457E-3,3.400549923E-3
1.564556375E0,-1.837436575E-3,1.460174099E-4,4.128025845E-3,4.520850764E-3
1.574513375E0,2.186599653E-3,-1.746159047E-3,4.921915010E-3,5.661760929E-3
1.584470375E0,2.008193173E-3,3.530168906E-3,2.663595602E-3,4.856920202E-3
1.594427375E0,2.808669815E-4,2.595409751E-4,3.143498674E-3,3.166675180E-3
1.604383375E0,1.343413605E-3,-8.629765362E-4,2.649519593E-3,3.093451582E-3
1.614340375E0,1.970587997E-3,-1.933035441E-3,3.664715216E-3,4.588025793E-3
1.624297375E0,-2.032141201E-4,5.652587861E-4,3.498623148E-3,3.549813714E-3
1.634254375E0,-1.773815602E-4,1.522133127E-3,2.517513931E-3,2.947241060E-3
1.644211375E0,-7.238141261E-4,1.654131338E-4,3.118678927E-3,3.205842580E-3
1.654168375E0,2.224038821E-3,2.997152507E-3,1.516520977E-3,4.028536670E-3
1.664125375E0,-1.287495950E-3,-1.824079081E-4,4.383342341E-3,4.572155787E-3
1.674082375E0,2.981501166E-4,-1.176299527E-3,-3.938358277E-4,1.275805914E-3
1.684039375E0,1.798216254E-4,-2.220142633E-4,1.357402653E-3,1.387143868E-3
1.693995375E0,-6.809120532E-4,2.236615866E-3,1.464461908E-3,2.758757046E-3
1.703952375E0,-1.674669329E-4,3.771271557E-3,3.154527396E-3,4.919509876E-3
1.713909375E0,2.212600317E-3,9.445929900E-4,2.077013254E-3,3.178339210E-3
1.723866500E0,-3.008472268E-3,-3.347997554E-3,2.171713859E-4,4.506346238E-3
1.733823500E0,-5.418525543E-4,-1.840116456E-3,3.724820912E-3,4.189740277E-3
1.743780500E0,-1.752236160E-3,-2.178490162E-3,2.726525068E-3,3.905136347E-3
1.753737500E0,-9.823162109E-4,2.075110562E-3,4.460776225E-3,5.016926700E-3
1.763694500E0,5.003657425E-4,1.593023539E-3,4.514243454E-3,4.813157366E-3
1.773651500E0,7.504365640E-4,4.531899467E-4,2.143029124E-4,9.024754305E-4
1.783608500E0,1.519518672E-3,-1.256616786E-3,3.479674459E-3,3.999519606E-3
1.793564500E0,5.690364633E-4,-1.190570183E-3,1.452475786E-3,1.962382676E-3
1.803521500E0,-8.288696408E-4,1.030314714E-3,2.422591671E-3,2.759986177E-3
1.813478500E0,-7.298002020E-4,7.472205907E-4,2.628188580E-3,2.828130506E-3
1.823435500E0,-1.640860690E-3,3.505218774E-4,1.429423690E-3,2.204209943E-3
1.833392500E0,-1.856310293E-3,7.619801909E-4,1.266170293E-3,2.372696552E-3
1.843349500E0,-9.775031358E-4,3.011878580E-4,-7.638353854E-4,1.276585682E-3
1.853306500E0,6.398344412E-4,-1.805638894E-3,3.062594682E-3,3.612368491E-3
1.863263500E0,1.484697103E-3,4.650214687E-4,3.769956529E-4,1.600842333E-3
1.873220500E0,-1.067676349E-3,7.308050990E-4,5.470290780E-3,5.621217848E-3
1.883176500E0,1.628149766E-4,2.236966044E-3,5.027331412E-3,5.504960211E-3
1.893133500E0,4.791985266E-4,2.558408305E-4,2.515969798E-3,2.573944402E-3
1.903090500E0,9.893082315E-4,-2.065710723E-4,2.459257841E-3,2.658825213E-3
1.913047500E0,-1.020550262E-4,-5.796803162E-4,2.515982836E-3,2.583914498E-3
1.923004500E0,-1.866176724E-3,4.308158532E-4,-1.154802740E-4,1.918737491E-3
1.932961500E0,8.523779688E-4,-1.068810001E-3,9.982548654E-4,1.692753909E-3
1.942918500E0,5.321889184E-4,-3.822529688E-4,3.878338262E-3,3.933300148E-3
1.952875500E0,-2.162397373E-3,-1.689335331E-4,4.747061059E-3,5.219108127E-3
1.962832500E0,1.926007913E-3,1.624817960E-3,4.626406357E-3,5.268128288E-3
1.972789500E0,-1.280171564E-3,-1.348335296E-3,4.772348329E-3,5.121733679E-3
1.982745500E0,8.666929789E-4,5.168570206E-4,4.719588906E-4,1.114021137E-3
1.992702500E0,-1.661978429E-3,-9.430879727E-4,8.474644274E-4,2.090402636E-3
2.002659500E0,4.787965445E-4,2.210800536E-3,-8.163116872E-4,2.404838854E-3
2.012616500E0,-4.930817522E-5,-7.652826607E-4,6.170012057E-4,9.842658862E-4
2.022573500E0,8.249587845E-4,-7.037073374E-5,6.138386205E-3,6.193972412E-3
2.032530500E0,-4.637448583E-4,-2.160454169E-4,4.024101421E-3,4.056491978E-3
2.042487500E0,-3.530601971E-4,6.621703506E-4,2.186320722E-3,2.311518846E-3
2.052444500E0,4.854437429E-5,-5.077570677E-4,3.161836416E-3,3.202714991E-3
2.062401500E0,-8.356543258E-4,6.363820285E-4,2.986667678E-3,3.165988638E-3
2.072357500E0,-2.205860801E-5,-2.499176189E-4,2.607168630E-3,2.619212413E-3
2.082314500E0,9.877092671E-4,6.449036300E-4,1.433255151E-3,1.856257152E-3
2.092271500E0,-5.737021565E-4,5.487641320E-4,1.688653603E-3,1.865965495E-3
2.102228500E0,-1.003593672E-3,2.631638199E-4,4.737023264E-3,4.849313855E-3
2.112185500E0,-2.868871437E-3,9.915390983E-4,4.047796130E-3,5.059469006E-3
2.122142500E0,-3.697169013E-4,2.355799079E-4,4.659958184E-3,4.680534025E-3
2.132099500E0,2.016988583E-5,9.378558025E-4,1.325679943E-3,1.624009742E-3
2.142056500E0,-1.246645115E-5,2.405119129E-3,2.432782203E-4,2.417423779E-3
2.152013500E0,-1.047370955E-3,-1.592384651E-4,-1.911219209E-3,2.185200603E-3
2.161969500E0,-4.615755752E-4,9.742202237E-4,1.805242151E-3,2.102630800E-3
2.171926500E0,1.059622038E-3,2.203535289E-3,2.152519301E-3,3.257561353E-3
2.181883500E0,-4.127370194E-4,1.270676963E-3,3.074785694E-3,3.352503372E-3
2.191840500E0,5.912747001E-4,6.003594026E-4,1.418033615E-3,1.649501899E-3
2.201797500E0,1.245178282E-5,2.470374107E-3,3.305645660E-3,4.126765865E-3
2.211754500E0,1.234310097E-3,-4.023779184E-4,1.074980944E-3,1.685530610E-3
2.221711500E0,3.288723528E-3,1.468626782E-3,5.220994353E-6,3.601748788E-3
2.231668500E0,8.591215592E-4,-1.558587886E-3,1.203376800E-3,2.148348616E-3
2.241625500E0,1.155401114E-3,3.609303385E-4,2.670153975E-3,2.931713611E-3
2.251581500E0,-7.562160026E-4,-1.330859959E-4,5.219064653E-3,5.275245054E-3
2.261538500E0,2.468941966E-4,1.396863721E-3,4.410458729E-3,4.632961385E-3
2.271495500E0,9.065592894E-4,-9.549735114E-4,1.807751134E-3,2.236467821E-3
2.281452500E0,-2.520252019E-4,-3.000358120E-4,-3.713071346E-4,5.398214326E-4
2.291409500E0,-7.401825860E-4,1.514109783E-3,1.354420558E-3,2.162141009E-3
2.301366500E0,-4.225533921E-4,3.935853019E-4,3.234297037E-3,3.285443362E-3
2.311323500E0,-6.941957399E-4,8.465815336E-5,5.362695083E-3,5.408102558E-3
2.321280500E0,-5.578049459E-4,-1.475857571E-4,3.880422562E-3,3.923086435E-3
2.331237500E0,6.904187612E-4,7.863845676E-4,3.805054352E-3,3.946329608E-3
2.341194500E0,-2.813169267E-4,8.953586221E-4,3.691757098E-3,3.809183212E-3
2.351150500E0,-8.560270071E-4,1.519337296E-3,-9.413436055E-4,1.981740609E-3
2.361107500E0,2.920945641E-3,-1.074216329E-3,7.770657539E-4,3.207755499E-3
2.371064500E0,8.330274140E-4,5.524419248E-4,2.380404621E-4,1.027516430E-3
2.381021500E0,9.786216542E-4,5.376292393E-4,2.584349364E-3,2.815245491E-3
2.390978500E0,-4.669420887E-4,-5.326960236E-4,1.075934619E-3,1.288190697E-3
2.400935500E0,2.208195627E-3,-8.077658713E-4,3.115205094E-3,3.902962517E-3
2.410892500E0,-3.700107336E-4,-1.457842998E-3,4.828948528E-3,5.057762157E-3
2.420849500E0,-2.113160677E-3,-1.127890311E-3,1.815354452E-3,3.005511003E-3
2.430806500E0,-6.191271823E-4,4.849201068E-4,-9.468756616E-4,1.230869407E-3
2.440762500E0,-9.849322960E-4,1.399654895E-3,-1.760590822E-4,1.720500582E-3
2.450719500E0,4.757533316E-5,-7.268795744E-4,-3.437884152E-5,7.292456600E-4
2.460676500E0,1.211719005E-3,3.047930077E-4,2.784278244E-3,3.051780966E-3
2.470633500E0,3.880033037E-4,1.368725672E-3,5.056221038E-3,5.252554399E-3
2.480590500E0,1.688986551E-3,6.572771817E-4,5.127975717E-3,5.438825592E-3
2.490547500E0,8.330465062E-4,3.637960181E-4,1.609407365E-3,1.848379315E-3
2.500504500E0,9.817013051E-5,3.897696733E-4,1.089293510E-4,4.164413239E-4
2.510461500E0,-5.713484716E-4,6.986958906E-4,-3.363508731E-4,9.631962071E-4
2.520418500E0,-4.295036197E-4,-1.211820170E-3,1.208670437E-5,1.285740088E-3
2.530374500E0,1.099417103E-3,9.061917663E-4,2.639828250E-3,2.999765769E-3
2.540331500E0,-7.501104847E-4,-5.419356748E-4,4.601871595E-3,4.693994268E-3
2.550288500E0,1.099188463E-3,1.136654988E-3,4.261519760E-3,4.545409828E-3
2.560245500E0,-2.571404912E-5,3.139928915E-3,5.778718740E-3,6.576732097E-3
2.570202500E0,-5.775210448E-4,3.286963329E-4,2.481725067E-3,2.569149887E-3
2.580159500E0,-1.896397211E-3,2.684092149E-3,1.424904913E-4,3.289525283E-3
2.590116500E0,-3.770197276E-3,1.309901476E-3,1.132121310E-3,4.148726074E-3
2.600073500E0,4.107159330E-4,-1.429795288E-3,5.425941199E-4,1.583480509E-3
2.610030500E0,-1.591714798E-3,2.758824266E-3,3.370072693E-3,4.637031085E-3
2.619986500E0,-7.257305551E-4,-1.413973980E-3,6.628839299E-3,6.816708715E-3
2.629943500E0,1.267645508E-3,-6.696199998E-4,3.378450871E-3,3.670047188E-3
2.639900500E0,-3.656526096E-4,1.418913715E-3,-2.516195178E-3,2.911744517E-3
2.649857500E0,1.605619327E-3,2.588406205E-4,-4.754140973E-4,1.694411536E-3
2.659814500E0,8.899142267E-4,8.961288258E-4,8.234363049E-4,1.507660954E-3
2.669771500E0,1.421481138E-3,1.397335902E-3,4.625767469E-4,2.046248640E-3
2.679728500E0,-2.232193248E-3,1.390296966E-3,2.953872085E-3,3.954866956E-3
2.689685500E0,-5.834300537E-4,-1.324263401E-3,3.611139953E-3,3.890295097E-3
2.699642500E0,-1.668633893E-3,-1.383005641E-3,1.117249951E-3,2.438296767E-3
2.709599500E0,-5.128218327E-4,2.396819182E-3,4.374828190E-3,5.014663509E-3
2.719556125E0,-1.389875310E-3,2.210415900E-3,3.367505968E-3,4.261195638E-3
2.729513125E0,-7.161055692E-5,-2.528413199E-3,-3.249663860E-4,2.550216565E-3
2.739470125E0,-6.865316536E-4,-1.491118222E-3,-3.556489013E-3,3.917061828E-3
2.749427125E0,-5.038387608E-4,2.288911492E-5,7.061660290E-4,8.677833076E-4
2.759384125E0,2.051897580E-3,6.188554689E-4,3.629982471E-3,4.215452350E-3
2.769341125E0,-1.599030104E-3,2.012718469E-4,4.038512707E-3,4.348217165E-3
2.779298125E0,-8.824951947E-4,2.405887470E-3,4.095297307E-3,4.830999101E-3
2.789255125E0,1.297723502E-4,-3.001927398E-3,1.043049619E-3,3.180622812E-3
2.799212125E0,-4.585562274E-4,3.225961700E-4,8.898861706E-4,1.051779207E-3
2.809168125E0,1.425097696E-3,2.459249459E-3,3.063883632E-4,2.858790859E-3
2.819125125E0,-5.207536742E-4,5.825608969E-4,3.015644848E-3,3.115232807E-3
2.829082125E0,9.746111464E-4,-4.376955330E-4,1.124268398E-3,1.550942841E-3
2.839039125E0,-3.063492477E-5,1.227166504E-4,1.193795353E-3,1.200477080E-3
2.848996125E0,4.777624272E-4,-2.091135830E-4,1.840943471E-3,1.913389215E-3
2.858953125E0,-1.957986271E-3,6.858846173E-4,4.739407450E-4,2.128090171E-3
2.868910125E0,-9.715515189E-4,3.066509962E-4,9.336024523E-4,1.381868563E-3
2.878867125E0,-1.150125172E-4,-6.234515458E-4,1.820592210E-3,1.927816304E-3
2.888824125E0,1.157179475E-3,-4.794169217E-5,-4.622694105E-4,1.247018745E-3
2.898780125E0,-8.139126003E-4,-3.737602383E-4,1.061888412E-3,1.389157095E-3
2.908737125E0,-4.836805165E-4,-1.250216737E-4,9.297952056E-4,1.055507643E-3
2.918694125E0,2.306139562E-3,1.148731448E-3,-4.471782595E-4,2.614924858E-3
2.928651125E0,2.218787791E-3,3.380645066E-4,8.838437498E-5,2.246134161E-3
2.938608125E0,1.547563123E-3,-1.174696721E-3,5.976475775E-3,6.284355711E-3
2.948565125E0,-2.793123247E-3,-1.117439009E-3,2.021947876E-3,3.624704212E-3
2.958522125E0,-1.136403065E-3,-2.977270633E-4,6.692409515E-4,1.352012123E-3
2.968479125E0,-2.338576596E-4,-1.096675172E-3,1.915333793E-3,2.219434472E-3
2.978436125E0,8.019915549E-4,-1.721077599E-3,2.122651786E-4,1.910590239E-3
2.988392125E0,4.864069633E-4,-6.518177688E-4,1.201201230E-4,8.221234589E-4
2.998349125E0,-1.814183313E-3,-1.058076508E-3,-1.064948738E-4,2.102885672E-3
3.008306125E0,1.945401076E-3,1.960882917E-3,6.756763905E-4,2.843621942E-3
3.018263125E0,-1.686803298E-3,3.423644230E-4,1.435484737E-3,2.241235194E-3
3.028220125E0,4.245508462E-4,1.580201089E-3,4.238462076E-3,4.543329140E-3
3.038177125E0,1.578750554E-3,-9.376378730E-4,1.510059461E-3,2.377372009E-3
3.048134125E0,1.457035542E-4,4.682447761E-4,-2.335123718E-4,5.431488966E-4
3.058091125E0,-1.731560333E-3,-2.298954874E-3,-1.206545159E-3,3.120776493E-3
3.068048125E0,-6.793455686E-4,2.675335854E-4,2.503504977E-3,2.607800182E-3
3.078004125E0,-2.250572899E-3,-2.019091509E-3,1.679480076E-3,3.458679260E-3
3.087961125E0,1.521794824E-3,-1.445179805E-3,6.400477141E-4,2.194097817E-3
3.097918125E0,9.073966648E-4,1.326389611E-3,3.442643210E-3,3.799272349E-3
3.107875125E0,-1.023927703E-3,4.065334797E-4,1.581892371E-3,1.927713902E-3
3.117832125E0,7.244769949E-5,-2.370896749E-3,1.214670017E-3,2.664924636E-3
3.127789125E0,5.680619506E-4,7.178373635E-4,2.108959481E-3,2.299063930E-3
3.137746125E0,1.865773345E-3,-9.183241054E-4,2.229172736E-3,3.048547265E-3
3.147703125E0,-1.620304538E-3,5.160542205E-4,1.465911046E-3,2.245126711E-3
3.157660125E0,9.811712662E-4,-3.065037541E-3,2.079641446E-3,3.831717725E-3
3.167616125E0,1.993172569E-3,-6.628669798E-4,2.003209665E-3,2.902581349E-3
3.177573125E0,1.532954397E-3,-6.462046877E-4,1.402430236E-3,2.175853912E-3
3.187530125E0,9.830959607E-5,5.237217993E-4,1.188045368E-3,1.302075687E-3
3.197487125E0,3.002730664E-3,1.901248470E-4,2.194164321E-3,3.723828133E-3
3.207444125E0,-1.092412043E-3,1.072696410E-3,1.910004765E-3,2.447888858E-3
3.217401125E0,6.729769520E-4,-7.540229708E-4,2.421829849E-3,2.624253882E-3
3.227358125E0,1.110499725E-4,2.120858990E-3,1.868691295E-3,2.828848195E-3
3.237315125E0,1.070779283E-3,-1.374948770E-4,2.051427960E-3,2.318152236E-3
3.247272125E0,-1.794782002E-3,-1.364294440E-4,2.209618688E-3,2.849959679E-3
3.257228125E0,1.666094176E-4,1.179223880E-3,1.720726490E-3,2.092660343E-3
3.267185125E0,-1.798270736E-3,2.421055920E-3,2.930067480E-3,4.204828753E-3
3.277142125E0,8.831955492E-4,-1.441603526E-4,4.326097667E-3,4.417684644E-3
3.287099125E0,-8.044496644E-4,6.489828229E-5,1.512734219E-3,1.714559963E-3
3.297056125E0,-1.499109203E-3,-4.402864724E-4,-3.284942359E-4,1.596586685E-3
3.307013125E0,2.859686501E-3,-1.020323485E-3,-1.002008095E-3,3.197324995E-3
3.316970125E0,1.425111433E-3,1.068019308E-3,-7.685795426E-4,1.939670682E-3
3.326927125E0,1.239489182E-3,-1.015903428E-3,6.932299584E-4,1.746127425E-3
3.336884125E0,-3.166841343E-4,-7.420750335E-4,2.437083051E-3,2.567165361E-3
3.346840125E0,-8.812742308E-4,4.105409607E-4,3.312196583E-3,3.451931974E-3
3.356797125E0,2.603707835E-4,-7.912041619E-4,1.626113430E-3,1.827030886E-3
3.366754125E0,-1.392120728E-3,5.076192319E-4,2.155816182E-3,2.615955049E-3
3.376711125E0,-1.254259143E-3,6.238166243E-4,-1.513313502E-3,2.062142317E-3
3.386668125E0,-1.299532829E-3,4.248786718E-4,7.027015090E-4,1.537236764E-3
3.396625125E0,6.928149378E-4,-7.230965421E-4,7.877647877E-4,1.274140694E-3
3.406582125E0,1.889373292E-3,7.824879140E-5,3.108976409E-3,3.638899370E-3
3.416539125E0,-2.022627741E-4,-1.244924031E-3,2.431292087E-4,1.284467939E-3
3.426496125E0,-1.129042823E-3,5.910592154E-4,6.955992430E-4,1.451877061E-3
3.436452125E0,-2.225247910E-3,-4.316372797E-4,1.654332504E-3,2.806217211E-3
3.446409125E0,-1.772510586E-3,2.091174945E-3,3.659959882E-3,4.572757677E-3
3.456366125E0,-1.446485287E-3,-5.980022252E-5,1.076741144E-3,1.804235916E-3
3.466323125E0,2.058501123E-3,-1.249700785E-3,9.244084358E-4,2.579478606E-3
3.476280125E0,-1.809167210E-3,5.074776709E-6,1.605607569E-3,2.418902109E-3
3.486237125E0,-4.493570887E-4,-1.709735021E-3,7.275640965E-4,1.911665543E-3
3.496194125E0,-7.070668507E-4,1.473096199E-3,2.989966422E-3,3.407323752E-3
3.506151125E0,7.358337753E-4,-1.133605838E-3,3.001417965E-3,3.291659663E-3
3.516108125E0,4.334695404E-4,1.092823222E-3,1.440700144E-3,1.859509436E-3
3.526064125E0,1.972510247E-3,-9.242556989E-4,5.653183907E-4,2.250473317E-3
3.536021125E0,-5.111631472E-4,1.002239995E-3,-1.319205388E-3,1.733803803E-3
3.545978125E0,-1.475005411E-5,-2.676916309E-3,2.345038578E-3,3.558834700E-3
3.555935125E0,1.240568468E-3,9.485799819E-5,2.920007333E-3,3.174027566E-3
3.565892125E0,2.949519083E-3,-1.318748109E-3,2.028914168E-3,3.815134611E-3
3.575849125E0,-1.518797828E-3,8.228616789E-4,1.645077020E-3,2.385398622E-3
3.585806125E0,1.742242835E-3,-5.047246814E-4,2.291426063E-3,2.922463088E-3
3.595763125E0,-6.043119356E-4,-1.192638651E-3,-5.709752440E-5,1.338222700E-3
3.605720125E0,1.804517349E-3,1.212195493E-3,-5.401950330E-4,2.239980235E-3
3.615676125E0,-8.271094412E-4,7.776999846E-4,-4.626065493E-4,1.225941317E-3
3.625633125E0,-2.947435714E-4,4.626484588E-4,9.464714676E-4,1.093949546E-3
3.635590125E0,1.053161919E-3,-1.319147646E-3,1.238107681E-3,2.093373156E-3
3.645547125E0,-1.859537326E-3,-3.082109615E-4,3.966782242E-3,4.391837249E-3
3.655504125E0,-1.290649408E-3,-8.509028703E-4,1.461558044E-3,2.127431199E-3
3.665461125E0,-5.292515270E-4,4.961239174E-4,-3.752242774E-4,8.167247876E-4
3.675418125E0,-2.107354812E-4,-3.907801583E-4,5.062296987E-4,6.733402431E-4
3.685375125E0,3.469305811E-4,-8.152881637E-4,1.811977476E-3,2.017007187E-3
3.695332125E0,6.340255495E-4,1.597866416E-3,2.866918221E-3,3.342811028E-3
3.705288125E0,3.056577407E-4,4.867957905E-4,1.095384359E-3,1.237038274E-3
3.715245125E0,4.644261207E-4,7.851868868E-4,2.940222621E-3,3.078492997E-3
3.725201750E0,-1.788874390E-3,-4.992550239E-4,2.293873578E-3,2.951471354E-3
3.735158750E0,9.048287757E-5,1.734700054E-4,-1.239260659E-3,1.254609889E-3
3.745115750E0,2.618089085E-3,-1.860120334E-3,1.392476261E-3,3.500489716E-3
3.755072750E0,-2.060192637E-4,-9.405612946E-5,2.715662122E-3,2.725089219E-3
3.765029750E0,-7.042966317E-4,-1.054392196E-3,9.862054139E-4,1.606355430E-3
3.774986750E0,6.282769609E-4,-2.220639959E-3,-7.876697928E-4,2.438523625E-3
3.784943750E0,-1.360501628E-4,-1.496792771E-3,4.229459912E-3,4.488566518E-3
3.794899750E0,1.967543969E-3,-1.169340685E-4,1.929381862E-3,2.758154676E-3
3.804856750E0,1.474060118E-3,-1.644790173E-3,-9.966343641E-4,2.423111223E-3
3.814813750E0,1.168006333E-3,2.293052152E-3,1.862477511E-4,2.580119220E-3
3.824770750E0,1.123265130E-3,-3.972733393E-4,1.820176840E-5,1.191588001E-3
3.834727750E0,2.340761479E-3,-1.307666302E-3,-3.144405782E-4,2.699634852E-3
3.844684750E0,1.191525953E-4,-2.266404219E-3,1.301566139E-3,2.616268304E-3
3.854641750E0,-2.910259645E-3,2.449710853E-3,2.236053348E-3,4.412553574E-3
3.864598750E0,-3.043566830E-4,2.704458311E-4,3.478152677E-3,3.501902338E-3
3.874555750E0,2.263535745E-3,2.590734512E-4,-5.334243178E-5,2.278938029E-3
3.884511750E0,6.882473826E-5,1.166945323E-3,1.659870148E-3,2.030188942E-3
3.894468750E0,9.151827544E-5,8.296146989E-4,-2.117713913E-3,2.276257534E-3
3.904425750E0,-8.816006593E-4,-3.056908026E-4,-7.957220078E-6,9.331290943E-4
3.914382750E0,-2.939029131E-3,1.681766473E-3,3.656454384E-3,4.983561916E-3
3.924339750E0,-3.680135123E-4,-3.357511014E-5,3.709184006E-3,3.727547079E-3
3.934296750E0,9.298184887E-5,-2.346690744E-4,1.700265333E-3,1.718900056E-3
3.944253750E0,-1.446591690E-3,1.146978699E-3,5.351323634E-4,1.922122343E-3
3.954210750E0,9.688111022E-4,2.003470436E-3,3.029908985E-4,2.245950183E-3
3.964167750E0,-1.057744958E-4,1.740883105E-3,2.087309957E-3,2.720059757E-3
3.974123750E0,8.156738477E-4,1.120353118E-4,-5.300901830E-5,8.250367828E-4
3.984080750E0,-6.043235771E-4,2.761278301E-5,1.655409113E-3,1.762483697E-3
3.994037750E0,2.602913650E-3,1.170936972E-3,1.688022166E-3,3.315972210E-3
4.003994750E0,-3.452848410E-3,1.352032647E-3,-1.139989123E-3,3.879398100E-3
4.013951750E0,-2.044063760E-3,-5.438402295E-4,2.289747819E-3,3.117194881E-3
4.023908750E0,1.889966661E-4,6.332769990E-4,2.571510151E-3,2.655075132E-3
4.033865750E0,-4.771552049E-4,4.741745070E-4,2.342121676E-3,2.436811953E-3
4.043822750E0,-2.842841437E-3,-1.954095438E-3,3.231782466E-4,3.464777135E-3
4.053779750E0,-1.714968821E-3,1.503702253E-3,1.128491014E-3,2.544745664E-3
4.063735750E0,-3.516967408E-4,-8.398797363E-4,1.131951809E-3,1.452722777E-3
4.073692750E0,4.921598593E-4,-1.332473010E-3,1.666601747E-3,2.189809817E-3
4.083649750E0,-3.062558826E-4,1.185012981E-3,1.564335078E-3,1.986250908E-3
4.093606750E0,4.528034478E-4,1.270437613E-3,4.384852946E-3,4.587589568E-3
4.103563750E0,-2.252169419E-3,9.732292965E-4,7.485728711E-4,2.565112804E-3
4.113520750E0,2.258768538E-3,1.144735143E-3,1.408388838E-3,2.897587440E-3
4.123477750E0,6.811119383E-4,1.555394381E-3,8.448641747E-4,1.896565482E-3
4.133434750E0,7.647048915E-4,-1.624785364E-5,2.919863909E-4,8.187146122E-4
4.143391750E0,2.989243250E-3,-3.414191306E-4,-7.366575301E-5,3.009579518E-3
4.153347750E0,8.179866709E-4,7.485207170E-4,2.658704296E-3,2.880641246E-3
4.163304750E0,2.406295855E-3,3.067335114E-3,1.262407750E-3,4.097862585E-3
4.173261750E0,-1.068759477E-3,-6.673904136E-4,2.478752285E-4,1.284172462E-3
4.183218750E0,-2.449342050E-3,-1.659151167E-3,3.322977573E-4,2.976991916E-3
4.193175750E0,3.475597128E-3,-1.177186146E-3,-1.058522612E-4,3.671068962E-3
4.203132750E0,3.383933799E-4,1.190098003E-3,-1.423992217E-5,1.237354481E-3
4.213089750E0,-1.165892463E-3,-1.840622164E-3,1.509346068E-3,2.650532162E-3
4.223046750E0,1.404590672E-3,6.076218560E-4,2.319745719E-3,2.779082489E-3
4.233003750E0,-1.825617859E-3,-1.891739666E-4,1.184819266E-3,2.184597000E-3
4.242959750E0,-6.474354304E-4,-2.205719240E-3,1.436222345E-3,2.710554302E-3
4.252916750E0,-6.767793093E-4,-1.411875710E-4,-8.360035717E-4,1.084834612E-3
4.262873750E0,1.311536762E-3,1.192523167E-3,2.408791333E-3,2.990738348E-3
4.272830750E0,8.091294440E-4,2.788337879E-3,2.579983324E-3,3.884048472E-3
4.282787750E0,3.206773195E-3,-1.872726716E-3,9.160414338E-4,3.824870140E-3
4.292744750E0,9.439350106E-5,9.931689128E-4,6.052516401E-4,1.166886528E-3
4.302701750E0,3.922155127E-3,4.655970261E-4,3.301464021E-4,3.963467936E-3
4.312658750E0,8.638040163E-5,1.158247702E-3,6.100349128E-4,1.311922981E-3
4.322615750E0,3.125285730E-5,-1.538469456E-3,-1.692002639E-3,2.287080659E-3
4.332571750E0,-7.708803751E-4,4.509659484E-4,1.022690907E-3,1.357764166E-3
4.342528750E0,3.497777507E-4,1.336466521E-3,4.594326019E-4,1.455872780E-3
4.352485750E0,1.216263510E-3,-8.374964818E-4,1.066669822E-3,1.821670056E-3
4.362442750E0,1.915875939E-3,-1.088632271E-3,3.492143005E-4,2.231065096E-3
4.372399750E0,-1.444959547E-3,5.647391081E-4,2.363331616E-3,2.827043452E-3
4.382356750E0,1.738316962E-3,4.981597885E-4,1.778768376E-3,2.536518474E-3
4.392313750E0,-2.517521149E-3,-2.178258263E-3,3.558397293E-4,3.348035798E-3
4.402270750E0,5.413856125E-4,-2.160416916E-4,1.085013151E-3,1.231676066E-3
4.412227750E0,1.012841589E-3,4.859818146E-4,-1.561157405E-4,1.134195103E-3
4.422183750E0,-1.027672552E-3,-6.485246122E-4,6.851777434E-4,1.395049672E-3
4.432140750E0,3.410528414E-3,5.419226363E-4,1.450479031E-4,3.456359805E-3
4.442097750E0,-1.961905509E-4,-5.489084870E-4,-4.810616374E-4,7.557853917E-4
4.452054750E0,-3.541142214E-4,-1.148609444E-4,-4.615262151E-5,3.751266224E-4
4.462011750E0,-1.755736070E-3,4.105810076E-4,2.574492246E-4,1.821391230E-3
4.471968750E0,2.216553781E-3,-1.992300153E-3,1.157201827E-3,3.197105977E-3
4.481925750E0,-7.973455358E-4,-1.941341907E-4,1.225644723E-3,1.475009483E-3
4.491882750E0,2.117475029E-3,1.306141727E-3,1.496853307E-3,2.903493849E-3
4.501839750E0,1.222386491E-3,-9.831115603E-4,-1.393740997E-3,2.098392489E-3
4.511795750E0,-9.094690904E-5,2.821140923E-3,2.248836681E-3,3.608929739E-3
4.521752750E0,6.869625067E-4,6.101848558E-4,-2.287030220E-4,9.468622477E-4
4.531709750E0,3.603346413E-4,-3.140620887E-3,-2.299265936E-3,3.908959511E-3
4.541666750E0,3.107998054E-4,2.391971648E-4,6.762854755E-4,7.817760850E-4
4.551623750E0,-2.012614626E-3,-1.431295648E-3,2.614919096E-3,3.596807855E-3
4.561580750E0,4.129923182E-4,6.805909798E-4,1.105174422E-3,1.362048913E-3
4.571537750E0,-1.681678928E-3,-1.290015876E-3,5.321018398E-5,2.120145350E-3
4.581494750E0,4.797425354E-4,1.331865788E-3,-8.791610599E-4,1.666416378E-3
4.591451750E0,2.093183110E-3,1.898845658E-3,9.238626808E-4,2.973306680E-3
4.601407750E0,1.352070831E-5,2.315363847E-3,-2.465974540E-4,2.328497983E-3
4.611364750E0,6.371772615E-4,-1.543755643E-3,1.600421965E-4,1.677733546E-3
4.621321750E0,-1.679240260E-3,1.454963349E-3,1.272179186E-3,2.560313668E-3
4.631278750E0,6.463215686E-4,2.069964074E-3,6.656888872E-4,2.268396908E-3
4.641235750E0,-4.692766815E-4,1.644656993E-3,2.755373716E-4,1.732350448E-3
4.651192750E0,6.659511710E-4,1.803846098E-3,6.441380829E-4,2.027872180E-3
4.661149750E0,4.483709345E-4,-2.130707726E-3,-1.491717994E-3,2.639351148E-3
4.671106750E0,1.070000231E-3,1.111615449E-3,6.398707628E-4,1.670336492E-3
4.681063750E0,-8.205778431E-4,1.634127460E-3,1.205792651E-3,2.190355330E-3
4.691019750E0,5.898573436E-4,1.632435247E-3,2.176383510E-3,2.783778315E-3
4.700976750E0,-5.118923727E-4,7.946044207E-4,2.144692466E-3,2.343743962E-3
4.710933750E0,2.192017855E-3,5.784481764E-4,1.613002270E-3,2.782322931E-3
4.720890542E0,4.279400455E-4,2.815769054E-3,6.490573287E-5,2.848842011E-3
4.730847542E0,1.993835904E-4,1.938988455E-3,3.204457462E-4,1.975377311E-3
4.740804542E0,-1.668291166E-3,3.908947110E-5,5.306303501E-5,1.669592492E-3
4.750761542E0,-3.618788905E-4,1.239674166E-4,1.402743161E-3,1.453964452E-3
4.760718542E0,-4.534916952E-4,-8.555427194E-4,2.538582310E-3,2.716985132E-3
4.770675542E0,-1.970091835E-3,7.402086630E-4,1.849988475E-3,2.802075670E-3
4.780631542E0,-2.496899106E-4,6.938697770E-4,1.968497410E-3,2.102090001E-3
4.790588542E0,2.020949498E-3,-1.628272235E-3,1.975273713E-3,3.261474143E-3
4.800545542E0,-3.322195262E-4,2.172058448E-3,1.948110759E-3,2.936552953E-3
4.810502542E0,1.350601320E-3,-2.184052020E-3,6.707962602E-4,2.654086430E-3
4.820459542E0,-1.194049139E-3,9.454879910E-5,1.329395920E-3,1.789409493E-3
4.830416542E0,1.716330298E-3,9.257942438E-4,9.344257414E-4,2.162414424E-3
4.840373542E0,2.243636176E-3,-7.261643186E-4,5.176421255E-4,2.414367677E-3
4.850330542E0,-5.492839264E-4,-5.725678056E-5,1.829782501E-3,1.911307189E-3
4.860287542E0,3.537939629E-4,1.483381726E-3,2.316074446E-3,2.773047485E-3
4.870243542E0,-1.202945714E-3,1.713225618E-3,2.278087661E-3,3.093849350E-3
4.880200542E0,1.071393955E-3,1.634395681E-3,-4.511196166E-4,2.005652801E-3
4.890157542E0,3.144233488E-4,-2.259647474E-3,-4.614628851E-4,2.327620403E-3
4.900114542E0,1.058244263E-3,1.526835375E-3,1.239765435E-3,2.233411184E-3
4.910071542E0,-2.418735297E-3,1.550745219E-4,-3.741200082E-3,4.457679508E-3
4.920028542E0,-1.322577940E-3,5.550812930E-4,4.831068218E-4,1.513512422E-3
4.929985542E0,1.057765912E-3,2.973081544E-3,-9.275861084E-4,3.289148610E-3
4.939942542E0,-1.406989526E-3,-1.559086144E-3,1.201344654E-3,2.419421027E-3
4.949899542E0,9.907429339E-4,6.295740604E-6,1.782421023E-4,1.006668488E-3
4.959855542E0,2.356944606E-3,7.892651483E-4,-2.625118941E-4,2.499407899E-3
4.969812542E0,-3.724187147E-3,-1.245681196E-4,-1.004897058E-5,3.726283417E-3
4.979769542E0,-2.498334274E-3,2.653179690E-4,1.791844144E-3,3.085899092E-3
4.989726542E0,7.936271140E-4,2.325437963E-3,1.747926697E-3,3.015419283E-3
4.999683542E0,8.370366413E-4,6.095133722E-5,-1.785822213E-3,1.973196995E-3
5.009640542E0,-1.910993364E-3,-1.892585307E-3,1.603472978E-3,3.131277754E-3
5.019597542E0,5.921116099E-4,5.498435348E-5,-9.482353926E-5,6.021718536E-4
5.029554542E0,-1.100777881E-3,1.607188024E-3,1.009276137E-3,2.193947038E-3
5.039511542E0,-3.144221380E-3,-9.390600026E-4,5.269777030E-4,3.323502261E-3
5.049467542E0,2.222502371E-4,1.161638647E-5,2.095909789E-3,2.107692566E-3
5.059424542E0,-4.675083328E-4,-5.630943924E-4,6.628632545E-4,9.874345701E-4
5.069381542E0,6.690411828E-5,-7.983883843E-4,-4.869848490E-4,9.375790187E-4
5.079338542E0,1.865336788E-3,1.902589574E-3,1.149527729E-3,2.901851550E-3
5.089295542E0,1.895217225E-3,-4.255603999E-4,1.117907465E-3,2.241130760E-3
5.099252542E0,-1.076337881E-3,2.383654937E-4,9.099133313E-4,1.429427723E-3
5.109209542E0,-1.626208657E-3,-3.174105659E-4,1.142103225E-3,2.012387597E-3
5.119166542E0,1.520582475E-3,-2.100858837E-4,4.534088075E-4,1.600589481E-3
5.129123542E0,3.722262336E-4,-2.712571062E-3,-1.099817455E-4,2.740198920E-3
5.139079542E0,-2.964481246E-5,-3.711199388E-4,2.286598086E-3,2.316708793E-3
5.149036542E0,-9.033019887E-4,6.521651521E-4,8.360184729E-4,1.392910893E-3
5.158993542E0,2.087960485E-3,6.084898487E-4,-1.055091619E-3,2.417241653E-3
5.168950542E0,4.119514488E-4,8.152695373E-4,1.963637769E-3,2.165696586E-3
5.178907542E0,5.967748584E-4,1.433389261E-3,-2.119787037E-3,2.627592451E-3
5.188864542E0,8.518637624E-4,5.834558979E-4,2.268267795E-3,2.492214165E-3
5.198821542E0,-1.492183656E-4,-9.417366236E-4,-3.152638674E-4,1.004253601E-3
5.208778542E0,-2.141834702E-3,-9.413529187E-5,1.025887206E-3,2.376712415E-3
5.218735542E0,3.772513475E-3,-8.544679731E-4,2.498349175E-3,4.604749943E-3
5.228691542E0,-1.328627230E-3,5.638143048E-4,1.577043906E-3,2.137803631E-3
5.238648542E0,7.859226316E-4,6.303936243E-4,4.867464304E-4,1.118924748E-3
5.248605542E0,-4.489187850E-4,1.497921534E-3,-1.011578366E-3,1.862414505E-3
5.258562542E0,1.542859478E-3,2.992330119E-4,-3.343975171E-3,3.694878308E-3
5.268519542E0,2.132446738E-3,8.126376197E-4,1.096874475E-3,2.531964179E-3
5.278476542E0,9.412148502E-4,1.147130504E-3,1.511793584E-3,2.118328026E-3
5.288433542E0,1.983425114E-3,9.888159111E-4,1.540606841E-3,2.699111248E-3
5.298390542E0,-7.300695870E-4,6.511276588E-4,2.189619467E-3,2.398208131E-3
5.308347542E0,-1.018120674E-3,2.451475710E-3,-4.073006101E-3,4.861654200E-3
5.318303542E0,4.036292434E-3,-5.174167454E-4,-2.953680232E-3,5.028280383E-3
5.328260542E0,1.941856463E-4,1.603971235E-3,5.232915282E-4,1.698312637E-3
5.338217542E0,-1.102773705E-3,-7.505286485E-4,1.178428531E-3,1.779914857E-3
5.348174542E0,2.248194302E-3,-8.611576632E-4,4.079621285E-4,2.441803276E-3
5.358131542E0,-6.051163655E-4,3.401944414E-4,-1.766242087E-3,1.897764259E-3
5.368088542E0,1.629244071E-5,3.340244293E-4,3.706663847E-4,4.992307400E-4
5.378045542E0,-1.326207072E-3,1.053078100E-3,1.194382086E-3,2.072280688E-3
5.388002542E0,-1.498282887E-3,1.313537359E-5,-1.984331757E-3,2.486482791E-3
5.397959542E0,-6.681755185E-4,-2.404749393E-3,-1.787789166E-3,3.070092551E-3
5.407915542E0,-1.001673983E-3,3.826841712E-4,-9.280182421E-4,1.418102888E-3
5.417872542E0,-8.498737589E-4,-8.698012680E-4,1.828884706E-3,2.196282978E-3
5.427829542E0,1.487888396E-3,-2.094758675E-3,-4.003699869E-4,2.600408027E-3
5.437786542E0,-1.185392728E-3,2.491736785E-3,-6.694346666E-5,2.760143031E-3
5.447743542E0,1.982786926E-4,-9.153354913E-4,-1.855820417E-3,2.078755138E-3
5.457700542E0,-1.160466112E-3,8.854940534E-4,-2.081656829E-3,2.542454811E-3
5.467657542E0,-4.285234027E-4,-4.791794345E-4,-1.645997167E-3,1.767074393E-3
5.477614542E0,-1.845857827E-3,1.332036220E-3,2.688564360E-3,3.522767368E-3
5.487571542E0,4.322106251E-4,7.030256093E-4,7.449463010E-4,1.111753580E-3
5.497527542E0,1.431694953E-3,-6.328159943E-4,-2.758175135E-3,3.171393478E-3
5.507484542E0,-3.674995387E-4,-3.337627277E-4,-1.817850396E-3,1.884418619E-3
5.517441542E0,-1.681769383E-3,7.954174653E-4,9.864568710E-4,2.105738436E-3
5.527398542E0,1.035911264E-4,-1.351207495E-3,-4.880893975E-4,1.440390251E-3
5.537355542E0,-7.997532375E-4,-4.713423550E-6,1.332256943E-4,8.107876065E-4
5.547312542E0,-6.575459847E-4,6.659915671E-4,6.856601685E-4,1.160190224E-3
5.557269542E0,7.392819971E-4,1.632452011E-3,-2.602953464E-4,1.810853696E-3
5.567226542E0,-7.007163949E-4,1.721435227E-3,-8.807871491E-4,2.056727670E-3
5.577183542E0,1.998397289E-3,4.361933097E-4,-1.371342689E-3,2.462607784E-3
5.587139542E0,9.056925774E-5,1.008714549E-3,-1.494042575E-3,1.804957354E-3
5.597096542E0,1.847456559E-3,5.352050066E-4,-1.946855336E-4,1.933246645E-3
5.607053542E0,-2.474135486E-3,2.927854657E-4,-2.585947514E-4,2.504783619E-3
5.617010542E0,-1.583042089E-3,4.009092227E-4,4.881545901E-4,1.704419363E-3
5.626967542E0,-1.316231326E-3,-4.348391667E-4,3.043783829E-3,3.344573216E-3
5.636924542E0,-7.218137616E-4,7.462408394E-5,1.776916906E-3,1.919379471E-3
5.646881542E0,-2.514920197E-3,2.664644271E-4,2.431944013E-4,2.540663379E-3
5.656838542E0,-2.029692288E-3,8.907094598E-4,-5.161762238E-5,2.217132947E-3
5.666795542E0,1.200826722E-3,1.162465662E-3,-7.314905524E-4,1.824387475E-3
5.676751542E0,1.706028357E-3,1.065260731E-3,-4.468001425E-4,2.060326078E-3
5.686708542E0,3.346282290E-3,-7.735528052E-4,8.263699710E-4,3.532545320E-3
5.696665542E0,1.646038145E-4,8.904561400E-5,7.592570037E-4,7.819812880E-4
5.706622542E0,9.947596118E-4,7.534055039E-4,1.284819096E-3,1.791068577E-3
5.716579542E0,-6.350949407E-4,6.468789652E-4,2.941247076E-4,9.530515846E-4
5.726536625E0,-1.115238876E-3,-7.317140698E-4,5.678255111E-4,1.449685842E-3
5.736493625E0,-5.967213074E-4,-1.861426979E-3,-2.640217543E-3,3.285077684E-3
5.746450625E0,-3.997675376E-4,-6.189234555E-4,-5.739741027E-4,9.339842603E-4
5.756407625E0,4.353999393E-4,-5.270447582E-4,-2.754349262E-4,7.370303134E-4
5.766363625E0,-2.980082529E-3,-2.037277445E-4,1.845652238E-3,3.511243235E-3
5.776320625E0,-2.516743261E-4,2.090623602E-4,3.992896527E-4,5.162162954E-4
5.786277625E0,-7.347065257E-4,6.637545303E-4,3.626253456E-4,1.054448148E-3
5.796234625E0,-1.559753786E-3,-2.651881427E-3,1.857914031E-4,3.082178680E-3
5.806191625E0,-1.674066298E-3,-1.347004436E-3,-3.726705909E-4,2.180780202E-3
5.816148625E0,-6.173241418E-4,-3.531128168E-4,4.220157862E-4,8.269674003E-4
5.826105625E0,6.559698377E-4,7.553175092E-4,-1.855174080E-3,2.107717209E-3
5.836062625E0,1.627491089E-3,3.333482891E-5,4.098434001E-4,1.678633393E-3
5.846019625E0,7.919250056E-4,7.637795061E-4,1.723954454E-3,2.045121832E-3
5.855976625E0,4.233435029E-4,-3.204596229E-3,-8.025877178E-4,3.330586098E-3
5.865932625E0,2.783298260E-4,1.602597535E-3,-9.038448334E-4,1.860839013E-3
5.875889625E0,-1.691876794E-3,-4.123505205E-4,-1.304650679E-3,2.175912092E-3
5.885846625E0,1.095967717E-3,6.296718493E-4,7.793474942E-4,1.484929086E-3
5.895803625E0,4.561699461E-5,-6.284052506E-4,1.981498674E-3,2.079257334E-3
5.905760625E0,-7.855980657E-4,-2.158066258E-3,4.174433649E-3,4.764484293E-3
5.915717625E0,-2.592020435E-3,1.668363810E-3,1.882251352E-3,3.611769357E-3
5.925674625E0,-2.355114091E-3,-2.127091400E-3,-7.045306265E-4,3.250760467E-3
5.935631625E0,-6.536204601E-4,1.382156275E-3,-1.915469766E-3,2.450836612E-3
5.945587625E0,1.465895679E-3,3.179823980E-4,1.052645966E-3,1.832491876E-3
5.955544625E0,-8.662344189E-4,-8.173231035E-4,2.004992217E-3,2.332031928E-3
5.965501625E0,-1.377726323E-3,2.622119151E-3,8.899457753E-4,3.092837232E-3
5.975458625E0,6.726413267E-4,1.491340809E-3,1.824980602E-3,2.450938179E-3
5.985415625E0,2.006962663E-3,1.149020158E-3,1.849029213E-4,2.319986108E-3
5.995372625E0,2.922291169E-3,1.625992358E-3,-3.544321284E-3,4.872971392E-3
6.005329625E0,2.272985876E-3,-6.128447130E-4,2.884864807E-5,2.354331259E-3
6.015286625E0,2.262599301E-3,-3.244847059E-3,-1.589821652E-3,4.263322755E-3
6.025243625E0,2.070416696E-3,-3.632195294E-4,-4.706159234E-4,2.154073599E-3
6.035200625E0,3.113988787E-4,1.641874202E-3,1.651391387E-3,2.349428371E-3
6.045156625E0,1.103112940E-3,-2.651717514E-4,2.269161865E-3,2.536980446E-3
6.055113625E0,3.893857356E-4,2.123331651E-4,-1.511182636E-4,4.685545365E-4
6.065070625E0,-2.912572818E-4,-2.809548751E-4,9.123850614E-4,9.981046770E-4
6.075027625E0,-2.971162321E-4,8.711284027E-4,-1.776607707E-3,2.000869235E-3
6.084984625E0,-1.640441711E-3,9.145420045E-4,-2.149350941E-3,2.854320506E-3
6.094941625E0,6.578662433E-4,4.660654813E-4,1.303970814E-3,1.533083465E-3
6.104898625E0,-4.843898350E-4,5.208346993E-4,2.761030570E-3,2.851173811E-3
6.114855625E0,-3.693412291E-4,-4.165982828E-4,1.924797893E-3,2.003700077E-3
6.124812625E0,-9.381324053E-4,-1.845728606E-3,5.140956491E-4,2.133330924E-3
6.134768625E0,1.068026759E-3,2.580711618E-3,-5.514360964E-4,2.846899257E-3
6.144725625E0,1.029414125E-5,5.480367690E-4,-3.217767924E-3,3.264120200E-3
6.154682625E0,5.165610928E-4,-2.130570821E-3,-7.151067257E-5,2.193463281E-3
6.164639625E0,1.868459280E-3,1.538259909E-3,3.686537966E-3,4.409982517E-3
6.174596625E0,1.828778186E-3,4.972303286E-4,1.837238669E-3,2.639529045E-3
6.184553625E0,4.738502903E-4,-3.153970465E-4,4.081549123E-3,4.121049944E-3
6.194510625E0,-3.818232799E-4,4.353476688E-4,8.247699589E-4,1.007751008E-3
6.204467625E0,-1.822038321E-3,-2.017818391E-3,-2.783089876E-3,3.890630278E-3
6.214424625E0,1.208638889E-3,4.181750119E-4,-3.041682765E-3,3.299623061E-3
6.224380625E0,1.399638131E-5,1.901286654E-3,-1.581758261E-4,1.907906295E-3
6.234337625E0,-4.387143999E-3,1.521253958E-3,-1.496946439E-3,4.878739050E-3
6.244294625E0,3.060465679E-3,-5.417848006E-4,-7.873252034E-4,3.206222375E-3
6.254251625E0,2.152860397E-3,-1.962296665E-6,2.270516008E-3,3.128906308E-3
6.264208625E0,-1.730080927E-3,4.120785743E-4,1.945681870E-3,2.636032379E-3
6.274165625E0,1.612959895E-4,-1.599140465E-3,-3.313198686E-4,1.641048287E-3
6.284122625E0,-2.030315576E-3,1.661665738E-4,7.232520729E-4,2.161685969E-3
6.294079625E0,-1.332567539E-3,-1.560756937E-4,-3.063250333E-4,1.376201618E-3
6.304036625E0,1.364980126E-4,1.128748059E-3,-8.551497012E-4,1.422668233E-3
6.313992625E0,-8.387514390E-4,6.057033315E-4,4.176627845E-3,4.302859590E-3
6.323949625E0,-1.173842000E-3,1.008193940E-4,1.649621874E-3,2.027146250E-3
6.333906625E0,4.586757859E-4,3.839135170E-4,8.035358042E-4,1.001719948E-3
6.343863625E0,5.324243102E-5,-2.389519475E-3,1.392737031E-4,2.394166921E-3
6.353820625E0,-6.050908705E-4,1.360210590E-3,1.519324258E-3,2.127123412E-3
6.363777625E0,4.870441044E-4,-2.392797731E-3,-1.848861575E-5,2.441932589E-3
6.373734625E0,2.373627387E-3,6.048558280E-4,6.518289447E-4,2.534726517E-3
6.383691625E0,-6.096166326E-4,3.192992881E-4,-5.635097623E-4,8.894536111E-4
6.393648625E0,3.230927978E-3,6.119804457E-4,-8.362177759E-4,3.393033426E-3
6.403604625E0,1.648421050E-3,2.474024892E-3,1.385631040E-3,3.279948857E-3
6.413561625E0,2.004603157E-4,-7.153768092E-4,1.649018377E-3,1.808648646E-3
6.423518625E0,-2.900272608E-3,1.515019685E-3,9.291283786E-4,3.401491642E-3
6.433475625E0,3.743503476E-4,-1.406733878E-3,-8.911415935E-4,1.706801607E-3
6.443432625E0,1.716776169E-3,-3.174142912E-4,-2.023039386E-3,2.672220164E-3
6.453389625E0,-6.055001868E-4,1.054646447E-3,1.243859529E-3,1.739567801E-3
6.463346625E0,4.952540621E-6,1.115334220E-3,1.819023862E-3,2.133739151E-3
6.473303625E0,-2.821460133E-3,-4.079937935E-4,-6.137732416E-4,2.916129937E-3
6.483260625E0,-7.301905425E-4,4.417207092E-4,2.247257158E-3,2.403842788E-3
6.493216625E0,-1.285824692E-4,3.248080611E-4,-3.991257399E-4,5.304102980E-4
6.503173625E0,-4.717741394E-4,-1.687230542E-4,2.645343542E-3,2.692374559E-3
6.513130625E0,5.564724561E-4,3.127470613E-3,1.922829077E-3,3.713220393E-3
6.523087625E0,7.473703008E-4,4.695467651E-4,-7.553361356E-4,1.161709606E-3
6.533044625E0,-1.788225374E-3,-4.497636110E-5,2.473443747E-4,1.805810649E-3
6.543001625E0,-3.471891396E-4,1.441684552E-3,-8.405447006E-4,1.704555672E-3
6.552958625E0,1.984926639E-4,-3.575468436E-4,1.109955832E-3,1.182895191E-3
6.562915625E0,7.551136659E-4,-1.600277610E-3,3.556124866E-4,1.804867119E-3
6.572872625E0,-5.213394761E-4,9.992336854E-4,2.426486462E-3,2.675462457E-3
6.582829625E0,1.532678725E-3,-4.098881036E-4,8.905176073E-4,1.819377350E-3
6.592785625E0,-1.722769346E-3,-5.087815225E-6,7.212907076E-5,1.724286145E-3
6.602742625E0,-5.030791508E-4,-3.660554066E-4,-1.081712544E-3,1.247873079E-3
6.612699625E0,-4.567402648E-4,2.562356181E-3,-2.038853243E-3,3.306237048E-3
6.622656625E0,1.586889382E-3,1.581171528E-4,-1.483611763E-3,2.178146645E-3
6.632613625E0,1.149598276E-3,-1.342307776E-3,-9.128972888E-4,1.989157566E-3
6.642570625E0,-1.651401748E-3,-1.014720649E-3,6.491560489E-4,2.044061962E-3
6.652527625E0,-5.347382976E-4,8.420357481E-4,1.301364973E-3,1.639670711E-3
6.662484625E0,-2.415950876E-4,-2.133627422E-3,1.938097179E-3,2.892568899E-3
6.672441625E0,1.293184585E-3,-4.342645407E-4,1.941824332E-3,2.373097933E-3
6.682397625E0,-1.334597357E-3,-7.121544331E-4,1.051791012E-3,1.842438160E-3
6.692354625E0,2.505161101E-4,-1.421088353E-3,-3.805548884E-3,4.069945053E-3
6.702311625E0,-1.081021503E-3,-1.399408095E-3,-1.740194857E-3,2.480973326E-3
6.712268625E0,-9.129759856E-4,1.453369856E-3,-2.869088203E-4,1.740151074E-3
6.722226042E0,-3.972517792E-3,3.475742415E-4,-6.257891655E-4,4.036498178E-3
6.732183042E0,9.985386860E-4,-1.160840504E-3,1.472782344E-3,2.124551250E-3
6.742140042E0,-1.608273829E-3,-1.270190813E-3,2.427157015E-3,3.176636678E-3
6.752097042E0,4.671275383E-4,-3.952793777E-3,2.553923056E-3,4.729197580E-3
6.762054042E0,-5.275472067E-4,1.031096093E-3,9.263288230E-4,1.483088095E-3
6.772010042E0,1.977422042E-3,-1.262418926E-3,7.532238960E-4,2.463989796E-3
6.781967042E0,-1.435290789E-3,2.904254943E-4,-9.514708072E-4,1.746339977E-3
6.791924042E0,4.291837104E-3,-6.459420547E-4,-5.517303944E-4,4.375101518E-3
6.801881042E0,-3.049046732E-3,1.674245112E-3,-3.022365272E-4,3.491579813E-3
6.811838042E0,9.020188591E-4,-1.095442101E-3,2.099934965E-3,2.534434509E-3
6.821795042E0,-4.080985673E-5,2.349265851E-3,2.565262839E-3,3.478690690E-3
6.831752042E0,2.263889648E-3,-1.003920101E-3,2.807006240E-5,2.476659007E-3
6.841709042E0,-1.486497698E-3,-4.390701652E-4,1.641307026E-4,1.558652272E-3
6.851666042E0,-2.052509226E-4,7.186066359E-4,-1.355467364E-3,1.547842115E-3
6.861622042E0,2.868202515E-3,2.121310681E-3,-4.151260480E-3,5.473527953E-3
6.871579042E0,-3.582170466E-4,-3.381185234E-4,1.956699416E-3,2.017750280E-3
6.881536042E0,1.940934802E-3,-1.674083993E-3,-1.228790730E-3,2.842483383E-3
6.891493042E0,2.330496209E-4,7.169023156E-4,2.504162490E-3,2.615165546E-3
6.901450042E0,-1.956057036E-3,1.582515426E-3,2.032758668E-3,3.234597657E-3
6.911407042E0,9.369348409E-4,-1.692106947E-3,3.058874980E-3,3.619086757E-3
6.921364042E0,3.312855260E-4,-2.890937030E-4,6.057545543E-4,7.485077481E-4
6.931321042E0,2.173022367E-4,1.089092344E-3,2.773568034E-3,2.987644898E-3
6.941278042E0,2.084305044E-3,-1.604625024E-3,-3.047754988E-3,4.025911009E-3
6.951234042E0,1.249404042E-3,-4.677213728E-4,-2.409130335E-3,2.753848709E-3
6.961191042E0,1.848283922E-3,1.216125675E-3,1.610187814E-3,2.736388114E-3
6.971148042E0,-1.224471373E-3,-5.463538691E-4,3.715511411E-4,1.391360105E-3
6.981105042E0,-3.605454462E-3,1.908754930E-4,2.800196409E-3,4.569117558E-3
6.991062042E0,-2.642525360E-4,8.393554017E-4,-6.376765668E-5,8.822772847E-4
7.001019042E0,9.866103064E-4,-1.518046483E-3,-9.755194187E-4,2.056575590E-3
7.010976042E0,1.045199810E-3,-1.124697737E-3,-2.897568047E-4,1.562480927E-3
7.020933042E0,-2.428662265E-4,-1.245750114E-3,-4.428625107E-4,1.344248695E-3
7.030890042E0,-1.123307389E-3,-3.389436752E-4,-1.408791170E-3,1.833410719E-3
7.040846042E0,2.080966718E-3,-7.823295891E-5,-1.752804965E-3,2.721923607E-3
7.050803042E0,-1.257572207E-3,1.027246006E-3,7.873177528E-4,1.804602853E-3
7.060760042E0,2.052023774E-3,-1.562107354E-4,-2.763886005E-4,2.076437820E-3
7.070717042E0,3.399050795E-3,-3.607412800E-4,-1.189053059E-3,3.619050670E-3
7.080674042E0,1.615007059E-3,-1.011515968E-3,2.160668373E-7,1.905626511E-3
7.090631042E0,2.495448105E-3,-1.800610684E-3,-1.617921516E-3,3.476655018E-3
7.100588042E0,1.324984594E-3,-4.809368402E-4,-2.925470471E-4,1.439606958E-3
7.110545042E0,-5.480166292E-4,-9.222226217E-4,1.861417666E-3,2.148416281E-3
7.120502042E0,1.122326357E-3,-8.153077215E-5,6.863679737E-4,1.318091315E-3
7.130459042E0,4.123275867E-4,1.626088284E-3,8.022151887E-4,1.859496264E-3
7.140415042E0,-6.525355857E-4,-7.740566507E-4,-1.627225429E-4,1.025399929E-3
7.150372042E0,-1.502882922E-3,6.033303216E-4,5.475431681E-4,1.709522762E-3
7.160329042E0,1.377879409E-3,-9.601749480E-5,1.272279769E-4,1.387068125E-3
7.170286042E0,-2.087159548E-3,6.786966696E-4,-1.055749133E-3,2.435461020E-3
7.180243042E0,-1.518452191E-3,3.014868125E-4,-3.223195672E-4,1.581291010E-3
7.190200042E0,-2.143020974E-4,-1.482831314E-3,-3.058090806E-4,1.529128278E-3
7.200157042E0,1.876664232E-3,7.605431601E-4,2.407003194E-4,2.039174142E-3
7.210114042E0,1.181790140E-4,-3.473616205E-3,1.728076488E-3,3.881523434E-3
7.220071042E0,2.837197157E-3,-6.413664669E-4,-6.081108004E-4,2.971672491E-3
7.230027042E0,6.595302839E-4,1.472651027E-3,-6.464589387E-4,1.738272246E-3
7.239984042E0,-1.037884969E-3,1.280743629E-3,2.943987027E-3,3.374102705E-3
7.249941042E0,-8.221687749E-4,-1.162972301E-3,5.029328167E-4,1.510432880E-3
7.259898042E0,-2.386092674E-4,1.620519906E-4,-7.391944528E-4,7.934756891E-4
7.269855042E0,2.428903244E-4,-2.461960539E-3,-1.032315195E-4,2.476065862E-3
7.279812042E0,-1.973325154E-3,7.865400985E-4,6.358213723E-4,2.217414329E-3
7.289769042E0,-4.132452887E-4,-1.213493757E-3,7.295645773E-4,1.474992623E-3
7.299726042E0,1.253999304E-3,-1.051302068E-3,1.110278070E-3,1.977490249E-3
7.309683042E0,-4.397711018E-4,6.118416786E-4,-6.820280105E-4,1.016322325E-3
7.319639042E0,-2.864317503E-4,-1.575605944E-3,2.438295633E-4,1.619885827E-3
7.329596042E0,-8.781861980E-4,1.250008121E-3,1.706970856E-3,2.290738048E-3
7.339553042E0,8.420401718E-4,9.128917009E-4,-1.019733027E-3,1.606940682E-3
7.349510042E0,-3.718285589E-4,1.068420708E-3,-8.816085756E-5,1.134703320E-3
7.359467042E0,-2.064312575E-4,-2.107642591E-3,1.438040286E-3,2.559830272E-3
7.369424042E0,-8.338718908E-4,-1.169943251E-3,9.051412344E-4,1.698054827E-3
7.379381042E0,-4.098778591E-4,1.703789458E-4,-1.734074205E-3,1.789983853E-3
7.389338042E0,1.964862924E-3,1.394634135E-3,6.672982126E-4,2.500195509E-3
7.399295042E0,-8.909205208E-4,1.579267904E-3,1.627167687E-3,2.436288400E-3
7.409251042E0,-1.323684235E-3,1.055956818E-3,-2.222431824E-3,2.793991404E-3
7.419208042E0,-1.650272869E-3,-1.687631011E-4,3.322716802E-4,1.691829186E-3
7.429165042E0,-2.230575774E-3,6.612762809E-5,-8.070282638E-4,2.373001425E-3
7.439122042E0,2.249103272E-3,2.279808745E-3,1.345699653E-3,3.473744521E-3
7.449079042E0,-3.682514653E-4,-1.462731510E-3,-1.467930153E-3,2.104759261E-3
7.459036042E0,5.852702307E-4,3.772210330E-4,-2.585370094E-4,7.427505206E-4
7.468993042E0,-6.587279495E-5,-1.572213136E-3,6.615854800E-4,1.707011633E-3
7.478950042E0,3.319793381E-3,9.304005653E-5,-6.162840873E-4,3.377793750E-3
7.488907042E0,-1.614777721E-3,-2.555670217E-4,9.429957718E-4,1.887342739E-3
7.498864042E0,5.036575021E-4,1.555665396E-3,-1.837162301E-3,2.459457465E-3
7.508820042E0,-1.175731886E-3,-3.903061152E-4,-6.336793303E-4,1.391486193E-3
7.518777042E0,3.602779470E-4,-4.881909117E-4,-1.968137920E-3,2.059538161E-3
7.528734042E0,-5.225599743E-4,-7.965853438E-4,-1.631779596E-3,1.889529515E-3
7.538691042E0,9.934643749E-4,-1.238534227E-3,-5.960408598E-4,1.695937264E-3
7.548648042E0,1.709588338E-3,-9.523890913E-5,3.267452121E-4,1.743136589E-3
7.558605042E0,-8.251344552E-4,5.239881575E-4,-5.632191896E-4,1.128107404E-3
7.568562042E0,-1.912769512E-3,-6.033284590E-4,-4.798620939E-4,2.062270609E-3
7.578519042E0,5.252654664E-4,2.664998174E-4,-1.037469134E-3,1.193008033E-3
7.588476042E0,-2.470524516E-3,1.575975679E-3,8.336678147E-4,3.046669124E-3
7.598432042E0,2.061998704E-3,2.204440534E-5,1.398367807E-3,2.491537103E-3
7.608389042E0,6.467947969E-4,-2.349234186E-3,4.169922322E-4,2.472069435E-3
7.618346042E0,-5.843486870E-4,1.392703503E-3,1.206642017E-3,1.933150639E-3
7.628303042E0,-1.549755689E-5,-3.908146173E-4,-8.410625160E-4,9.275572193E-4
7.638260042E0,-2.165607177E-3,3.705946729E-4,1.833587885E-4,2.204725675E-3
7.648217042E0,-1.325497869E-4,-2.044892870E-3,-1.529976726E-4,2.054887973E-3
7.658174042E0,3.585881786E-4,-5.025072023E-4,-7.357690483E-4,9.604452419E-4
7.668131042E0,-3.180752974E-3,1.261836849E-3,-1.026054844E-3,3.572423583E-3
7.678088042E0,-4.302588059E-4,6.933324039E-5,1.127347350E-3,1.208652881E-3
7.688044042E0,-4.078789614E-3,-6.148321554E-4,-5.845334381E-4,4.166080008E-3
7.698001042E0,-1.197480597E-4,-8.429586887E-4,4.907138646E-5,8.528346555E-4
7.707958042E0,-1.706992043E-3,7.163221017E-4,-1.697164029E-3,2.511434835E-3
7.717915042E0,1.570187509E-3,2.670427784E-4,7.356069982E-4,1.754399702E-3
7.727871292E0,-7.185331779E-4,-1.911423169E-3,4.304507747E-3,4.764306393E-3
7.737828292E0,2.365837572E-4,-1.473038457E-3,9.012967348E-4,1.743028966E-3
7.747785292E0,-5.128297489E-4,3.323182464E-4,-1.725912094E-3,1.830902052E-3
7.757742292E0,1.830630936E-4,1.143933274E-3,-3.634341061E-3,3.814515746E-3
7.767699292E0,-4.022995709E-4,3.883950412E-4,-7.762368768E-4,9.566814212E-4
7.777656292E0,8.405966219E-5,-2.008875832E-3,-5.625858903E-4,2.087857998E-3
7.787612292E0,8.920626715E-4,-4.639290273E-5,2.440866083E-4,9.260164057E-4
7.797569292E0,-6.521160249E-4,1.046953723E-3,1.290332526E-3,1.785028133E-3
7.807526292E0,-5.916624796E-4,-1.271814108E-5,2.383831888E-4,6.380068852E-4
7.817483292E0,-4.383887863E-4,1.880787313E-4,3.490373492E-4,5.910883253E-4
7.827440292E0,-2.390219830E-3,-1.775469631E-3,7.181502879E-4,3.062871705E-3
7.837397292E0,-1.816144679E-3,1.296377741E-3,1.135746017E-3,2.503776299E-3
7.847354292E0,4.241063725E-4,-6.938027218E-4,-2.703733742E-3,2.823367596E-3
7.857311292E0,-2.388725989E-4,1.207069494E-3,9.617861360E-4,1.561764852E-3
7.867268292E0,6.029526703E-4,-8.534183726E-4,2.768473700E-3,2.959108222E-3
7.877224292E0,-4.330823431E-4,6.688507274E-4,2.368377522E-3,2.498826464E-3
7.887181292E0,1.654835884E-3,1.012930647E-3,4.490371794E-4,1.991518186E-3
7.897138292E0,9.051144589E-4,7.351543754E-4,-9.522251785E-4,1.505462364E-3
7.907095292E0,1.057979884E-3,-1.812425442E-3,-7.703304291E-4,2.235534922E-3
7.917052292E0,-8.912503254E-4,-1.844585873E-3,-6.418675184E-5,2.049620483E-3
7.927009292E0,-4.081530496E-4,5.469331518E-4,2.519613132E-3,2.610397502E-3
7.936966292E0,-6.923206383E-4,3.397399560E-4,1.530025154E-3,1.713390813E-3
7.946923292E0,-1.809782931E-3,-1.388918608E-3,2.052538097E-3,3.068765517E-3
7.956880292E0,9.689584840E-5,-1.968910918E-3,-1.966245472E-4,1.981075521E-3
7.966836292E0,-8.522546850E-4,-1.380352303E-3,-6.597489119E-4,1.751279291E-3
7.976793292E0,9.745762218E-4,-1.239478588E-3,-5.701053888E-4,1.676641326E-3
7.986750292E0,1.916802605E-3,-1.158785075E-3,-7.008668035E-4,2.346940424E-3
7.996707292E0,-3.707660362E-3,1.363956369E-3,2.018408850E-3,4.436338200E-3
8.006664292E0,2.276994754E-3,6.526261568E-4,-4.825647920E-4,2.417332163E-3
8.016621292E0,3.815544769E-4,6.672916934E-4,-1.913461834E-3,2.062085889E-3
8.026578292E0,-8.653374389E-4,-1.299452968E-3,1.467954367E-3,2.142959851E-3
8.036535292E0,-1.902603544E-3,-2.371103503E-3,-1.105297357E-3,3.234766501E-3
8.046492292E0,9.546172805E-6,-8.179480210E-4,-1.728478819E-3,1.912268057E-3
8.056449292E0,-3.726467257E-4,5.238223821E-5,-7.937476039E-4,8.784331163E-4
8.066405292E0,1.855620183E-3,-2.978239208E-4,9.133387357E-4,2.089548515E-3
8.076362292E0,-5.533496151E-4,1.758650877E-3,1.327561215E-3,2.271886327E-3
8.086319292E0,-1.815687981E-3,1.674126834E-4,8.236914873E-4,2.000804218E-3
8.096276292E0,9.808933828E-4,-3.393869847E-4,-1.466305926E-3,1.796493369E-3
8.106233292E0,-1.136658248E-4,-1.729290932E-3,-1.506784931E-3,2.296468566E-3
8.116190292E0,3.259354271E-3,-6.126500666E-4,-4.975665361E-4,3.353550779E-3
8.126147292E0,-1.760970568E-3,-3.953743726E-5,-9.673479944E-4,2.009562812E-3
8.136104292E0,2.080505015E-3,-7.374258712E-4,-6.392598152E-5,2.208253737E-3
8.146061292E0,-1.780013321E-3,-1.553418115E-3,1.232959330E-4,2.365746637E-3
8.156017292E0,-1.011511078E-3,-3.355462104E-4,7.635317743E-4,1.311002170E-3
8.165974292E0,6.132834824E-4,2.237333916E-3,5.014762282E-4,2.373448565E-3
8.175931292E0,3.289544024E-3,-1.245480962E-3,4.634298384E-4,3.547828903E-3
8.185888292E0,-9.608609835E-4,9.119464085E-4,-1.353912055E-3,1.894195855E-3
8.195845292E0,5.705076037E-4,-8.543459699E-4,2.849847078E-6,1.027323748E-3
8.205802292E0,-1.278525102E-3,2.039710991E-3,1.902217045E-3,3.068139021E-3
8.215759292E0,2.498424146E-3,7.036933675E-4,2.576150000E-4,2.608385144E-3
8.225716292E0,-7.775304839E-4,-1.502735540E-3,6.054230034E-4,1.797026647E-3
8.235673292E0,1.218270976E-3,-1.111293212E-3,2.588592470E-4,1.669180902E-3
8.245630292E0,9.026865009E-4,4.253508523E-4,-8.130632341E-4,1.287182228E-3
8.255586292E0,1.339209964E-3,-1.941037364E-3,-1.091750339E-3,2.598658920E-3
8.265543292E0,-2.661923179E-3,1.106417738E-3,1.298170537E-3,3.161525259E-3
8.275500292E0,-1.302301069E-3,4.071742296E-5,1.968406141E-4,1.317722357E-3
8.285457292E0,1.074570231E-3,-2.623498440E-4,3.550332040E-4,1.161713045E-3
8.295414292E0,-8.755414747E-4,-1.810677350E-5,-1.946566626E-3,2.134484097E-3
8.305371292E0,3.179756459E-5,-1.737709157E-3,-8.866284043E-4,1.951090497E-3
8.315328292E0,-1.545051578E-3,1.144316047E-4,-1.474954188E-4,1.556288492E-3
8.325285292E0,-7.066882681E-4,-1.197974198E-3,-8.002370596E-4,1.604658792E-3
8.335242292E0,1.574715599E-3,7.295878604E-4,1.889813691E-3,2.565818281E-3
8.345198292E0,4.825532669E-4,-1.210525632E-3,1.140400767E-3,1.731688156E-3
8.355155292E0,8.227500366E-4,-1.189228147E-3,-1.861548051E-3,2.357231927E-3
8.365112292E0,-2.736733295E-4,-9.825667366E-4,5.691181868E-4,1.168002566E-3
8.375069292E0,1.767803915E-4,-6.369855255E-4,7.616542280E-5,6.654344732E-4
8.385026292E0,-2.836802742E-4,3.899289295E-4,-1.644236967E-3,1.713486000E-3
8.394983292E0,1.864437480E-3,-4.404969513E-5,9.311586618E-4,2.084496089E-3
8.404940292E0,1.082000788E-3,8.864589036E-4,3.724265844E-4,1.447493231E-3
8.414897292E0,-1.904125325E-3,2.938378602E-4,1.033656299E-3,2.186430719E-3
8.424854292E0,-6.013067905E-4,-2.851337194E-4,2.169229090E-3,2.269014310E-3
8.434810292E0,2.366080880E-4,2.169062383E-3,1.186806709E-3,2.483812629E-3
8.444767292E0,3.476619022E-4,-1.058422029E-3,-8.446536958E-4,1.398057887E-3
8.454724292E0,2.886200091E-4,-5.668792874E-4,-3.202091902E-4,7.121710199E-4
8.464681292E0,1.726993243E-3,5.523581058E-5,-1.612642780E-3,2.363508704E-3
8.474638292E0,-7.783530746E-4,1.353287138E-3,-2.510324121E-4,1.581213730E-3
8.484595292E0,3.299479140E-3,1.074987464E-3,-7.927194238E-4,3.559573672E-3
8.494552292E0,4.663823638E-4,2.090728842E-3,9.297002107E-4,2.335166392E-3
8.504509292E0,1.999031520E-3,-2.496033907E-3,-4.918947816E-4,3.235471025E-3
8.514466292E0,-6.802506978E-4,1.000858843E-3,5.193557590E-4,1.316886419E-3
8.524423292E0,3.176358296E-4,8.956640959E-4,2.234164625E-3,2.427879376E-3
8.534379292E0,1.066527795E-3,-4.743505269E-4,-3.083525226E-3,3.297061992E-3
8.544336292E0,-7.558732759E-4,-1.769712195E-3,-2.876596525E-3,3.460929533E-3
8.554293292E0,-8.176664123E-4,9.033642709E-4,1.904956996E-3,2.261306376E-3
8.564250292E0,-2.995333634E-3,-1.274302602E-3,-3.075972199E-4,3.269630981E-3
8.574207292E0,-3.097171430E-4,-4.526758566E-4,2.596152946E-3,2.653460054E-3
8.584164292E0,7.118714275E-4,1.565467566E-3,2.470718697E-3,3.010299073E-3
8.594121292E0,7.640706608E-4,-2.148701809E-3,3.218855709E-4,2.303113927E-3
8.604078292E0,1.928937272E-3,-1.277315430E-3,-1.018233597E-4,2.315750786E-3
8.614035292E0,5.367611302E-4,-6.433632225E-4,-1.536810771E-3,1.750375986E-3
8.623991292E0,1.541039208E-3,-1.755232923E-3,-1.151718199E-3,2.604246391E-3
8.633948292E0,-9.761321126E-4,-1.186709851E-4,-9.604953229E-4,1.374579197E-3
8.643905292E0,1.551207853E-3,-1.063827425E-3,2.651283517E-3,3.250735130E-3
8.653862292E0,3.184104804E-3,-1.535061747E-4,-9.459182620E-4,3.325184041E-3
8.663819292E0,1.403781353E-4,8.679926395E-6,-6.242077798E-4,6.398567920E-4
8.673776292E0,-3.393393708E-4,7.393080741E-4,1.063521951E-3,1.338957273E-3
8.683733292E0,3.791814670E-4,1.443181187E-3,-1.221736893E-3,1.928520562E-3
8.693690292E0,-7.695243694E-4,-1.665622927E-3,-3.478582948E-4,1.867477680E-3
8.703647292E0,-1.951168990E-3,-2.456315793E-3,-2.445653081E-6,3.136965681E-3
8.713604292E0,1.796862576E-3,2.589912154E-3,5.174204707E-4,3.194383200E-3
8.723560542E0,-6.721541286E-4,-1.065010205E-3,-7.507782429E-4,1.466187532E-3
8.733517542E0,8.768199477E-4,1.171247102E-3,-8.109398186E-5,1.465335876E-3
8.743474542E0,1.316774171E-3,2.334515564E-3,1.576190814E-3,3.109378494E-3
8.753431542E0,1.837125747E-4,1.637727022E-3,-9.698923677E-4,1.912221565E-3
8.763388542E0,-1.849344699E-3,-1.217979938E-3,-1.024488360E-3,2.439903142E-3
8.773345542E0,-4.716722760E-4,-1.157306135E-3,-7.962267846E-4,1.481826345E-3
8.783302542E0,1.012241002E-3,1.368702389E-3,3.102906048E-3,3.539209519E-3
8.793259542E0,-3.064004704E-5,-2.862792462E-5,1.435803249E-3,1.436415449E-3
8.803216542E0,6.234323373E-4,8.395621553E-4,1.098381355E-3,1.516566548E-3
8.813172542E0,-7.959300419E-4,3.197398037E-4,4.575308412E-4,9.721484683E-4
8.823129542E0,-3.993854625E-4,8.268058300E-4,-1.591505483E-3,1.837391175E-3
8.833086542E0,6.099665770E-4,1.171595417E-3,2.502441406E-3,2.829648041E-3
8.843043542E0,1.806791173E-3,5.998145789E-4,8.275806904E-4,2.075852035E-3
8.853000542E0,4.726997577E-4,-7.648784667E-4,1.268722117E-3,1.555036958E-3
8.862957542E0,3.776248777E-4,-1.531504095E-4,-5.105361342E-4,6.532248775E-4
8.872914542E0,2.174329944E-3,3.388868645E-4,-3.147220239E-3,3.840253930E-3
8.882871542E0,-2.970364410E-3,3.735078499E-4,7.271468639E-4,3.080797852E-3
8.892828542E0,1.074279309E-3,1.953970641E-4,3.381688148E-4,1.143072261E-3
8.902785542E0,-9.073789697E-4,-2.517565154E-3,-1.811001450E-3,3.231284133E-3
8.912741542E0,1.349803526E-3,-1.474862918E-3,1.275733113E-3,2.371641871E-3
8.922698542E0,9.987988742E-4,6.327629089E-4,1.243773848E-3,1.716089005E-3
8.932655542E0,1.239664853E-4,-1.734141260E-4,-2.040397376E-4,2.950802655E-4
8.942612542E0,8.542052237E-4,-6.189607084E-4,9.716488421E-5,1.059348827E-3
8.952569542E0,1.765893539E-3,-7.779179141E-4,1.070983708E-4,1.932616448E-3
8.962526542E0,-5.659703165E-4,1.303875819E-3,1.884225756E-3,2.360237541E-3
8.972483542E0,-9.710558224E-4,-3.549938090E-3,5.572158843E-4,3.722297596E-3
8.982440542E0,9.461538284E-4,-4.934277385E-4,4.940982908E-4,1.175929896E-3
8.992397542E0,-2.167776693E-3,-7.650246844E-4,2.810183913E-3,3.630654511E-3
9.002353542E0,1.175555633E-3,-4.337280989E-4,1.142779365E-3,1.695876112E-3
9.012310542E0,4.354899283E-5,-9.352508932E-4,2.069815993E-3,2.271723794E-3
9.022267542E0,1.390575897E-3,-1.122738235E-3,7.654000074E-4,1.944242691E-3
9.032224542E0,2.472987399E-5,-6.157644093E-4,-3.545753658E-3,3.598909054E-3
9.042181542E0,-1.960922964E-3,4.961052909E-4,-8.535645902E-4,2.195429762E-3
9.052138542E0,-1.419909648E-3,1.547886059E-4,-6.345137954E-4,1.562917361E-3
9.062095542E0,-1.891289256E-3,-3.573372960E-4,-7.266607136E-4,2.057352858E-3
9.072052542E0,-4.296506289E-3,1.566694118E-3,2.791751176E-3,5.358019353E-3
9.082009542E0,-7.632905617E-4,1.038323157E-3,8.559003472E-4,1.547027105E-3
9.091966542E0,-2.868198324E-3,-1.495294273E-4,-1.222882420E-4,2.874695652E-3
9.101922542E0,3.092222381E-3,1.034512185E-3,-1.701276749E-3,3.677825077E-3
9.111879542E0,-4.861477064E-4,1.172160730E-3,-1.410078257E-4,1.276786425E-3
9.121836542E0,1.133054262E-3,1.006512903E-3,-5.886852741E-4,1.625863013E-3
9.131793542E0,3.785028821E-4,1.369429752E-3,1.993101090E-3,2.447663015E-3
9.141750542E0,1.490106340E-3,5.315989256E-4,1.235164702E-3,2.007148765E-3
9.151707542E0,-1.233712537E-4,-7.354607806E-4,5.437862128E-4,9.229444573E-4
9.161664542E0,1.911480213E-4,-9.591663256E-4,-1.676758751E-3,1.941148504E-3
9.171621542E0,3.986469237E-4,-1.114325598E-3,5.711633712E-4,1.314103689E-3
9.181578542E0,6.670935545E-4,3.014104441E-4,1.304112375E-4,7.435517179E-4
9.191534542E0,-1.810643589E-4,-2.188608050E-6,-8.179042488E-4,8.377090499E-4
9.201491542E0,1.231209841E-3,6.865048781E-4,1.542722806E-3,2.089775174E-3
9.211448542E0,1.018384239E-3,-4.443507642E-4,-1.077825204E-3,1.547986185E-3
9.221405542E0,-2.511446364E-4,1.439569518E-3,-1.029888168E-3,1.787764991E-3
9.231362542E0,-6.884973263E-4,9.221211076E-5,2.649901435E-3,2.739435938E-3
9.241319542E0,6.952811964E-4,2.614491619E-3,1.504477113E-3,3.095550638E-3
9.251276542E0,8.947558817E-4,-1.920149662E-3,-7.073581219E-5,2.119567495E-3
9.261233542E0,-2.807836980E-3,6.564585492E-4,-2.286601812E-4,2.892606404E-3
9.271190542E0,-2.076614182E-3,1.178611070E-3,-1.551100984E-3,2.847343460E-3
9.281147542E0,5.684408825E-5,9.919237345E-4,-3.823842853E-3,3.950812336E-3
9.291103542E0,-1.474399469E-3,1.126360148E-4,1.999866217E-3,2.487168179E-3
9.301060542E0,-1.667478704E-3,-2.696465701E-3,1.656584442E-3,3.577105606E-3
9.311017542E0,3.173971549E-3,7.607741281E-4,-2.241339535E-4,3.271560590E-3
9.320974542E0,-6.687033456E-4,-2.762600780E-4,-9.338669479E-4,1.181351460E-3
9.330931542E0,-1.332866726E-3,-1.215743832E-3,-2.604629844E-4,1.822747306E-3
9.340888542E0,2.743510995E-4,-1.792850904E-3,-2.122543752E-3,2.791912404E-3
9.350845542E0,-1.275483519E-3,2.927547321E-4,1.244466752E-3,1.805896186E-3
9.360802542E0,-2.186018275E-3,-3.980696201E-4,-2.943072468E-4,2.241372811E-3
9.370759542E0,-4.238115624E-3,-1.353801228E-3,1.812206581E-3,4.804008170E-3
9.380715542E0,-7.560320664E-4,-4.661697894E-4,1.799689606E-3,2.006933341E-3
9.390672542E0,9.672340238E-4,-1.857372932E-3,1.385126263E-3,2.510766941E-3
9.400629542E0,1.115603372E-4,4.694303498E-4,-6.682984531E-5,4.871106551E-4
9.410586542E0,3.651292063E-4,1.009390689E-3,4.163198173E-4,1.151308426E-3
9.420543542E0,-1.251143171E-3,-1.767221838E-3,1.005677506E-3,2.387429477E-3
9.430500542E0,-6.893665995E-4,-4.926007241E-4,-1.727459952E-3,1.924058125E-3
9.440457542E0,-1.900305972E-3,-5.583800375E-4,-1.194560900E-3,2.312990877E-3
9.450414542E0,3.020293079E-3,-2.043896355E-3,3.406461328E-4,3.662747928E-3
9.460371542E0,-3.656498156E-4,9.140763432E-4,2.941755578E-3,3.102122053E-3
9.470328542E0,-2.155401278E-3,1.272186637E-4,7.879175246E-5,2.160589595E-3
9.480284542E0,1.827056985E-5,-7.790550590E-4,-7.141195238E-5,7.825345140E-4
9.490241542E0,2.108778106E-3,6.412062794E-4,-2.607349306E-3,3.414141327E-3
9.500198542E0,-7.229610346E-4,2.441834658E-5,-2.860350534E-3,2.950402361E-3
9.510155542E0,5.410674494E-4,-1.304438338E-4,-2.434870228E-3,2.497671437E-3
9.520112542E0,-9.801300475E-4,1.695419662E-3,2.244835719E-3,2.978991465E-3
9.530069542E0,3.361249110E-4,-1.956988126E-4,1.479160041E-3,1.529441861E-3
9.540026542E0,-1.656185836E-3,1.558259130E-3,3.202490509E-3,3.927730705E-3
9.549983542E0,1.033760840E-3,-8.518891409E-4,2.549333498E-3,2.879839903E-3
9.559940542E0,-3.420279827E-4,-2.596024424E-4,1.565827057E-3,1.623635101E-3
9.569896542E0,-3.220861079E-3,9.619034827E-4,-2.541402355E-3,4.214015939E-3
9.579853542E0,-4.825990181E-4,1.123290509E-3,4.319474101E-5,1.223335263E-3
9.589810542E0,1.699725166E-3,-1.999490894E-3,-8.244309574E-4,2.750766417E-3
9.599767542E0,-1.823104220E-3,1.909593120E-4,1.452572644E-3,2.338833414E-3
9.609724542E0,3.160153283E-4,5.799196661E-4,1.897586510E-3,2.009230467E-3
9.619681542E0,-1.139135915E-3,1.477937214E-3,1.989731565E-3,2.727812446E-3
9.629638542E0,-9.060618468E-4,3.027174622E-3,2.248361707E-4,3.167851885E-3
9.639595542E0,1.279594493E-3,-9.198961779E-4,2.981474623E-3,3.372352587E-3
9.649552542E0,9.480094886E-4,1.310830936E-3,-4.296929576E-3,4.591361836E-3
9.659509542E0,4.225678276E-4,-2.240760252E-3,-1.216450706E-3,2.584438507E-3
9.669465542E0,1.125964569E-3,-2.533197403E-4,2.758288756E-3,2.990004007E-3
9.679422542E0,-7.062903605E-4,5.269860849E-4,1.622449607E-3,1.846321514E-3
9.689379542E0,-3.950439859E-4,-7.777679712E-4,2.844939008E-3,2.975678196E-3
9.699336542E0,7.242826978E-4,-3.109155223E-4,1.298973337E-3,1.519403047E-3
9.709293542E0,3.264353145E-4,1.582580619E-3,-3.000702709E-4,1.643521705E-3
9.719250542E0,-2.270506229E-5,-3.077303991E-4,-1.229699701E-4,3.321673252E-4
9.729207875E0,-2.033550758E-3,8.513489738E-4,-2.415969968E-3,3.270632148E-3
9.739164875E0,2.021910856E-3,3.384239972E-4,-1.464243978E-4,2.055260182E-3
9.749121875E0,1.612515422E-3,7.014814764E-5,3.281831741E-4,1.647067377E-3
9.759077875E0,1.971775899E-3,4.682913423E-4,-6.502624601E-4,2.128388649E-3
9.769034875E0,-3.310260363E-4,-1.039807685E-3,8.535720408E-4,1.385410945E-3
9.778991875E0,-7.805677596E-4,-1.170834526E-3,1.710044220E-3,2.214585909E-3
9.788948875E0,8.058144012E-4,8.186325431E-7,-5.987882614E-4,1.003934710E-3
9.798905875E0,1.691049081E-3,-1.215979457E-3,2.361126244E-4,2.096187541E-3
9.808862875E0,8.888301672E-4,2.559646964E-4,1.329289749E-3,1.619428365E-3
9.818819875E0,-2.626009751E-3,3.148205578E-4,1.207049936E-3,2.907233865E-3
9.828776875E0,1.311252243E-3,-9.219665080E-4,1.212907955E-3,2.010112035E-3
9.838733875E0,2.033235272E-3,-2.716230229E-4,-1.466367394E-4,2.056532779E-3
9.848690875E0,-6.307247095E-4,-7.428769022E-4,6.805658340E-4,1.188633503E-3
9.858646875E0,2.067856258E-3,-1.290689223E-3,7.822997868E-4,2.560058813E-3
9.868603875E0,-1.600119169E-3,-1.043602824E-3,-7.694866508E-4,2.059514000E-3
9.878560875E0,-9.375246009E-4,1.087192446E-3,6.332006305E-4,1.569038824E-3
9.888517875E0,-2.308272524E-3,3.792157397E-3,2.811929211E-3,5.255047636E-3
9.898474875E0,-3.258152865E-4,-6.454680115E-4,8.382610977E-4,1.107007779E-3
9.908431875E0,7.985229604E-5,6.384532899E-4,1.335270703E-3,1.482210121E-3
9.918388875E0,-6.402665749E-4,-1.112841070E-3,-1.773703843E-3,2.189607695E-3
9.928345875E0,-9.652115405E-4,-5.496060476E-4,-1.729015261E-3,2.055041094E-3
9.938302875E0,-4.727931228E-4,-1.195956022E-3,9.312164038E-4,1.587768287E-3
9.948259875E0,1.900426811E-3,-1.891824417E-3,-6.361547858E-4,2.755959832E-3
9.958215875E0,5.059955874E-4,5.252612755E-4,-1.806881279E-3,1.948525314E-3
9.968172875E0,-1.458281884E-3,1.452807337E-4,-2.343952656E-5,1.465688219E-3
9.978129875E0,-9.181927890E-4,1.214007847E-3,1.673527062E-3,2.262208186E-3
9.988086875E0,-1.517567784E-3,2.045454457E-4,1.414248720E-3,2.084454427E-3
9.998043875E0,2.917838283E-4,-7.363492623E-4,-2.071296796E-3,2.217570395E-3
1.000800088E1,3.165262751E-4,-1.406154595E-3,-4.151146859E-4,1.499926609E-3
1.001795787E1,3.500821767E-4,4.165126011E-4,-9.020790458E-5,5.515231123E-4
1.002791488E1,-1.394084422E-3,1.453726552E-3,5.696024746E-4,2.093140999E-3
1.003787187E1,6.951654796E-4,-1.023579389E-4,-2.197422087E-3,2.307031864E-3
1.004782888E1,1.396704232E-3,1.284936443E-4,-1.187928021E-3,1.838060476E-3
1.005778487E1,-6.768329768E-4,-5.908263847E-4,1.182593405E-5,8.985090695E-4
1.006774188E1,3.028726205E-4,1.375175081E-3,1.293579116E-3,1.912115388E-3
1.007769888E1,1.094364095E-3,-2.243192866E-4,9.923763573E-4,1.494243203E-3
1.008765587E1,-2.020289889E-3,-3.308346495E-4,1.061946154E-3,2.306242059E-3
1.009761288E1,-4.498239141E-4,5.687810481E-4,-7.354207337E-4,1.032810287E-3
1.010756987E1,-2.440549899E-3,1.583350822E-3,1.599229872E-4,2.913564655E-3
1.011752688E1,9.025163017E-4,-9.607672691E-4,4.342291504E-4,1.387863241E-3
1.012748387E1,1.160045387E-3,-7.190909237E-4,1.760987565E-3,2.227975373E-3
1.013744088E1,-5.521009443E-4,2.303263173E-4,5.931910127E-4,8.424614191E-4
1.014739687E1,-2.924642991E-3,-7.996819913E-4,1.289954409E-3,3.294997768E-3
1.015735388E1,-3.435072722E-4,2.181781456E-4,-3.964995034E-3,3.985822948E-3
1.016731088E1,-2.203629352E-3,8.706860244E-4,-2.207491547E-3,3.238378515E-3
1.017726788E1,-3.716407809E-4,-1.916312613E-3,-2.143811435E-4,1.963754102E-3
1.018722488E1,-1.770000439E-3,6.169266999E-5,-5.849041045E-4,1.865159605E-3
1.019718187E1,1.466766698E-4,1.160246320E-3,2.188511193E-3,2.481384051E-3
1.020713888E1,9.000258287E-4,-1.246908680E-3,1.553304493E-3,2.185768194E-3
1.021709587E1,-1.296016853E-3,8.101165295E-4,-1.782037318E-3,2.347680872E-3
1.022705288E1,1.707521849E-3,4.052836448E-4,-5.013719201E-4,1.825173828E-3
1.023700987E1,6.555732107E-4,-2.927314490E-4,-1.487676054E-4,7.332119313E-4
1.024696588E1,-1.921096584E-3,1.457927749E-3,1.277085394E-4,2.415051733E-3
1.025692287E1,-1.569292974E-3,-1.279002987E-3,-8.235741407E-4,2.185589953E-3
1.026687988E1,-1.257029362E-3,-1.472205855E-3,1.461165026E-3,2.425389892E-3
1.027683688E1,2.657660516E-4,-8.106762543E-4,-3.111679107E-4,9.081040976E-4
1.028679388E1,2.474522917E-4,7.999222726E-5,2.803597599E-4,3.824042208E-4
1.029675088E1,1.400601119E-3,4.978422076E-4,-3.998111933E-4,1.539278840E-3
1.030670787E1,2.530301688E-3,5.030240864E-4,-1.244816929E-3,2.864442189E-3
1.031666488E1,-2.223415067E-4,-1.122036949E-3,9.877104312E-4,1.511282421E-3
1.032662187E1,-9.214053862E-4,7.239636034E-4,2.073341981E-3,2.381566323E-3
1.033657788E1,-7.778611034E-4,-3.299008124E-3,1.235244796E-3,3.607541019E-3
1.034653487E1,-8.469943423E-4,-1.784042455E-3,1.675540581E-3,2.589911801E-3
1.035649188E1,-5.548456684E-4,-3.075860441E-4,-5.593840033E-4,8.457974659E-4
1.036644888E1,2.576715779E-4,-4.067458212E-5,-2.274289727E-4,3.460823620E-4
1.037640588E1,-1.577816438E-4,4.517436028E-4,-3.360863775E-4,5.847404406E-4
1.038636288E1,-1.791228889E-3,-1.720960252E-3,-1.749580726E-3,3.038295219E-3
1.039631987E1,-8.250341052E-4,3.733495250E-4,3.569796681E-4,9.733990066E-4
1.040627688E1,4.396286095E-4,-1.204427332E-3,9.475294501E-4,1.594280581E-3
1.041623387E1,-3.851524089E-4,-1.179393381E-3,9.962636977E-4,1.591179588E-3
1.042619088E1,9.872629307E-4,1.243232749E-3,-1.606829464E-3,2.258808689E-3
1.043614687E1,-1.906794263E-3,1.526679844E-4,-9.580831975E-4,2.139414707E-3
1.044610388E1,-1.313588349E-3,-1.848145388E-3,-1.718513668E-3,2.845073804E-3
1.045606087E1,-5.284885410E-4,1.839799806E-3,-6.279498339E-4,2.014568058E-3
1.046601788E1,5.573638482E-4,-6.886180490E-4,-2.332612872E-3,2.495181775E-3
1.047597488E1,-1.007243292E-3,5.313763395E-4,1.881573349E-3,2.199367667E-3
1.048593188E1,-9.886157932E-4,-6.582569331E-4,-4.685036838E-4,1.276776832E-3
1.049588888E1,-7.382786134E-4,1.144169830E-3,-4.767607898E-4,1.442733780E-3
1.050584587E1,1.571303350E-3,8.347723633E-4,4.429407418E-4,1.833585454E-3
1.051580288E1,-9.243448731E-4,-8.882926777E-4,1.267455518E-3,1.802753676E-3
1.052575987E1,-6.820608396E-4,-8.852584288E-4,-6.357338279E-4,1.285708744E-3
1.053571588E1,-7.529009599E-4,-8.069612086E-4,5.184803158E-4,1.219372005E-3
1.054567287E1,-5.357167684E-4,1.457743347E-4,1.688778400E-3,1.777699384E-3
1.055562988E1,-1.885673031E-3,4.072971642E-4,-8.420236409E-4,2.104912723E-3
1.056558688E1,5.942352582E-4,1.863932237E-3,2.508033067E-4,1.972374514E-3
1.057554388E1,1.290918095E-3,-6.317161024E-4,-1.698629931E-3,2.225056944E-3
1.058550088E1,-3.180608619E-3,-7.755924016E-4,3.157891333E-3,4.548636327E-3
1.059545787E1,-1.431710785E-3,2.289526165E-4,4.340093583E-4,1.513465955E-3
1.060541488E1,2.208196325E-3,1.038883813E-3,2.164931968E-3,3.262260108E-3
1.061537187E1,1.704592607E-3,-1.395777799E-3,-4.324484617E-4,2.245182240E-3
1.062532888E1,-2.209670376E-3,5.441904068E-5,-2.577034757E-3,3.395101286E-3
1.063528487E1,-1.160118380E-3,5.628354847E-5,1.306653023E-3,1.748251874E-3
1.064524188E1,1.333707012E-3,-5.381209776E-4,-2.783995122E-3,3.133524760E-3
1.065519887E1,-2.174741589E-3,6.957221776E-4,-1.594627276E-3,2.785025399E-3
1.066515588E1,-7.352276007E-4,-9.008692577E-4,2.259436995E-3,2.541098301E-3
1.067511288E1,-1.814340358E-3,-1.927344128E-4,8.674021810E-4,2.020238607E-3
1.068506988E1,-1.989863580E-3,-2.172168344E-3,-2.361128107E-3,3.775287846E-3
1.069502688E1,2.907156944E-3,1.228688285E-3,-3.124656156E-3,4.441251230E-3
1.070498387E1,-1.700824592E-3,1.720491797E-3,-1.026935875E-3,2.628211104E-3
1.071494088E1,-2.456733491E-4,-1.742683351E-3,-1.382380724E-4,1.765335781E-3
1.072489737E1,-9.444077732E-4,-1.973707229E-3,2.461580560E-3,3.293448818E-3
1.073485338E1,4.327128408E-4,-2.269400284E-4,8.021648973E-4,9.392607208E-4
1.074481037E1,-9.299112717E-4,-1.021051779E-3,9.189527482E-4,1.658841723E-3
1.075476738E1,-1.224190579E-3,2.257033251E-3,-3.590974957E-4,2.592642027E-3
1.076472437E1,-9.284244152E-4,-1.991531812E-3,-1.707244664E-3,2.782598641E-3
1.077468138E1,-5.907356972E-4,1.423706301E-3,1.479145139E-4,1.548478930E-3
1.078463838E1,-2.993188798E-3,2.133948728E-4,2.691026777E-3,4.030675089E-3
1.079459538E1,-1.909015933E-3,-2.099826932E-3,2.498215064E-3,3.780832380E-3
1.080455238E1,-4.333444871E-3,-6.373589858E-4,2.308569849E-3,4.951208506E-3
1.081450937E1,1.214719028E-3,5.741128698E-4,7.996223867E-4,1.563503715E-3
1.082446538E1,-1.714725513E-4,2.799996175E-3,1.898575574E-4,2.811659173E-3
1.083442237E1,-2.531299368E-3,-2.863407135E-4,-2.022696659E-3,3.252809442E-3
1.084437938E1,1.271500951E-3,-1.267889515E-3,-7.911771536E-4,1.962197691E-3
1.085433637E1,1.891923603E-4,-7.291315123E-4,1.976545900E-4,7.787771494E-4
1.086429338E1,2.705854131E-4,-2.145585604E-3,2.440912649E-3,3.261105428E-3
1.087425037E1,2.732145134E-3,4.486460239E-5,1.372186467E-3,3.057699391E-3
1.088420738E1,-5.412838655E-4,2.841699868E-3,1.276694238E-3,3.161992179E-3
1.089416438E1,1.093098195E-3,2.911901101E-4,-1.349981874E-3,1.761279764E-3
1.090412137E1,-1.528015244E-3,2.059135586E-4,-2.613643184E-3,3.034528246E-3
1.091407838E1,1.186012174E-3,-1.179463230E-3,-7.831491530E-5,1.674482491E-3
1.092403437E1,-3.001958830E-4,-3.658765927E-4,9.148120880E-4,1.029982721E-3
1.093399138E1,-1.433104626E-3,1.206453890E-3,1.910567284E-3,2.675740496E-3
1.094394837E1,-3.272189992E-3,6.137415767E-4,1.529818401E-3,3.663911899E-3
1.095390538E1,-9.139608592E-4,2.566119656E-4,1.604653895E-3,1.864427064E-3
1.096386237E1,4.606239963E-5,1.650622115E-3,-7.816534489E-4,1.826925621E-3
1.097381938E1,1.399480854E-3,-4.607811570E-5,-2.390203997E-3,2.770152524E-3
1.098377638E1,2.390039153E-3,8.714050055E-4,-1.906024292E-3,3.178767440E-3
1.099373338E1,5.125105381E-4,-9.462023154E-4,-1.138234511E-3,1.566379161E-3
1.100369038E1,5.616936833E-4,1.406698488E-3,3.186447546E-3,3.528136674E-3
1.101364737E1,3.015530296E-3,1.431198791E-3,2.527048811E-3,4.186613027E-3
1.102360338E1,1.705635223E-3,-1.853922382E-3,-6.082132459E-4,2.591552250E-3
1.103356037E1,-7.657783572E-4,2.621253021E-3,1.923330128E-4,2.737585776E-3
1.104351738E1,3.571175039E-4,-3.094784915E-6,-1.647075638E-3,1.685348821E-3
1.105347437E1,1.286827028E-3,9.251292795E-5,9.825285524E-4,1.621679622E-3
1.106343138E1,-1.973286271E-4,5.508428439E-4,8.085425943E-4,9.980518787E-4
1.107338837E1,9.209327400E-4,-5.517061800E-4,9.195972234E-4,1.413561415E-3
1.108334538E1,-3.812583163E-4,1.017398201E-3,-8.249599487E-4,1.364190573E-3
1.109330238E1,5.923934514E-4,2.468554303E-3,5.143433809E-4,2.590219964E-3
1.110325938E1,9.511501994E-4,-8.925450966E-4,-7.608383894E-4,1.510032618E-3
1.111321638E1,-1.286171493E-3,8.563417941E-5,-7.922630757E-4,1.513027132E-3
1.112317237E1,-5.361761432E-4,-7.155258209E-5,-8.496474475E-4,1.007226595E-3
1.113312938E1,-9.777282830E-4,1.127668656E-3,1.165300608E-3,1.893545537E-3
1.114308637E1,1.005505794E-3,1.296512783E-3,1.640725881E-3,2.320338060E-3
1.115304338E1,1.839075238E-3,-1.519513316E-3,-3.992561251E-4,2.418785625E-3
1.116300037E1,1.873342902E-3,-9.170435369E-4,1.025248319E-3,2.324116304E-3
1.117295738E1,-1.853484777E-3,-2.515194938E-4,-9.678620845E-4,2.106044845E-3
1.118291438E1,4.806788638E-7,-1.702085137E-4,-2.282820642E-3,2.289157324E-3
1.119287138E1,1.256492687E-4,5.477797240E-4,5.140304565E-4,7.616283050E-4
1.120282838E1,-1.158760861E-4,-1.124162227E-4,5.418751389E-4,5.654143088E-4
1.121278438E1,6.439237623E-4,1.246044412E-4,3.005918115E-4,7.214703844E-4
1.122274138E1,1.481404761E-3,1.621032134E-4,1.932047307E-3,2.440009081E-3
1.123269837E1,9.335925570E-4,4.372075200E-4,-1.822356135E-4,1.046878836E-3
1.124265538E1,-1.468547620E-3,1.788530499E-4,-1.741837710E-3,2.285305042E-3
1.125261237E1,-1.090112375E-3,1.659570262E-3,-9.165257215E-4,2.186901425E-3
1.126256938E1,1.159638166E-3,2.954853699E-4,-1.568187028E-3,1.972633477E-3
1.127252637E1,-1.208710950E-3,-1.279507764E-3,1.856371760E-3,2.558170907E-3