"Time (s)","Gyroscope x (rad/s)","Gyroscope y (rad/s)","Gyroscope z (rad/s)","Absolute (rad/s)"
4.815833345E-4,2.814086154E-3,-4.514837638E-3,-1.839088351E-1,1.839857670E-1
1.043758333E-2,5.394908134E-3,-1.447889954E-3,-1.784243733E-1,1.785117878E-1
2.039358333E-2,3.077378497E-4,-4.039304331E-4,-1.733076423E-1,1.733083863E-1
3.034958333E-2,4.377373261E-4,-2.396275289E-3,-1.720450521E-1,1.720622959E-1
4.030558333E-2,2.423123922E-3,-4.809293896E-4,-1.761026531E-1,1.761199798E-1
5.026158333E-2,2.975705778E-3,-1.532131806E-3,-1.829540879E-1,1.829847002E-1
6.021758333E-2,1.368221710E-3,-6.221290678E-4,-1.916583627E-1,1.916642562E-1
7.017258334E-2,2.638990059E-3,-3.295850009E-3,-1.939410567E-1,1.939870109E-1
8.012858333E-2,2.256560139E-3,-1.524048857E-3,-1.869319081E-1,1.869517399E-1
9.008458333E-2,2.666712971E-3,-2.396009862E-3,-1.783896238E-1,1.784256430E-1
1.000405833E-1,-4.238854162E-4,-1.975762658E-3,-1.718475670E-1,1.718594472E-1
1.099965833E-1,-1.254674746E-3,-1.203428023E-3,-1.726791710E-1,1.726879224E-1
1.199525833E-1,3.186678980E-3,-3.156590275E-3,-1.800651848E-1,1.801210420E-1
1.299085833E-1,4.944017157E-3,-1.886077225E-3,-1.861682683E-1,1.862434555E-1
1.398645833E-1,2.284318442E-3,-3.201412037E-3,-1.877563149E-1,1.877974998E-1
1.498205833E-1,4.521610681E-3,-2.421271987E-3,-1.832922399E-1,1.833639897E-1
1.597765833E-1,1.658179681E-3,5.273800343E-4,-1.758415103E-1,1.758501192E-1
1.697325833E-1,3.539176658E-3,-1.384551637E-3,-1.765166223E-1,1.765575280E-1
1.796885833E-1,4.980479367E-3,-1.038607210E-3,-1.780082583E-1,1.780809477E-1
1.896445833E-1,1.473055454E-3,-2.196583897E-3,-1.824120730E-1,1.824312453E-1
1.996005833E-1,5.175115541E-3,-2.086595632E-3,-1.851724386E-1,1.852564917E-1
2.095565833E-1,2.422450576E-3,-2.425134182E-3,-1.828817129E-1,1.829138334E-1
2.195125833E-1,1.955598127E-3,-1.335102133E-3,-1.799796671E-1,1.799952428E-1
2.294685833E-1,1.270667301E-3,-2.363199368E-3,-1.772381216E-1,1.772584302E-1
2.394235833E-1,2.927419730E-3,-1.578898169E-3,-1.763589978E-1,1.763903592E-1
2.493795833E-1,8.721456979E-4,-2.393006347E-3,-1.794922799E-1,1.795103497E-1
2.593355833E-1,7.818645099E-4,-2.576498315E-3,-1.832390875E-1,1.832588684E-1
2.692915833E-1,3.763250075E-3,-3.720872104E-3,-1.827044785E-1,1.827811079E-1
2.792475833E-1,9.648005362E-4,-3.479589708E-3,-1.814762354E-1,1.815121550E-1
2.892035833E-1,2.611871809E-3,-2.265298739E-3,-1.814908981E-1,1.815238264E-1
2.991595833E-1,-1.518690959E-3,-2.250384539E-3,-1.796309501E-1,1.796514650E-1
3.091155833E-1,-3.847328480E-5,-1.875234768E-3,-1.829724014E-1,1.829820146E-1
3.190715833E-1,3.050793428E-3,-2.147942781E-3,-1.869844496E-1,1.870216709E-1
3.290275833E-1,2.767778933E-3,-1.207271591E-3,-1.860892326E-1,1.861137302E-1
3.389835833E-1,-4.352048272E-4,-2.143905498E-3,-1.858381033E-1,1.858509789E-1
3.489395833E-1,4.634837620E-3,-3.352453932E-4,-1.860957146E-1,1.861537244E-1
3.588955833E-1,-1.114481129E-4,-2.373894677E-3,-1.815281361E-1,1.815436917E-1
3.688515833E-1,1.493883319E-4,2.937763929E-5,-1.773215383E-1,1.773216037E-1
3.788075833E-1,2.162471879E-3,-2.507874742E-4,-1.748147011E-1,1.748282554E-1
3.887635833E-1,2.982427250E-4,-1.383665949E-3,-1.740816683E-1,1.740874226E-1
3.987195833E-1,8.870676393E-4,4.267506301E-4,-1.797733754E-1,1.797760704E-1
4.086745833E-1,4.856233718E-4,-1.670069061E-3,-1.848103106E-1,1.848184944E-1
4.186305833E-1,2.327998169E-3,-1.803493127E-3,-1.886652410E-1,1.886882225E-1
4.285865833E-1,3.616534406E-3,-7.882658392E-4,-1.870234162E-1,1.870600408E-1
4.385425833E-1,1.869500848E-3,-2.368318848E-3,-1.807753742E-1,1.808005528E-1
4.484985833E-1,2.289889380E-3,-7.903669029E-4,-1.724163741E-1,1.724333910E-1
4.584545833E-1,2.756208647E-3,-3.400797956E-3,-1.682471931E-1,1.683041298E-1
4.684105833E-1,1.234214054E-3,-1.010382548E-3,-1.767127216E-1,1.767199200E-1
4.783665833E-1,3.810023423E-3,-3.319875337E-3,-1.912232190E-1,1.912899824E-1
4.883225833E-1,4.938702565E-3,9.252633899E-4,-1.990539730E-1,1.991173801E-1
4.982785833E-1,3.085941542E-3,-1.611131243E-3,-1.987043023E-1,1.987347945E-1
5.082345833E-1,2.369689289E-3,-5.976613611E-4,-1.873567700E-1,1.873727085E-1
5.181905833E-1,3.983032424E-3,-4.197455943E-3,-1.788421124E-1,1.789356990E-1
5.281465833E-1,4.636911908E-4,-3.274666145E-3,-1.714405864E-1,1.714724851E-1
5.381025833E-1,4.827280529E-3,1.240190119E-3,-1.682005823E-1,1.682744086E-1
5.480585833E-1,1.157927560E-3,-3.443158232E-3,-1.768833399E-1,1.769206378E-1
5.580145833E-1,4.021358211E-3,-2.311315387E-3,-1.868648678E-1,1.869224233E-1
5.679705833E-1,3.460973036E-3,-1.856637187E-3,-1.942162812E-1,1.942559891E-1
5.779255833E-1,4.839424975E-3,-6.931023672E-4,-1.925078630E-1,1.925699295E-1
5.878815833E-1,1.456961734E-3,-3.144149669E-3,-1.877914816E-1,1.878234516E-1
5.978375833E-1,2.081473125E-3,5.336757749E-4,-1.767604053E-1,1.767734658E-1
6.077935833E-1,-1.268690103E-3,2.900697291E-4,-1.689227074E-1,1.689277206E-1
6.177495833E-1,1.376627712E-3,9.379442781E-5,-1.730969399E-1,1.731024394E-1
6.277055833E-1,3.302335273E-3,-2.956914715E-3,-1.782221198E-1,1.782772357E-1
6.376615833E-1,3.317781724E-3,-2.308967523E-3,-1.850294322E-1,1.850735794E-1
6.476175833E-1,1.963368617E-3,-1.421000808E-3,-1.837081909E-1,1.837241777E-1
6.575735833E-1,2.383082639E-3,-2.172545530E-3,-1.835968792E-1,1.836251974E-1
6.675295833E-1,2.045932226E-3,-2.035638317E-4,-1.799720675E-1,1.799838114E-1
6.774855833E-1,1.033930923E-3,-3.447560593E-3,-1.823492050E-1,1.823847232E-1
6.874415833E-1,3.962804563E-3,-3.868123516E-3,-1.817627847E-1,1.818471229E-1
6.973975833E-1,2.376892138E-3,-2.443598583E-3,-1.803212166E-1,1.803534362E-1
7.073535833E-1,3.242585342E-3,-1.720049419E-3,-1.843487918E-1,1.843853302E-1
7.173095833E-1,1.879579388E-3,-8.055204526E-4,-1.838353425E-1,1.838467156E-1
7.272655833E-1,3.212006763E-3,-3.118997440E-3,-1.853364706E-1,1.853905404E-1
7.372205833E-1,4.978481680E-3,-1.769040711E-3,-1.865530014E-1,1.866278037E-1
7.471765833E-1,3.889398417E-3,-3.289686516E-3,-1.819669008E-1,1.820381895E-1
7.571325833E-1,2.652093768E-3,-1.368482597E-3,-1.804014891E-1,1.804261722E-1
7.670885833E-1,2.801028080E-3,-3.038492985E-3,-1.776218265E-1,1.776698946E-1
7.770445833E-1,1.937098568E-3,-7.013035938E-4,-1.786205173E-1,1.786323973E-1
7.870005833E-1,-2.556371037E-4,-2.151448280E-3,-1.830025017E-1,1.830153265E-1
7.969565833E-1,1.910045510E-3,-2.507247031E-3,-1.840291321E-1,1.840561220E-1
8.069125833E-1,1.542962622E-3,1.771428622E-3,-1.864815801E-1,1.864963764E-1
8.168685833E-1,1.417527790E-3,-3.670475446E-3,-1.840999126E-1,1.841419551E-1
8.268245833E-1,1.934234053E-3,-1.220562495E-3,-1.793558747E-1,1.793704569E-1
8.367805833E-1,-1.976263011E-4,-2.511662431E-3,-1.755454242E-1,1.755635027E-1
8.467365833E-1,1.961687114E-3,-3.477051854E-3,-1.783908159E-1,1.784354821E-1
8.566925833E-1,-5.664516939E-4,-5.510374904E-4,-1.825927645E-1,1.825944746E-1
8.666485833E-1,3.867489519E-3,-2.811242826E-3,-1.888308972E-1,1.888914193E-1
8.766045833E-1,2.359607723E-3,-3.348669037E-3,-1.877283454E-1,1.877730359E-1
8.865605833E-1,-7.663900033E-5,-3.213172778E-3,-1.804248244E-1,1.804534499E-1
8.965165833E-1,-9.972937405E-4,-5.657244474E-4,-1.796248108E-1,1.796284702E-1
9.064725833E-1,1.300751115E-3,-1.344429329E-3,-1.783467680E-1,1.783565785E-1
9.164275833E-1,3.293594578E-3,6.143264472E-4,-1.806408167E-1,1.806718844E-1
9.263835000E-1,9.687460260E-4,-3.147923388E-3,-1.800929606E-1,1.801230756E-1
9.363395000E-1,4.480656236E-3,-4.232432693E-4,-1.794498116E-1,1.795062403E-1
9.462955000E-1,-2.326891990E-4,-3.043578006E-3,-1.760252267E-1,1.760516911E-1
9.562515000E-1,-5.079538096E-5,-3.434530459E-3,-1.768057942E-1,1.768391570E-1
9.662075000E-1,-2.573383972E-5,-1.709860750E-3,-1.809304208E-1,1.809385018E-1
9.761635000E-1,7.851987029E-4,-2.588704228E-3,-1.871813983E-1,1.872009449E-1
9.861195000E-1,3.867379855E-3,-3.305496648E-3,-1.903810948E-1,1.904490593E-1
9.960755000E-1,3.306251718E-3,-2.773396671E-3,-1.878028810E-1,1.878524558E-1
1.006031500E0,-1.995685743E-4,4.421276972E-4,-1.833865047E-1,1.833871462E-1
1.015987500E0,3.944843076E-3,-1.551780850E-3,-1.785190552E-1,1.785693784E-1
1.025943500E0,1.747752074E-3,-2.809168771E-3,-1.729194373E-1,1.729510852E-1
1.035899500E0,1.544286613E-3,-1.496230252E-3,-1.744829863E-1,1.744962350E-1
1.045855500E0,2.404355211E-3,-2.154116519E-3,-1.797198653E-1,1.797488557E-1
1.055811500E0,2.839515684E-3,-2.616708167E-3,-1.812567711E-1,1.812978960E-1
1.065767500E0,3.253250383E-3,-2.377987839E-3,-1.851783097E-1,1.852221500E-1
1.075723500E0,3.703590948E-3,-1.614726149E-3,-1.862646043E-1,1.863084184E-1
1.085678500E0,4.295748658E-3,-2.124352381E-3,-1.897315979E-1,1.897921115E-1
1.095634500E0,2.465358470E-3,-1.788261347E-3,-1.864449978E-1,1.864698718E-1
1.105590500E0,1.302856137E-3,-3.138777800E-3,-1.794989109E-1,1.795310791E-1
1.115546500E0,1.889284234E-3,-1.985895447E-3,-1.745947003E-1,1.746162151E-1
1.125502500E0,2.688236069E-3,4.620207474E-4,-1.749162078E-1,1.749374740E-1
1.135458500E0,2.043484710E-3,-4.548450001E-3,-1.831224710E-1,1.831903480E-1
1.145414500E0,1.176938415E-3,-4.015257582E-4,-1.893429309E-1,1.893470145E-1
1.155370500E0,2.991349902E-3,-1.623384655E-3,-1.923986524E-1,1.924287531E-1
1.165326500E0,9.681532392E-4,-3.222514875E-3,-1.891989559E-1,1.892288742E-1
1.175282500E0,3.359405324E-3,-1.532739028E-3,-1.834923327E-1,1.835294828E-1
1.185238500E0,1.111834892E-3,-2.805965021E-3,-1.762773693E-1,1.763032062E-1
1.195194500E0,1.264966675E-3,-1.483173110E-3,-1.719374806E-1,1.719485306E-1
1.205150500E0,1.660664217E-3,-3.110731952E-3,-1.750057489E-1,1.750412711E-1
1.215106500E0,5.988618941E-4,-3.586106934E-3,-1.789935678E-1,1.790304894E-1
1.225062500E0,7.992961910E-4,-2.813253552E-3,-1.820878536E-1,1.821113387E-1
1.235018500E0,3.444282338E-4,-2.943215892E-3,-1.852948219E-1,1.853185154E-1
1.244973500E0,1.741794869E-3,1.696754247E-3,-1.830064654E-1,1.830226194E-1
1.254929500E0,1.523149316E-3,-2.811755985E-4,-1.828490645E-1,1.828556245E-1
1.264885500E0,2.831056481E-3,-2.219695598E-4,-1.795227230E-1,1.795451815E-1
1.274841500E0,3.794854507E-3,-2.920550294E-3,-1.769610345E-1,1.770258125E-1
1.284797500E0,1.843916252E-4,-1.566722058E-3,-1.767103821E-1,1.767174235E-1
1.294753500E0,3.622907680E-4,-3.225605004E-3,-1.785897762E-1,1.786192709E-1
1.304709500E0,2.231604885E-3,-8.453475311E-4,-1.765197515E-1,1.765358812E-1
1.314665500E0,4.765070044E-3,-2.075728029E-3,-1.841939241E-1,1.842672413E-1
1.324621500E0,2.380799502E-3,-5.513336509E-5,-1.856935322E-1,1.857088020E-1
1.334577500E0,4.996822681E-3,-3.082614392E-3,-1.872040629E-1,1.872961076E-1
1.344533500E0,2.741279779E-3,7.672393695E-4,-1.796093732E-1,1.796319298E-1
1.354489500E0,-9.019311983E-5,-1.404035836E-3,-1.771009415E-1,1.771065299E-1
1.364445500E0,2.551408485E-3,-1.337336376E-3,-1.759516597E-1,1.759752389E-1
1.374401500E0,3.456616774E-3,-2.288618125E-3,-1.770677865E-1,1.771163092E-1
1.384357500E0,2.894247882E-3,-3.633452579E-4,-1.827337295E-1,1.827570097E-1
1.394313500E0,2.485985402E-3,-1.660570502E-3,-1.836711615E-1,1.836954904E-1
1.404269500E0,2.754967660E-3,-5.767866969E-5,-1.835954785E-1,1.836161565E-1
1.414224500E0,-2.576002153E-4,-1.259297132E-3,-1.782912612E-1,1.782958945E-1
1.424180500E0,8.025105344E-4,-1.952249557E-3,-1.811299175E-1,1.811422157E-1
1.434136500E0,-1.199920313E-3,-2.881692722E-3,-1.824228913E-1,1.824495964E-1
1.444092500E0,2.987856045E-3,-1.716549508E-3,-1.881910861E-1,1.882226307E-1
1.454048500E0,1.774223056E-4,-5.876356736E-4,-1.886158735E-1,1.886168723E-1
1.464004500E0,3.819617443E-3,1.836228184E-3,-1.838781536E-1,1.839269871E-1
1.473960500E0,3.104825038E-3,-1.458101906E-3,-1.799031198E-1,1.799358178E-1
1.483916500E0,2.593149897E-3,-5.313325673E-4,-1.798517853E-1,1.798712635E-1
1.493872500E0,1.634411979E-3,-4.045665264E-4,-1.762485355E-1,1.762565779E-1
1.503828500E0,3.817203920E-3,-1.003974117E-3,-1.799507886E-1,1.799940703E-1
1.513784500E0,5.883874837E-4,-2.172036096E-3,-1.819425672E-1,1.819564830E-1
1.523740500E0,3.046667203E-3,-1.172975637E-3,-1.817455292E-1,1.817748482E-1
1.533696500E0,4.870399833E-3,-1.446216367E-3,-1.799822450E-1,1.800539387E-1
1.543652500E0,6.710970192E-4,-2.058017999E-4,-1.732375622E-1,1.732389843E-1
1.553608500E0,1.913727960E-3,-3.200517967E-4,-1.730434150E-1,1.730542928E-1
1.563563500E0,1.644499833E-3,-1.435669139E-3,-1.774661243E-1,1.774795504E-1
1.573519500E0,1.694567269E-3,-3.161130473E-3,-1.835498512E-1,1.835848909E-1
1.583475500E0,2.289122669E-3,-1.984973438E-3,-1.885853261E-1,1.886096642E-1
1.593431500E0,4.134959541E-3,-6.094509736E-4,-1.860561222E-1,1.861030626E-1
1.603387500E0,1.698359614E-3,-1.361966133E-3,-1.811001599E-1,1.811132444E-1
1.613343500E0,3.024081234E-3,4.998501390E-4,-1.800375581E-1,1.800636477E-1
1.623299500E0,3.498559352E-3,-3.249399364E-3,-1.795015931E-1,1.795650869E-1
1.633255500E0,2.813860308E-3,-1.204507425E-4,-1.822342575E-1,1.822560202E-1
1.643211500E0,-2.685162472E-4,-1.929277554E-3,-1.822487414E-1,1.822591505E-1
1.653167500E0,1.442831010E-3,-2.176685259E-3,-1.836466193E-1,1.836651859E-1
1.663123500E0,7.288360503E-4,-2.503487282E-3,-1.825710237E-1,1.825896419E-1
1.673079500E0,4.510683357E-4,-1.436358318E-3,-1.822354645E-1,1.822416832E-1
1.683035500E0,3.990592668E-4,-2.478954382E-3,-1.803479046E-1,1.803653823E-1
1.692991500E0,2.911751624E-3,-2.040864900E-3,-1.823578030E-1,1.823924662E-1
1.702947500E0,-1.145290094E-3,-1.837219112E-3,-1.797209382E-1,1.797339776E-1
1.712903500E0,2.096575918E-3,-1.616176218E-3,-1.806636900E-1,1.806830831E-1
1.722859500E0,2.399418736E-3,-5.584759638E-4,-1.773299873E-1,1.773470989E-1
1.732814500E0,2.798893023E-3,4.218332469E-4,-1.800482869E-1,1.800705344E-1
1.742770500E0,5.493953358E-5,-1.679833047E-3,-1.828897744E-1,1.828974971E-1
1.752726500E0,2.925560810E-3,-2.595694736E-3,-1.872632205E-1,1.873040584E-1
1.762682500E0,3.574717091E-3,-1.990841702E-3,-1.924774647E-1,1.925209507E-1
1.772638500E0,3.195216646E-3,-2.066208981E-3,-1.884153485E-1,1.884537667E-1
1.782594500E0,8.741108468E-4,-3.275474533E-3,-1.805341542E-1,1.805659814E-1
1.792550500E0,-2.953117713E-3,-2.139052376E-4,-1.756238192E-1,1.756487761E-1
1.802506500E0,1.557070529E-3,-1.481809653E-3,-1.704344749E-1,1.704480287E-1
1.812462500E0,-1.390967518E-4,-4.956405610E-4,-1.754241735E-1,1.754249288E-1
1.822418500E0,1.299950294E-3,-3.156601451E-3,-1.889746785E-1,1.890055108E-1
1.832374500E0,8.647897630E-4,-1.268953085E-3,-1.938479990E-1,1.938540812E-1
1.842330500E0,3.659743350E-3,-1.473011449E-3,-1.966311485E-1,1.966707198E-1
1.852286500E0,2.059449907E-3,-1.106561162E-3,-1.866645366E-1,1.866791768E-1
1.862242500E0,-3.222996602E-4,-1.797266304E-4,-1.767864823E-1,1.767868675E-1
1.872198500E0,2.364499960E-5,-2.744616941E-3,-1.715147644E-1,1.715367246E-1
1.882154500E0,1.526649925E-3,-2.101952210E-3,-1.740678102E-1,1.740871948E-1
1.892109500E0,3.247653367E-4,-3.570686094E-3,-1.796508729E-1,1.796866479E-1
1.902065500E0,2.231729217E-3,-2.847628668E-3,-1.879827231E-1,1.880175359E-1
1.912021500E0,5.507417489E-3,-1.218040474E-3,-1.906642467E-1,1.907476611E-1
1.921977500E0,2.023160225E-3,-1.290056854E-3,-1.881743670E-1,1.881896644E-1
1.931933583E0,6.086078472E-3,-2.083945088E-3,-1.832211316E-1,1.833340291E-1
1.941889583E0,2.318924991E-3,-1.642554998E-3,-1.785574853E-1,1.785800968E-1
1.951845583E0,-2.406390850E-4,-1.663060859E-3,-1.778482795E-1,1.778562177E-1
1.961801583E0,-3.145696828E-4,-1.846163534E-3,-1.754200011E-1,1.754299977E-1
1.971757583E0,2.547529526E-3,-1.369724050E-3,-1.800509691E-1,1.800742001E-1
1.981713583E0,2.960331505E-3,-3.694124520E-3,-1.858153045E-1,1.858755969E-1
1.991669583E0,1.114760875E-3,1.193024218E-5,-1.889980435E-1,1.890013315E-1
2.001625583E0,2.195546636E-3,-3.431895748E-4,-1.891682595E-1,1.891813115E-1
2.011581583E0,5.020894110E-3,-2.554145642E-3,-1.858984381E-1,1.859837690E-1
2.021537583E0,3.263095394E-3,-6.547830999E-4,-1.801086813E-1,1.801394283E-1
2.031493583E0,1.766931266E-3,-9.341482073E-4,-1.741485298E-1,1.741599986E-1
2.041449583E0,-1.380410278E-3,-1.956799068E-3,-1.782458723E-1,1.782619577E-1
2.051404583E0,-1.146052033E-3,-1.525367610E-3,-1.837080121E-1,1.837179194E-1
2.061360583E0,3.661592025E-3,1.045707613E-4,-1.906724721E-1,1.907076554E-1
2.071316583E0,2.815239364E-3,-1.637136564E-3,-1.865341961E-1,1.865626225E-1
2.081272583E0,2.652592491E-3,-1.567614265E-3,-1.809478551E-1,1.809740864E-1
2.091228583E0,-3.320120741E-4,-1.455761492E-3,-1.757701337E-1,1.757764756E-1
2.101184583E0,2.450394910E-3,-2.215949818E-3,-1.714655906E-1,1.714974158E-1
2.111140583E0,2.160026343E-4,-4.174704663E-3,-1.752890795E-1,1.753389182E-1
2.121096583E0,2.198643051E-3,-1.033904962E-3,-1.828731298E-1,1.828892687E-1
2.131052583E0,1.985057490E-3,-2.111420035E-3,-1.877051741E-1,1.877275444E-1
2.141008583E0,2.206956735E-3,-1.009839587E-3,-1.863057911E-1,1.863215990E-1
2.150964583E0,-1.068198704E-3,-1.169894822E-3,-1.817214191E-1,1.817283243E-1
2.160920583E0,3.767733579E-4,9.151455015E-5,-1.773736328E-1,1.773740566E-1
2.170876583E0,1.219397527E-3,-1.515703276E-3,-1.767983884E-1,1.768090903E-1
2.180832583E0,-3.028716892E-4,-5.484903231E-4,-1.753327549E-1,1.753338744E-1
2.190788583E0,1.217793324E-3,-2.454230562E-4,-1.770521104E-1,1.770564686E-1
2.200743583E0,2.128705848E-3,-7.869210094E-4,-1.828227192E-1,1.828368051E-1
2.210699583E0,3.732727375E-3,-2.721708268E-3,-1.835769266E-1,1.836350427E-1
2.220655583E0,2.148392145E-3,6.936714053E-4,-1.884778738E-1,1.884913942E-1
2.230611583E0,2.897006460E-3,-8.636806160E-5,-1.875955611E-1,1.876179487E-1
2.240567583E0,2.993812319E-3,-1.235268079E-3,-1.866715550E-1,1.866996472E-1
2.250523583E0,2.827897202E-3,-1.074680127E-3,-1.807212532E-1,1.807465720E-1
2.260479583E0,7.706042379E-4,-1.537254080E-3,-1.774292737E-1,1.774376064E-1
2.270435583E0,6.773935747E-4,-9.505590424E-4,-1.813478470E-1,1.813516033E-1
2.280391583E0,2.464724705E-3,-1.544624567E-3,-1.821147352E-1,1.821379629E-1
2.290347583E0,-4.397297744E-5,-1.900956035E-3,-1.831978410E-1,1.832077087E-1
2.300303583E0,3.572531510E-3,-3.093268722E-3,-1.871119887E-1,1.871716528E-1
2.310259583E0,9.623673395E-4,3.088545054E-5,-1.833020747E-1,1.833046036E-1
2.320215583E0,1.556641306E-3,-1.189447008E-3,-1.801603436E-1,1.801709947E-1
2.330171583E0,-8.212951943E-4,-3.833966330E-3,-1.754835695E-1,1.755273682E-1
2.340127583E0,3.400325775E-3,-1.260880381E-4,-1.766310185E-1,1.766637903E-1
2.350083583E0,5.390255828E-4,-2.272595651E-3,-1.804872751E-1,1.805023870E-1
2.360038583E0,2.876843093E-3,-2.886597067E-4,-1.855348349E-1,1.855573617E-1
2.369994583E0,2.545545809E-3,-7.083741948E-4,-1.836780757E-1,1.836970797E-1
2.379950583E0,2.142094076E-3,-2.546667121E-3,-1.856123805E-1,1.856422093E-1
2.389906583E0,1.019305200E-3,-9.924462065E-4,-1.843891889E-1,1.843946770E-1
2.399862583E0,1.905020559E-3,-2.447172999E-3,-1.795606166E-1,1.795873960E-1
2.409818583E0,1.009953558E-4,-2.365946770E-3,-1.793797910E-1,1.793954217E-1
2.419774583E0,2.665502485E-3,-1.231237315E-3,-1.838366687E-1,1.838601143E-1
2.429730583E0,3.825575346E-3,-2.609955147E-3,-1.882932037E-1,1.883501459E-1
2.439686583E0,1.286351471E-3,-2.406315878E-3,-1.870374084E-1,1.870573099E-1
2.449642583E0,7.457297179E-4,-1.495248638E-3,-1.853540242E-1,1.853615552E-1
2.459598583E0,2.775873756E-3,2.417465672E-3,-1.790192425E-1,1.790570825E-1
2.469554583E0,-3.860973520E-4,-6.667412817E-4,-1.763867140E-1,1.763883967E-1
2.479510583E0,2.516134642E-3,1.058997586E-3,-1.777632385E-1,1.777841989E-1
2.489466583E0,-3.443665337E-4,-1.133050770E-3,-1.801528931E-1,1.801567853E-1
2.499422583E0,3.759381361E-3,-6.643244997E-4,-1.814254075E-1,1.814655691E-1
2.509378583E0,1.889575971E-3,-2.060619183E-3,-1.821697503E-1,1.821912034E-1
2.519333583E0,1.690333709E-3,-6.852177903E-4,-1.839727312E-1,1.839817724E-1
2.529289583E0,1.245053136E-3,-2.207746729E-3,-1.826155782E-1,1.826331670E-1
2.539245583E0,1.061534509E-3,-1.549663953E-3,-1.820178032E-1,1.820274952E-1
2.549201583E0,3.317498136E-3,-2.082828432E-3,-1.821720004E-1,1.822141095E-1
2.559157583E0,1.289251028E-3,-9.962506592E-4,-1.815925241E-1,1.815998334E-1
2.569113583E0,1.900979085E-3,-9.376611561E-4,-1.808559000E-1,1.808683209E-1
2.579069583E0,1.727176132E-3,1.201204956E-3,-1.794386655E-1,1.794509981E-1
2.589025583E0,1.606534934E-3,1.429171301E-3,-1.841244847E-1,1.841370396E-1
2.598981583E0,3.089558333E-3,-1.193208620E-3,-1.882795691E-1,1.883086968E-1
2.608937583E0,4.817150533E-3,-5.015861243E-4,-1.905203462E-1,1.905818953E-1
2.618893583E0,1.482208376E-3,-1.771549694E-3,-1.891903728E-1,1.892044727E-1
2.628849583E0,3.717932152E-3,-1.011217013E-3,-1.846462190E-1,1.846864147E-1
2.638805583E0,-5.399947404E-4,6.258618087E-4,-1.776774973E-1,1.776794201E-1
2.648761583E0,1.242192695E-3,-3.015211783E-3,-1.763848066E-1,1.764149499E-1
2.658717583E0,2.531512175E-3,-1.221517101E-3,-1.771176755E-1,1.771399776E-1
2.668672583E0,9.069839143E-4,-1.536036842E-3,-1.824312061E-1,1.824399271E-1
2.678628583E0,2.600301756E-3,-2.825971693E-3,-1.904262751E-1,1.904649940E-1
2.688584583E0,4.320437554E-3,-2.827835269E-3,-1.858464330E-1,1.859181527E-1
2.698540583E0,-1.450724900E-3,-1.096931286E-3,-1.827481985E-1,1.827572486E-1
2.708496583E0,6.973808049E-4,-2.072979696E-3,-1.783593148E-1,1.783727243E-1
2.718452583E0,1.320353709E-3,-7.016956806E-4,-1.743115485E-1,1.743179613E-1
2.728408583E0,-1.375564141E-3,-1.216750592E-3,-1.748913229E-1,1.749009647E-1
2.738364583E0,-8.411227027E-4,-2.235436812E-3,-1.825575531E-1,1.825731767E-1
2.748320583E0,1.795939403E-3,1.563029364E-3,-1.867477745E-1,1.867629506E-1
2.758276583E0,6.728070439E-4,-5.947025493E-4,-1.878330857E-1,1.878352321E-1
2.768232583E0,2.671775641E-3,-3.970041871E-5,-1.831432581E-1,1.831627499E-1
2.778188583E0,1.055874163E-3,-1.232519746E-3,-1.807895899E-1,1.807968744E-1
2.788144583E0,-2.452307846E-3,-4.217658192E-3,-1.806417853E-1,1.807076563E-1
2.798100583E0,2.324418165E-3,-1.284916885E-3,-1.791787148E-1,1.791983977E-1
2.808056583E0,-6.603507791E-5,5.113855004E-4,-1.796056181E-1,1.796063583E-1
2.818011583E0,1.319621690E-3,-1.913016662E-3,-1.811994463E-1,1.812143493E-1
2.827967583E0,2.126026899E-3,-9.417617694E-4,-1.827302277E-1,1.827450219E-1
2.837923583E0,3.539242782E-3,-2.663720399E-3,-1.830597073E-1,1.831132930E-1
2.847879583E0,3.028182313E-3,-1.102308743E-3,-1.819638163E-1,1.819923499E-1
2.857835583E0,2.525313292E-3,-1.355123706E-3,-1.751843989E-1,1.752078400E-1
2.867791583E0,-1.237200573E-3,-7.987888530E-4,-1.749492437E-1,1.749554417E-1
2.877747583E0,2.853135811E-3,-1.828849316E-3,-1.737860739E-1,1.738191145E-1
2.887703583E0,-4.300090950E-4,-7.340237498E-4,-1.775842756E-1,1.775863132E-1
2.897659583E0,9.528571973E-4,-5.086949095E-4,-1.866768450E-1,1.866799699E-1
2.907615583E0,1.185617410E-3,-4.738075659E-4,-1.888531744E-1,1.888574904E-1
2.917571583E0,1.803558902E-3,-1.806838438E-3,-1.859464347E-1,1.859639591E-1
2.927527375E0,1.636578701E-3,-9.532952681E-4,-1.814656556E-1,1.814755392E-1
2.937483375E0,-2.054203069E-4,2.470634878E-3,-1.730051786E-1,1.730229408E-1
2.947439375E0,1.606061822E-3,-1.175499521E-3,-1.719558984E-1,1.719674162E-1
2.957395375E0,1.211470924E-3,-2.808821388E-3,-1.699730307E-1,1.700005538E-1
2.967351375E0,9.800422704E-4,-1.439690590E-3,-1.774988472E-1,1.775073913E-1
2.977306375E0,2.924052533E-3,-2.247524448E-3,-1.866836548E-1,1.867200804E-1
2.987262375E0,2.295812825E-3,-1.652574167E-3,-1.899420321E-1,1.899630946E-1
2.997218375E0,3.956449218E-3,-1.269314438E-3,-1.896683723E-1,1.897138795E-1
3.007174375E0,1.718308195E-4,-1.285825856E-3,-1.862075925E-1,1.862121112E-1
3.017130375E0,5.374232307E-3,-1.224463806E-3,-1.818979681E-1,1.819814619E-1
3.027086375E0,3.702832386E-3,-2.639134414E-3,-1.802356243E-1,1.802929734E-1
3.037042375E0,1.076115877E-3,-2.425950952E-3,-1.786880940E-1,1.787078012E-1
3.046998375E0,3.153914120E-3,-3.912961110E-4,-1.781413555E-1,1.781697023E-1
3.056954375E0,1.239042613E-4,-4.819966853E-4,-1.788977832E-1,1.788984754E-1
3.066910375E0,-5.612545647E-5,-1.187201589E-3,-1.806232482E-1,1.806271585E-1
3.076866375E0,1.806972781E-3,-1.984315924E-3,-1.824802160E-1,1.824999504E-1
3.086822375E0,2.097257180E-3,-1.457010396E-3,-1.863559037E-1,1.863734000E-1
3.096778375E0,9.871040238E-4,-2.509811893E-4,-1.806462109E-1,1.806490822E-1
3.106734375E0,-9.964182973E-4,1.322478056E-4,-1.781771928E-1,1.781800280E-1
3.116689375E0,1.860957360E-3,-5.346420221E-3,-1.756466031E-1,1.757378063E-1
3.126645375E0,1.304352190E-4,-9.902883321E-4,-1.741893291E-1,1.741921929E-1
3.136601375E0,8.675545687E-4,-2.607126720E-3,-1.798852831E-1,1.799062668E-1
3.146557375E0,-1.218097168E-4,-9.082965553E-4,-1.820155531E-1,1.820178602E-1
3.156513375E0,2.310169861E-3,-1.635449007E-4,-1.880452484E-1,1.880595094E-1
3.166469375E0,2.263830975E-3,-3.394225612E-3,-1.853037924E-1,1.853487015E-1
3.176425375E0,2.339461120E-3,-1.480560750E-3,-1.852947176E-1,1.853154000E-1
3.186381375E0,1.651033876E-3,-7.833456621E-4,-1.820664406E-1,1.820756116E-1
3.196337375E0,9.095060523E-4,-1.985602081E-3,-1.810729653E-1,1.810861358E-1
3.206293375E0,1.039468334E-3,9.862193838E-4,-1.792247295E-1,1.792304572E-1
3.216249375E0,-9.626939427E-4,-1.292764209E-3,-1.782636940E-1,1.782709809E-1
3.226205375E0,-5.536323879E-4,-1.841109246E-3,-1.770903021E-1,1.771007377E-1
3.236161375E0,-4.114230978E-4,-2.533402294E-3,-1.783031225E-1,1.783215940E-1
3.246117375E0,2.959125559E-4,-2.433800139E-3,-1.847956479E-1,1.848119109E-1
3.256073375E0,5.296932068E-3,-1.367876306E-3,-1.885816306E-1,1.886609657E-1
3.266028375E0,2.866531257E-3,-9.564179927E-4,-1.852425635E-1,1.852672099E-1
3.275984375E0,1.429176191E-3,-2.824376337E-3,-1.813246012E-1,1.813522281E-1
3.285940375E0,1.227308530E-3,-6.435140967E-4,-1.778526455E-1,1.778580443E-1
3.295896375E0,-5.542321596E-4,-2.063463442E-3,-1.780790538E-1,1.780918708E-1
3.305852375E0,2.512930427E-3,-7.887557149E-5,-1.792258024E-1,1.792434358E-1
3.315808375E0,1.678048866E-3,-2.334219404E-3,-1.835670769E-1,1.835895862E-1
3.325764375E0,2.544641495E-3,8.581122383E-4,-1.881532967E-1,1.881724598E-1
3.335720375E0,4.969040747E-4,-1.332489774E-4,-1.847577691E-1,1.847584854E-1
3.345676375E0,6.439105491E-4,2.344289795E-3,-1.773869395E-1,1.774035981E-1
3.355632375E0,1.332029933E-3,-2.703995444E-3,-1.728859842E-1,1.729122593E-1
3.365588375E0,1.118178014E-3,-1.094913110E-3,-1.746910810E-1,1.746980909E-1
3.375544375E0,2.470603911E-3,-2.248647623E-3,-1.817055792E-1,1.817362864E-1
3.385500375E0,3.302309196E-3,-2.164757811E-3,-1.929790080E-1,1.930194004E-1
3.395456375E0,5.113465711E-3,-8.093565702E-4,-1.940052360E-1,1.940743007E-1
3.405412375E0,2.182390541E-3,-2.096462063E-3,-1.897441745E-1,1.897683054E-1
3.415368375E0,3.003134392E-3,-1.442918554E-3,-1.811396480E-1,1.811702870E-1
3.425323375E0,-5.356741021E-4,-1.356099732E-3,-1.717317700E-1,1.717379597E-1
3.435279375E0,9.000511491E-4,-1.736427657E-3,-1.711864322E-1,1.711976047E-1
3.445235375E0,7.051078137E-4,-8.509261534E-4,-1.790478230E-1,1.790512333E-1
3.455191375E0,4.519172013E-3,-6.207078695E-4,-1.853076965E-1,1.853638329E-1
3.465147375E0,3.722620429E-3,1.095699146E-3,-1.880001575E-1,1.880402023E-1
3.475103375E0,4.608537070E-3,-3.176569939E-3,-1.867885292E-1,1.868723731E-1
3.485059375E0,9.589408874E-4,-7.589524612E-4,-1.793439388E-1,1.793481084E-1
3.495015375E0,2.190976404E-3,-4.023015499E-4,-1.774884015E-1,1.775023800E-1
3.504971375E0,2.127859509E-3,2.380460501E-5,-1.767134219E-1,1.767262342E-1
3.514927375E0,2.046868671E-3,-6.237234920E-4,-1.793483049E-1,1.793610692E-1
3.524883375E0,3.649825230E-3,-3.355694935E-4,-1.808575094E-1,1.808946448E-1
3.534839375E0,2.981480444E-3,-5.544340238E-4,-1.834979355E-1,1.835229930E-1
3.544795375E0,6.318849046E-5,-1.853201538E-4,-1.839093864E-1,1.839094906E-1
3.554751375E0,3.034150926E-3,6.248196587E-4,-1.814013869E-1,1.814278359E-1
3.564706375E0,1.960630529E-3,-3.697536886E-5,-1.887181550E-1,1.887283431E-1
3.574662375E0,3.633975051E-3,-1.673943363E-3,-1.876980662E-1,1.877407040E-1
3.584618375E0,3.577249590E-3,-7.367776707E-4,-1.849334389E-1,1.849695012E-1
3.594574375E0,2.242179122E-3,-1.015799120E-3,-1.796798110E-1,1.796966714E-1
3.604530375E0,5.188475479E-4,-1.362808980E-3,-1.765727103E-1,1.765787316E-1
3.614486375E0,8.641002350E-4,-1.614414155E-3,-1.757299155E-1,1.757394555E-1
3.624442375E0,4.511299077E-3,-2.059161663E-3,-1.785171777E-1,1.785860428E-1
3.634398375E0,3.460090957E-4,-1.419683918E-3,-1.851765066E-1,1.851822719E-1
3.644354375E0,3.004110185E-3,-1.896389760E-3,-1.825037599E-1,1.825383339E-1
3.654310375E0,6.579855690E-4,-1.456593163E-3,-1.888659000E-1,1.888726629E-1
3.664266375E0,1.100336667E-3,-9.418046102E-4,-1.846106946E-1,1.846163761E-1
3.674222375E0,2.990331035E-3,-1.788358204E-3,-1.803126484E-1,1.803463099E-1
3.684178375E0,1.749031479E-3,-1.962263137E-3,-1.820564866E-1,1.820754621E-1
3.694134375E0,1.825658837E-4,-1.899028197E-3,-1.810138822E-1,1.810239354E-1
3.704090375E0,2.340259030E-3,-2.439649776E-3,-1.799494177E-1,1.799811702E-1
3.714046375E0,3.682584967E-3,-4.024710506E-4,-1.812967658E-1,1.813346098E-1
3.724001375E0,-1.481060171E-4,-3.619901836E-4,-1.806661189E-1,1.806665422E-1
3.733957375E0,2.735921415E-3,-3.438637592E-3,-1.788853258E-1,1.789392894E-1
3.743913375E0,-1.632994274E-3,-1.107306220E-3,-1.809311658E-1,1.809419232E-1
3.753869375E0,-1.731988159E-4,-8.124029264E-4,-1.855875105E-1,1.855893694E-1
3.763825375E0,5.807420239E-4,-1.485116780E-3,-1.848516762E-1,1.848585541E-1
3.773781375E0,-1.062011579E-4,-1.748716459E-3,-1.860933155E-1,1.861015619E-1
3.783737375E0,2.873609774E-3,-9.044939652E-4,-1.831286848E-1,1.831534628E-1
3.793693375E0,1.557045383E-3,-5.844449624E-4,-1.837588549E-1,1.837663808E-1
3.803649375E0,1.355444081E-3,-1.463022083E-3,-1.865594387E-1,1.865700990E-1
3.813605375E0,2.444263082E-3,3.023315221E-4,-1.854497194E-1,1.854660731E-1
3.823561375E0,1.748112729E-3,5.974099040E-4,-1.848797947E-1,1.848890243E-1
3.833517375E0,3.094922286E-3,-3.090247512E-3,-1.847974509E-1,1.848491981E-1
3.843473375E0,2.450703410E-3,-2.365867607E-3,-1.763477772E-1,1.763806730E-1
3.853429375E0,1.216324279E-3,-1.937383786E-4,-1.767017096E-1,1.767060021E-1
3.863385375E0,1.807546010E-3,-3.484339453E-3,-1.775792241E-1,1.776226018E-1
3.873340375E0,-2.873083577E-5,-2.717878670E-4,-1.798956394E-1,1.798958470E-1
3.883296375E0,5.683498457E-4,3.822846338E-4,-1.852552444E-1,1.852565106E-1
3.893252375E0,3.770855954E-3,-5.350541323E-5,-1.898354441E-1,1.898728997E-1
3.903208375E0,2.470700536E-3,1.195516437E-3,-1.871909201E-1,1.872110419E-1
3.913164375E0,3.290885361E-3,-3.819242120E-4,-1.818947494E-1,1.819249176E-1
3.923120375E0,-1.946598641E-4,-4.133488983E-4,-1.777277142E-1,1.777283015E-1
3.933076500E0,-4.040847416E-4,2.880049869E-4,-1.763808876E-1,1.763815856E-1
3.943032500E0,2.901164349E-3,-6.600804627E-4,-1.794397980E-1,1.794644632E-1
3.952988500E0,-4.951928859E-4,7.313676178E-5,-1.814999282E-1,1.815006185E-1
3.962944500E0,1.680343412E-3,-6.597647443E-4,-1.862877607E-1,1.862965073E-1
3.972900500E0,1.783266896E-3,-1.409286633E-4,-1.888297051E-1,1.888381779E-1
3.982856500E0,5.756170489E-3,1.964932308E-4,-1.896670014E-1,1.897544295E-1
3.992812500E0,2.819442656E-3,-2.178144641E-3,-1.863756329E-1,1.864096835E-1
4.002768500E0,1.989868004E-3,-8.217971772E-4,-1.795270443E-1,1.795399525E-1
4.012723500E0,-1.660252688E-3,-3.091420978E-3,-1.730418354E-1,1.730774108E-1
4.022679500E0,2.804004354E-3,-2.052254975E-3,-1.763103455E-1,1.763445835E-1
4.032635500E0,3.373596817E-3,3.798818216E-4,-1.807295829E-1,1.807614660E-1
4.042591500E0,3.555224510E-3,2.832086757E-4,-1.816518456E-1,1.816868538E-1
4.052547500E0,4.694044590E-3,4.753805697E-4,-1.863920987E-1,1.864518020E-1
4.062503500E0,4.392574541E-3,-1.353679225E-3,-1.829507500E-1,1.830084809E-1
4.072459500E0,8.685343200E-4,-2.102154307E-3,-1.802582294E-1,1.802725788E-1
4.082415500E0,1.756432233E-3,2.885647118E-4,-1.739617139E-1,1.739708201E-1
4.092371500E0,2.257298445E-3,-7.399199530E-4,-1.767772883E-1,1.767932480E-1
4.102327500E0,1.958491746E-3,-1.761289313E-4,-1.800889224E-1,1.800996576E-1
4.112283500E0,3.662467701E-3,-1.988704316E-3,-1.871192604E-1,1.871656652E-1
4.122239500E0,2.907993970E-3,-3.257167526E-3,-1.878684014E-1,1.879191364E-1
4.132195500E0,1.216499135E-3,-1.837014221E-3,-1.855011582E-1,1.855142426E-1
4.142151500E0,6.524415803E-4,-2.075633034E-3,-1.846082062E-1,1.846210273E-1
4.152107500E0,1.373421401E-5,-1.591703855E-3,-1.814022362E-1,1.814092198E-1
4.162062500E0,-1.608663588E-3,1.295162365E-3,-1.796900928E-1,1.797019607E-1
4.172018500E0,8.396248450E-4,6.850166246E-4,-1.792979687E-1,1.793012432E-1
4.181974500E0,3.431413323E-3,-1.295576803E-3,-1.787943542E-1,1.788319720E-1
4.191930500E0,6.753948401E-4,1.438262872E-3,-1.804414392E-1,1.804484351E-1
4.201886500E0,2.120425925E-3,3.298548982E-4,-1.838004738E-1,1.838130006E-1
4.211842500E0,3.649962833E-3,-9.557390586E-4,-1.838417053E-1,1.838804184E-1
4.221798500E0,-2.174104331E-3,-3.930134699E-4,-1.810635030E-1,1.810769817E-1
4.231754500E0,1.767432550E-3,-1.695524901E-3,-1.771322191E-1,1.771491509E-1
4.241710500E0,5.437099608E-4,-5.780626088E-4,-1.763122380E-1,1.763140239E-1
4.251666500E0,8.371577715E-4,-1.895044930E-3,-1.809205115E-1,1.809323727E-1
4.261622500E0,2.368741669E-3,-4.611993209E-4,-1.824933738E-1,1.825093288E-1
4.271578500E0,2.205552999E-3,-1.341520809E-3,-1.880218238E-1,1.880395447E-1
4.281534500E0,9.685147670E-4,1.475038007E-3,-1.899598092E-1,1.899680048E-1
4.291490500E0,2.625857946E-3,-1.652101055E-3,-1.874595284E-1,1.874851977E-1
4.301446500E0,1.793087344E-3,1.441693865E-3,-1.806745976E-1,1.806892467E-1
4.311401500E0,8.157793782E-4,-5.990331993E-4,-1.771305203E-1,1.771334118E-1
4.321357500E0,-1.344044227E-3,1.370107755E-3,-1.766175926E-1,1.766280206E-1
4.331313500E0,-1.447666204E-3,-5.527399480E-5,-1.807991266E-1,1.808049307E-1
4.341269500E0,4.314615391E-3,-6.219949573E-4,-1.857563406E-1,1.858074833E-1
4.351225500E0,4.951883107E-3,-1.223482192E-3,-1.884655654E-1,1.885345788E-1
4.361181500E0,4.030695651E-3,5.025127903E-4,-1.878205389E-1,1.878644561E-1
4.371137500E0,1.961264526E-3,-8.823582903E-4,-1.790218800E-1,1.790347973E-1
4.381093500E0,2.724526450E-3,5.485583097E-4,-1.775760502E-1,1.775977971E-1
4.391049500E0,-5.664695636E-4,2.210484818E-4,-1.780555546E-1,1.780565929E-1
4.401005500E0,-8.351825527E-4,7.190601900E-4,-1.796140373E-1,1.796174183E-1
4.410961500E0,2.381838625E-3,5.689999089E-4,-1.841202080E-1,1.841364926E-1
4.420917500E0,3.120599315E-3,3.655338660E-4,-1.867921650E-1,1.868185876E-1
4.430873500E0,3.753686557E-3,-1.059463248E-3,-1.835746914E-1,1.836161212E-1
4.440829500E0,-1.479691127E-3,1.681994647E-3,-1.756970584E-1,1.757113398E-1
4.450785500E0,2.515691100E-3,-9.197974578E-4,-1.728958935E-1,1.729166409E-1
4.460741500E0,3.021158976E-3,-6.976900622E-4,-1.785130203E-1,1.785399467E-1
4.470696500E0,4.002819769E-3,-1.572864130E-3,-1.856387407E-1,1.856885524E-1
4.480652500E0,3.315191483E-3,-7.488820702E-4,-1.870930940E-1,1.871239620E-1
4.490608500E0,4.119177815E-3,-1.363372430E-3,-1.863059551E-1,1.863564737E-1
4.500564500E0,6.618621992E-4,-1.923169009E-3,-1.770320237E-1,1.770437066E-1
4.510520500E0,-1.274670241E-3,-3.143622540E-3,-1.697910726E-1,1.698249554E-1
4.520476500E0,3.519552294E-3,-2.841087058E-3,-1.711056232E-1,1.711653976E-1
4.530432500E0,-1.687525539E-3,-2.325150184E-3,-1.825030446E-1,1.825256567E-1
4.540388500E0,-6.377074751E-4,-1.696644351E-3,-1.906611025E-1,1.906697178E-1
4.550344500E0,2.031827811E-3,2.645794302E-4,-1.937440187E-1,1.937548531E-1
4.560300500E0,3.340505064E-3,-2.186859958E-3,-1.957736164E-1,1.958143259E-1
4.570256500E0,2.714080736E-3,-5.705058575E-4,-1.840325445E-1,1.840534410E-1
4.580212500E0,-1.693237573E-4,-6.165783852E-4,-1.757703573E-1,1.757715202E-1
4.590168500E0,1.299911877E-3,-7.716715336E-4,-1.698421985E-1,1.698489259E-1
4.600124500E0,7.387838559E-4,-3.211393021E-3,-1.752886176E-1,1.753195891E-1
4.610080500E0,3.150326200E-3,-1.978958026E-3,-1.797567904E-1,1.797952850E-1
4.620035500E0,-2.611830132E-4,-1.008342952E-5,-1.865406483E-1,1.865408315E-1
4.629991500E0,3.370457096E-3,-2.024238929E-3,-1.861926168E-1,1.862341217E-1
4.639947500E0,2.256723354E-3,6.796689704E-4,-1.820527315E-1,1.820679868E-1
4.649903500E0,2.081328072E-3,-1.596034504E-3,-1.807940900E-1,1.808131141E-1
4.659859500E0,-3.253705218E-4,-5.025407299E-4,-1.787367910E-1,1.787377936E-1
4.669815500E0,4.470363259E-3,-2.355474979E-3,-1.810484082E-1,1.811189071E-1
4.679771500E0,1.885232748E-3,-9.314827621E-4,-1.806710362E-1,1.806832729E-1
4.689727500E0,3.407207550E-4,7.862653583E-4,-1.793957353E-1,1.793977819E-1
4.699683500E0,-1.469040290E-4,-1.041462645E-3,-1.837944686E-1,1.837974780E-1
4.709639500E0,2.983337501E-3,-3.530597314E-4,-1.866526157E-1,1.866767899E-1
4.719595500E0,3.302384168E-3,-4.406658001E-3,-1.856219620E-1,1.857036271E-1
4.729551500E0,4.266241565E-3,-2.398669720E-3,-1.879420131E-1,1.880057306E-1
4.739507500E0,2.411616268E-3,1.084478572E-3,-1.831986457E-1,1.832177278E-1
4.749463500E0,1.831215806E-3,7.457565516E-5,-1.774547845E-1,1.774642484E-1
4.759419500E0,6.586259697E-4,-9.789709002E-4,-1.794598699E-1,1.794637486E-1
4.769374500E0,-2.181053860E-4,1.896750182E-4,-1.804155260E-1,1.804157576E-1
4.779330500E0,2.126807813E-3,-3.277771175E-4,-1.860284060E-1,1.860408520E-1
4.789286500E0,1.959261252E-3,-1.563332044E-3,-1.866789162E-1,1.866957430E-1
4.799242500E0,-1.243959414E-4,-1.231235452E-3,-1.782436222E-1,1.782479180E-1
4.809198500E0,-2.335071913E-4,-3.364333883E-3,-1.750964969E-1,1.751289711E-1
4.819154500E0,-5.309822154E-4,-9.640278295E-4,-1.721252054E-1,1.721287240E-1
4.829110500E0,1.824896783E-3,-4.710406065E-4,-1.767169982E-1,1.767270483E-1
4.839066500E0,1.793471398E-3,2.173865214E-4,-1.805602014E-1,1.805692392E-1
4.849022500E0,7.896613097E-4,-5.133850500E-4,-1.875228584E-1,1.875252238E-1
4.858978500E0,3.185441019E-3,-1.453747042E-3,-1.847401261E-1,1.847733060E-1
4.868934500E0,1.110646408E-3,-1.031200401E-3,-1.827214062E-1,1.827276914E-1
4.878890500E0,1.092004357E-3,-7.483726367E-4,-1.772616506E-1,1.772665939E-1
4.888846500E0,-3.138935426E-5,-1.582254656E-3,-1.807108372E-1,1.807177667E-1
4.898802500E0,5.555713433E-4,-1.970543526E-3,-1.820847541E-1,1.820962640E-1
4.908758500E0,2.983365208E-3,-1.427502371E-3,-1.856527925E-1,1.856822490E-1
4.918713500E0,3.010263201E-3,1.237895340E-4,-1.838748604E-1,1.838995413E-1
4.928669500E0,7.234119694E-4,-9.042797610E-4,-1.821298599E-1,1.821335415E-1
4.938625458E0,-1.768241636E-3,9.354315698E-4,-1.806810945E-1,1.806921681E-1
4.948581458E0,-2.165493788E-4,-2.333361655E-3,-1.844234914E-1,1.844383790E-1
4.958537458E0,1.195458695E-3,-2.070773393E-3,-1.825755239E-1,1.825911803E-1
4.968493458E0,3.249977715E-3,-2.308328636E-3,-1.829481572E-1,1.829915817E-1
4.978449458E0,4.523271054E-4,-2.118977718E-3,-1.776623130E-1,1.776755248E-1
4.988405458E0,-2.358396305E-4,-8.724201471E-4,-1.780169308E-1,1.780192248E-1
4.998361458E0,9.801597334E-4,2.295961604E-4,-1.798534393E-1,1.798562567E-1
5.008317458E0,1.058450318E-3,-2.933368087E-4,-1.844047308E-1,1.844080017E-1
5.018273458E0,4.741528246E-4,-3.262229264E-3,-1.896341145E-1,1.896627648E-1
5.028229458E0,3.018070711E-3,-9.154723957E-4,-1.877817810E-1,1.878082642E-1
5.038185458E0,5.751531571E-4,-4.773819819E-4,-1.827310920E-1,1.827326207E-1
5.048141458E0,1.475262688E-3,1.265390776E-3,-1.766304225E-1,1.766411157E-1
5.058097458E0,-6.720441161E-4,5.114497617E-4,-1.745012254E-1,1.745032689E-1
5.068052458E0,4.332846147E-4,1.159076579E-3,-1.724192351E-1,1.724236754E-1
5.078008458E0,-9.965666104E-4,-1.174384728E-3,-1.776789725E-1,1.776856482E-1
5.087964458E0,7.093979511E-4,-6.222277880E-4,-1.817363948E-1,1.817388445E-1
5.097920458E0,5.065796897E-3,2.469436266E-3,-1.849409789E-1,1.850268253E-1
5.107876458E0,-2.291874262E-5,-1.491694711E-3,-1.849442273E-1,1.849502444E-1
5.117832458E0,2.246893477E-3,-1.265325584E-3,-1.848009527E-1,1.848189430E-1
5.127788458E0,2.010654658E-3,-8.002873510E-4,-1.837306917E-1,1.837434359E-1
5.137744458E0,1.747800736E-3,-8.652685210E-4,-1.782736033E-1,1.782842706E-1
5.147700458E0,3.632407461E-4,-1.139697619E-3,-1.741195023E-1,1.741236111E-1
5.157656458E0,1.801081467E-3,-8.190535009E-4,-1.718555540E-1,1.718669432E-1
5.167612458E0,7.626216393E-4,-2.007019706E-3,-1.759563237E-1,1.759694223E-1
5.177568458E0,2.578364918E-3,1.027652062E-3,-1.838251650E-1,1.838461186E-1
5.187524458E0,-6.952633266E-4,6.974954158E-4,-1.882669479E-1,1.882695237E-1
5.197480458E0,5.509369075E-3,-2.072990872E-3,-1.865502745E-1,1.866431230E-1
5.207436458E0,2.755059861E-3,-1.546374522E-3,-1.819598377E-1,1.819872637E-1
5.217391458E0,3.243217245E-3,-5.903001875E-4,-1.749645174E-1,1.749955692E-1
5.227347458E0,2.160023898E-3,-5.410127342E-4,-1.696957350E-1,1.697103440E-1
5.237303458E0,1.202351414E-3,-1.613734290E-3,-1.732822061E-1,1.732938912E-1
5.247259458E0,-6.669625873E-5,-2.285124734E-3,-1.829542816E-1,1.829685639E-1
5.257215458E0,3.469449002E-3,-2.214550972E-3,-1.912625432E-1,1.913068262E-1
5.267171458E0,3.407167504E-3,-1.847895794E-3,-1.927030683E-1,1.927420453E-1
5.277127458E0,3.653243417E-3,8.253855631E-4,-1.885930002E-1,1.886301862E-1
5.287083458E0,1.430719625E-3,-5.392162129E-4,-1.767522395E-1,1.767588523E-1
5.297039458E0,-3.961165203E-5,6.802454591E-4,-1.719018221E-1,1.719031726E-1
5.306995458E0,1.148156356E-3,1.693545841E-3,-1.769310981E-1,1.769429282E-1
5.316951458E0,1.060614013E-4,-9.954478592E-4,-1.894412935E-1,1.894439385E-1
5.326907458E0,2.246088581E-3,-8.321451023E-4,-1.974788606E-1,1.974933866E-1
5.336863458E0,4.179277457E-3,3.849193454E-4,-1.968301237E-1,1.968748641E-1
5.346819458E0,1.392069156E-3,7.943734527E-4,-1.869728863E-1,1.869797559E-1
5.356775458E0,1.222159481E-3,1.925684512E-3,-1.764022708E-1,1.764170147E-1
5.366731458E0,2.198921982E-3,7.087001577E-4,-1.697276235E-1,1.697433465E-1
5.376686458E0,-2.895704936E-3,-2.585630864E-3,-1.726539135E-1,1.726975519E-1
5.386642458E0,3.859277640E-4,-1.857564785E-3,-1.819534600E-1,1.819633509E-1
5.396598458E0,3.502625274E-3,-1.129989512E-3,-1.858235598E-1,1.858600028E-1
5.406554458E0,4.111378221E-4,-1.302214339E-3,-1.881310493E-1,1.881360053E-1
5.416510458E0,1.808764646E-3,-6.049983203E-4,-1.823208332E-1,1.823308089E-1
5.426466458E0,1.198247657E-3,-2.296147868E-4,-1.743331105E-1,1.743373796E-1
5.436422458E0,1.866701059E-3,-1.917792484E-3,-1.712835282E-1,1.713044353E-1
5.446378458E0,1.907568891E-3,1.134266146E-3,-1.744466424E-1,1.744607590E-1
5.456334458E0,1.557096839E-3,-6.620362401E-4,-1.816475689E-1,1.816554490E-1
5.466290458E0,1.646681922E-3,-9.719561785E-4,-1.858330667E-1,1.858429039E-1
5.476246458E0,1.852810616E-3,-1.129615121E-3,-1.867116690E-1,1.867242787E-1
5.486202458E0,-6.273963954E-4,-1.986229792E-3,-1.835034639E-1,1.835152854E-1
5.496158458E0,1.185949892E-3,-6.706286222E-4,-1.806440353E-1,1.806491730E-1
5.506114458E0,9.427282494E-4,3.807414323E-4,-1.842873245E-1,1.842901291E-1
5.516070458E0,6.617647014E-4,-1.545539126E-4,-1.882000417E-1,1.882012686E-1
5.526025458E0,2.788088983E-3,-6.805090234E-4,-1.873497367E-1,1.873717171E-1
5.535981458E0,1.678083558E-3,3.295205534E-5,-1.858900785E-1,1.858976556E-1
5.545937458E0,1.669553923E-3,1.638929360E-3,-1.822044253E-1,1.822194449E-1
5.555893458E0,9.398477850E-4,-2.517466433E-3,-1.783846468E-1,1.784048855E-1
5.565849458E0,9.826114401E-4,-9.967852384E-4,-1.762653589E-1,1.762709161E-1
5.575805458E0,1.902467338E-3,-1.233007759E-3,-1.748078167E-1,1.748225171E-1
5.585761458E0,-1.619550399E-3,8.629951626E-4,-1.760629863E-1,1.760725499E-1
5.595717458E0,2.065732144E-3,1.260604709E-3,-1.754935980E-1,1.755102826E-1
5.605673458E0,7.214923389E-4,9.647216648E-4,-1.794476360E-1,1.794516796E-1
5.615629458E0,2.414197428E-3,8.070627227E-4,-1.821424812E-1,1.821602678E-1
5.625585458E0,-7.662927383E-4,-1.189324073E-3,-1.834401041E-1,1.834455600E-1
5.635541458E0,2.513656393E-3,3.726202995E-4,-1.834627390E-1,1.834803366E-1
5.645497458E0,3.306619823E-3,8.606808260E-4,-1.791185588E-1,1.791511446E-1
5.655453458E0,3.065337427E-3,-1.087687910E-3,-1.749328673E-1,1.749631030E-1
5.665409458E0,-1.536982134E-3,6.345268339E-4,-1.747624129E-1,1.747703233E-1
5.675364458E0,2.386653097E-3,-1.522634178E-3,-1.790823340E-1,1.791047093E-1
5.685320458E0,4.537270870E-4,1.060296781E-3,-1.839159131E-1,1.839195291E-1
5.695276458E0,2.800771035E-3,-8.787503466E-4,-1.856227368E-1,1.856459451E-1
5.705232458E0,-1.478166087E-4,-7.138587534E-6,-1.848384589E-1,1.848385181E-1
5.715188458E0,2.310014796E-3,1.759602688E-3,-1.785395592E-1,1.785631725E-1
5.725144458E0,9.218744235E-4,-2.000965178E-4,-1.755603999E-1,1.755629343E-1
5.735100458E0,4.558211949E-4,-6.072940305E-4,-1.767444462E-1,1.767460773E-1
5.745056458E0,4.214293440E-4,-1.867841929E-3,-1.810066551E-1,1.810167827E-1
5.755012458E0,1.265917672E-3,-2.028429881E-3,-1.819078773E-1,1.819235909E-1
5.764968458E0,-6.703046965E-4,-1.218818128E-3,-1.837258339E-1,1.837310993E-1
5.774924458E0,7.230612100E-4,-2.050523646E-3,-1.811897159E-1,1.812027610E-1
5.784880458E0,1.628276659E-4,-1.822737977E-4,-1.807505637E-1,1.807507290E-1
5.794836458E0,2.298150212E-3,-2.492299303E-3,-1.808293909E-1,1.808611668E-1
5.804792458E0,3.246079141E-4,6.872275844E-4,-1.811868250E-1,1.811884191E-1
5.814748458E0,7.195547223E-4,-1.667006873E-3,-1.804376841E-1,1.804468190E-1
5.824703458E0,1.466417743E-4,5.707321689E-4,-1.772199571E-1,1.772209368E-1
5.834659458E0,1.971173333E-3,7.803225890E-4,-1.804447770E-1,1.804572303E-1
5.844615458E0,3.931787796E-4,-1.281596720E-3,-1.820130944E-1,1.820180310E-1
5.854571458E0,-1.096859807E-3,-1.216615550E-3,-1.855247319E-1,1.855319633E-1
5.864527458E0,6.945038913E-4,1.214387827E-3,-1.833080947E-1,1.833134329E-1
5.874483458E0,8.500325494E-4,-9.116129950E-4,-1.781074703E-1,1.781118316E-1
5.884439458E0,-2.253730781E-4,-1.083808951E-3,-1.740454882E-1,1.740490086E-1
5.894395458E0,1.402617199E-3,-1.249724068E-3,-1.766793430E-1,1.766893301E-1
5.904351458E0,-6.373243523E-4,-8.222181350E-5,-1.825981736E-1,1.825993044E-1
5.914307458E0,9.682953823E-4,-1.687308773E-3,-1.853822470E-1,1.853924543E-1
5.924263458E0,2.124197315E-3,1.290328801E-3,-1.893693060E-1,1.893856151E-1
5.934219208E0,3.504247405E-3,-6.202235818E-4,-1.851276904E-1,1.851618918E-1
5.944175208E0,-3.834775416E-4,-1.847829670E-3,-1.765535921E-1,1.765636781E-1
5.954131208E0,1.856400049E-4,-2.247570083E-3,-1.696184576E-1,1.696334495E-1
5.964087208E0,5.922694108E-4,-6.121043116E-4,-1.663723737E-1,1.663745539E-1
5.974043208E0,1.071904786E-3,-9.663039818E-4,-1.755416393E-1,1.755475715E-1
5.983998208E0,2.035788028E-3,-4.673711956E-4,-1.820571423E-1,1.820691240E-1
5.993954208E0,3.884820733E-3,-9.035961702E-4,-1.862321794E-1,1.862748855E-1
6.003910208E0,3.514830489E-3,-7.995478809E-4,-1.896455586E-1,1.896798123E-1
6.013866208E0,3.193120705E-3,-2.282927744E-3,-1.833210886E-1,1.833631078E-1
6.023822208E0,3.476656566E-4,1.681294292E-3,-1.849212795E-1,1.849292493E-1
6.033778208E0,-1.211615279E-3,7.742214948E-4,-1.795504838E-1,1.795562410E-1
6.043734208E0,1.586338622E-4,-2.782444470E-3,-1.778453290E-1,1.778671646E-1
6.053690208E0,5.354711320E-4,-1.852202229E-3,-1.780541241E-1,1.780645627E-1
6.063646208E0,1.864872989E-3,-5.180723965E-4,-1.805341989E-1,1.805445738E-1
6.073602208E0,-1.526130131E-3,-7.135476917E-4,-1.786156446E-1,1.786235895E-1
6.083558208E0,1.882582204E-3,1.112440601E-3,-1.839821488E-1,1.839951432E-1
6.093514208E0,1.423186855E-3,-5.576275289E-4,-1.873025745E-1,1.873088114E-1
6.103470208E0,1.802227809E-3,-2.765161917E-3,-1.878715307E-1,1.879005220E-1
6.113426208E0,1.740176114E-3,-1.630920917E-3,-1.869069338E-1,1.869221496E-1
6.123382208E0,4.980011145E-4,6.189970300E-4,-1.865975559E-1,1.865992471E-1
6.133337208E0,2.371002221E-3,-2.707643434E-4,-1.788285822E-1,1.788445044E-1
6.143293208E0,3.742524190E-3,-1.305032521E-3,-1.801120192E-1,1.801556245E-1
6.153249208E0,3.175537102E-3,1.917392015E-3,-1.774342209E-1,1.774729928E-1
6.163205208E0,6.683323882E-4,-1.708091237E-3,-1.807325929E-1,1.807418999E-1
6.173161208E0,1.656365115E-3,-5.948906764E-4,-1.856700927E-1,1.856784338E-1
6.183117208E0,3.873613197E-3,1.280083321E-3,-1.854260415E-1,1.854709151E-1
6.193073208E0,2.227513585E-3,1.720303670E-3,-1.841450632E-1,1.841665701E-1
6.203029208E0,-1.871614251E-3,-4.466082901E-4,-1.823470592E-1,1.823572110E-1
6.212985208E0,3.005432663E-3,-3.608314320E-3,-1.807749867E-1,1.808359710E-1
6.222941208E0,5.964501761E-4,-1.096835360E-3,-1.752879918E-1,1.752924381E-1
6.232897208E0,-2.168792416E-4,-9.335838258E-4,-1.771202385E-1,1.771228317E-1
6.242853208E0,4.289676901E-3,1.522196457E-3,-1.818290949E-1,1.818860582E-1
6.252809208E0,1.780180028E-3,-4.911534488E-4,-1.849218309E-1,1.849310515E-1
6.262765208E0,1.806900371E-3,-3.735153005E-4,-1.848326027E-1,1.848418119E-1
6.272721208E0,1.239913399E-3,-2.009421587E-4,-1.836328506E-1,1.836371466E-1
6.282677208E0,5.620031618E-3,-2.902276814E-3,-1.820422411E-1,1.821520944E-1
6.292632208E0,2.877508057E-3,-6.764065474E-4,-1.806762964E-1,1.807004749E-1
6.302588208E0,-2.253958955E-4,4.314668477E-4,-1.780319512E-1,1.780326167E-1
6.312544208E0,1.014838228E-3,-1.015961170E-3,-1.789795011E-1,1.789852617E-1
6.322500208E0,2.869388554E-3,-1.564603299E-3,-1.814891249E-1,1.815185495E-1
6.332456208E0,-5.533060757E-4,-1.920667477E-3,-1.863459349E-1,1.863566542E-1
6.342412208E0,1.694960985E-3,-2.847807482E-4,-1.872152686E-1,1.872231577E-1
6.352368208E0,2.342641586E-3,-7.367189974E-4,-1.862285435E-1,1.862447345E-1
6.362324208E0,2.203013981E-3,-7.296111435E-4,-1.799225658E-1,1.799375316E-1
6.372280208E0,1.681566937E-3,2.355184406E-4,-1.732321680E-1,1.732404894E-1
6.382236208E0,9.612977738E-4,-8.184406906E-4,-1.702678502E-1,1.702725308E-1
6.392192208E0,-8.017147775E-4,-4.455978051E-4,-1.703506857E-1,1.703531550E-1
6.402148208E0,8.926856681E-4,1.451053657E-3,-1.815535277E-1,1.815615209E-1
6.412104208E0,1.566199120E-3,8.350647986E-4,-1.904343814E-1,1.904426526E-1
6.422060208E0,-2.097761608E-4,-7.580779493E-5,-1.873463541E-1,1.873464869E-1
6.432016208E0,1.345776254E-3,-5.807438865E-4,-1.828030050E-1,1.828088811E-1
6.441972208E0,9.686416015E-4,-1.911586151E-4,-1.738010049E-1,1.738038092E-1
6.451927208E0,5.358779454E-4,4.272274673E-4,-1.748681366E-1,1.748694796E-1
6.461883208E0,5.359549541E-4,1.715207472E-4,-1.782567203E-1,1.782576085E-1
6.471839208E0,9.732460603E-4,8.381102234E-4,-1.858275533E-1,1.858319918E-1
6.481795208E0,1.885608071E-3,1.252112910E-3,-1.911601275E-1,1.911735276E-1
6.491751208E0,3.636114998E-4,2.559990622E-3,-1.865400821E-1,1.865580017E-1
6.501707208E0,3.958684858E-3,-3.420304507E-3,-1.786568463E-1,1.787334283E-1
6.511663208E0,-9.364717989E-4,-9.976271540E-4,-1.695911884E-1,1.695967082E-1
6.521619208E0,2.641424944E-4,-1.029511914E-3,-1.739624739E-1,1.739657207E-1
6.531575208E0,1.665764255E-3,7.428219542E-4,-1.818137318E-1,1.818228798E-1
6.541531208E0,1.900758012E-3,1.180661842E-3,-1.904660612E-1,1.904792044E-1
6.551487208E0,2.955369651E-3,2.946276218E-4,-1.904772371E-1,1.905003907E-1
6.561443208E0,4.814818967E-3,-6.234738976E-5,-1.847907305E-1,1.848534567E-1
6.571399208E0,-1.626302605E-3,-2.573974431E-3,-1.792340279E-1,1.792598866E-1
6.581355208E0,2.082357649E-3,-1.442407258E-3,-1.766938418E-1,1.767119987E-1
6.591311208E0,-1.152317738E-3,-1.365974545E-3,-1.802337170E-1,1.802425767E-1
6.601267208E0,3.019148484E-3,-1.238090917E-4,-1.830097139E-1,1.830346578E-1
6.611222208E0,1.296083210E-3,-4.982491955E-4,-1.875149906E-1,1.875201316E-1
6.621178208E0,1.649958547E-3,1.325907186E-3,-1.835549027E-1,1.835671068E-1
6.631134208E0,8.961255662E-5,-1.744451001E-3,-1.789918393E-1,1.790003622E-1
6.641090208E0,2.027120907E-3,1.529781148E-3,-1.754413247E-1,1.754597044E-1
6.651046208E0,1.264391467E-3,1.904768869E-4,-1.778858453E-1,1.778904408E-1
6.661002208E0,3.175499849E-3,-7.728207856E-4,-1.855895668E-1,1.856183406E-1
6.670958208E0,3.373638960E-3,-9.030494839E-4,-1.874934584E-1,1.875259819E-1
6.680914208E0,1.007859595E-3,2.208413556E-3,-1.855251789E-1,1.855410598E-1
6.690870208E0,-6.781877601E-4,-9.951032698E-4,-1.796156168E-1,1.796196536E-1
6.700826208E0,6.545055658E-4,-4.323478788E-4,-1.769582182E-1,1.769599568E-1
6.710782208E0,2.334427554E-3,-1.704540104E-3,-1.762657911E-1,1.762894895E-1
6.720738208E0,2.531177131E-3,-9.726500139E-4,-1.790523082E-1,1.790728399E-1
6.730694208E0,5.338063929E-4,7.309736684E-4,-1.823144108E-1,1.823166577E-1
6.740650208E0,1.552168978E-3,-1.066177152E-3,-1.823884994E-1,1.823982200E-1
6.750606208E0,1.553409966E-4,-1.165246591E-3,-1.808371991E-1,1.808410200E-1
6.760561208E0,7.085643592E-4,-1.233462244E-4,-1.801824868E-1,1.801839222E-1
6.770517208E0,5.146862241E-4,-1.149195246E-3,-1.823899746E-1,1.823943211E-1
6.780473208E0,4.019909538E-4,3.654956818E-4,-1.824832410E-1,1.824840498E-1
6.790429208E0,3.026550403E-4,-2.398866229E-3,-1.788325757E-1,1.788489203E-1
6.800385208E0,2.863058355E-3,-6.228843704E-4,-1.811401695E-1,1.811638653E-1
6.810341208E0,2.741884440E-3,-7.355352864E-4,-1.855274588E-1,1.855491765E-1
6.820297208E0,3.234191681E-4,-4.052361473E-4,-1.833273172E-1,1.833280504E-1
6.830253208E0,1.961795846E-3,-1.354653388E-3,-1.839321256E-1,1.839475755E-1
6.840209208E0,1.753101824E-3,-2.077419311E-3,-1.830477417E-1,1.830679239E-1
6.850165208E0,1.920082024E-3,6.360756233E-4,-1.790873557E-1,1.790987780E-1
6.860121208E0,5.835855263E-4,-1.692938618E-3,-1.785024703E-1,1.785114520E-1
6.870077208E0,1.933275489E-3,-4.692161456E-4,-1.807549596E-1,1.807659070E-1
6.880033208E0,-6.641287473E-4,-1.086276025E-3,-1.916378587E-1,1.916420882E-1
6.889989208E0,2.695715055E-3,2.027757466E-3,-1.892306358E-1,1.892606990E-1
6.899945208E0,2.488847356E-3,-1.774225384E-3,-1.873998493E-1,1.874247736E-1
6.909901208E0,3.259565914E-3,-1.472755335E-3,-1.797621697E-1,1.797977515E-1
6.919856208E0,1.008170424E-3,-1.019445248E-3,-1.763615906E-1,1.763674185E-1
6.929812208E0,7.082985248E-4,1.046901569E-3,-1.762090027E-1,1.762135362E-1
6.939768125E0,-7.765325718E-4,1.377522014E-3,-1.781603098E-1,1.781673274E-1
6.949724125E0,6.993912393E-4,-3.838930279E-4,-1.819691509E-1,1.819708999E-1
6.959680125E0,2.873044927E-3,9.616548195E-4,-1.851186007E-1,1.851433917E-1
6.969636125E0,1.895931084E-3,-1.331592910E-3,-1.842059344E-1,1.842205036E-1
6.979592125E0,8.633624529E-4,-1.173033379E-3,-1.845799387E-1,1.845856851E-1
6.989548125E0,-1.263171667E-3,-1.508742571E-6,-1.792149991E-1,1.792194507E-1
6.999504125E0,3.168766620E-3,-5.949474871E-4,-1.779660285E-1,1.779952312E-1
7.009460125E0,1.597501338E-3,3.419527784E-4,-1.778856069E-1,1.778931086E-1
7.019416125E0,3.964909411E-4,-3.591831774E-4,-1.793242097E-1,1.793250077E-1
7.029372125E0,1.637257636E-3,1.255124807E-4,-1.824395806E-1,1.824469702E-1
7.039328125E0,4.917081678E-4,-8.854940534E-4,-1.841591448E-1,1.841619300E-1
7.049284125E0,2.359383041E-3,-8.753743023E-4,-1.874143183E-1,1.874312132E-1
7.059240125E0,3.353254171E-3,8.358722553E-4,-1.840733886E-1,1.841058266E-1
7.069196125E0,-2.776996698E-4,1.167702489E-3,-1.828906834E-1,1.828946219E-1
7.079151125E0,2.486143727E-3,1.393957064E-4,-1.777925640E-1,1.778100002E-1
7.089107125E0,3.052598098E-3,-1.161025837E-3,-1.810317636E-1,1.810612210E-1
7.099063125E0,2.876307582E-3,-2.516442910E-3,-1.811018437E-1,1.811421636E-1
7.109019125E0,6.312627811E-4,-1.998458989E-3,-1.867203265E-1,1.867320880E-1
7.118975125E0,3.688724479E-3,2.663858235E-3,-1.869414598E-1,1.869968241E-1
7.128931125E0,4.527354147E-3,1.127746888E-3,-1.827693433E-1,1.828288861E-1
7.138887125E0,9.980081813E-4,6.621778011E-4,-1.795782596E-1,1.795822536E-1
7.148843125E0,5.777613842E-4,-1.908326522E-4,-1.757915020E-1,1.757925550E-1
7.158799125E0,1.989320735E-4,-3.908703104E-3,-1.753024757E-1,1.753461591E-1
7.168755125E0,3.067156766E-3,-1.566984691E-3,-1.794109344E-1,1.794439921E-1
7.178711125E0,-8.376367623E-5,-1.271599904E-4,-1.885966212E-1,1.885966826E-1
7.188667125E0,6.675338838E-3,-7.109250873E-4,-1.874810159E-1,1.876011644E-1
7.198623125E0,1.144129084E-3,-1.546554267E-4,-1.820524186E-1,1.820560794E-1
7.208579125E0,9.132329724E-4,9.726602584E-4,-1.760091782E-1,1.760142348E-1
7.218535125E0,3.187998082E-4,-3.799623810E-3,-1.715266705E-1,1.715690457E-1
7.228491125E0,1.762499451E-3,-1.767366193E-3,-1.780830920E-1,1.781005829E-1
7.238447125E0,2.216931200E-3,1.027632505E-3,-1.887135506E-1,1.887293697E-1
7.248402125E0,1.027030870E-3,1.983441412E-3,-1.938228309E-1,1.938357001E-1
7.258358125E0,3.369732760E-3,-8.922852576E-4,-1.883816123E-1,1.884138613E-1
7.268314125E0,1.046124846E-3,-1.259800978E-3,-1.820107996E-1,1.820181658E-1
7.278270125E0,2.123881131E-3,-2.576161176E-3,-1.729637533E-1,1.729959752E-1
7.288226125E0,7.552824682E-4,-1.762298867E-3,-1.734630913E-1,1.734736873E-1
7.298182125E0,1.685748808E-3,-3.103079274E-3,-1.794427335E-1,1.794774790E-1
7.308138125E0,1.283345162E-3,1.495052129E-5,-1.885771006E-1,1.885814680E-1
7.318094125E0,4.228180274E-3,1.033497043E-3,-1.913395673E-1,1.913890688E-1
7.328050125E0,9.556877194E-4,1.479576342E-3,-1.899738908E-1,1.899820562E-1
7.338006125E0,2.966424217E-3,1.433119178E-4,-1.798063964E-1,1.798309217E-1
7.347962125E0,-1.218200894E-3,-1.302784309E-3,-1.714318246E-1,1.714411028E-1
7.357918125E0,3.312096465E-3,-3.815891221E-3,-1.712270230E-1,1.713015599E-1
7.367874125E0,-4.647985916E-4,-3.971904516E-4,-1.776292622E-1,1.776303144E-1
7.377830125E0,1.342498697E-3,2.106329426E-3,-1.893915534E-1,1.894080237E-1
7.387786125E0,2.917225705E-3,1.870639622E-3,-1.920014471E-1,1.920327190E-1
7.397741125E0,2.932928968E-3,1.373671927E-3,-1.822500080E-1,1.822787822E-1
7.407697125E0,1.085494179E-3,-4.367446527E-4,-1.740882248E-1,1.740921568E-1
7.417653125E0,5.873766495E-4,-3.482662141E-4,-1.755865216E-1,1.755878495E-1
7.427609125E0,3.381298855E-3,-2.305157483E-3,-1.805586368E-1,1.806050062E-1
7.437565125E0,3.090966027E-3,-3.590533510E-3,-1.894836426E-1,1.895428627E-1
7.447521125E0,2.568301279E-4,5.070054904E-4,-1.949441880E-1,1.949450165E-1
7.457477125E0,9.335105424E-4,1.786209643E-3,-1.882239580E-1,1.882347480E-1
7.467433125E0,2.453909256E-3,1.454912126E-3,-1.810214370E-1,1.810439149E-1
7.477389125E0,2.646319335E-4,-2.520093694E-4,-1.731091291E-1,1.731095148E-1
7.487345125E0,2.704087412E-3,-3.665257245E-4,-1.718380004E-1,1.718596661E-1
7.497301125E0,1.445892151E-3,-1.978842542E-3,-1.802190542E-1,1.802357177E-1
7.507257125E0,1.111665391E-3,-3.774845973E-4,-1.854862571E-1,1.854899724E-1
7.517213125E0,1.777817961E-3,1.492632553E-3,-1.822573096E-1,1.822720919E-1
7.527169125E0,2.983430866E-3,-9.657312185E-4,-1.786207706E-1,1.786482946E-1
7.537125125E0,-3.728579031E-4,5.610212684E-4,-1.742271036E-1,1.742284058E-1
7.547081125E0,-1.322541153E-3,-8.706944063E-4,-1.738492101E-1,1.738564209E-1
7.557036125E0,2.085266868E-3,-5.625709891E-4,-1.813941002E-1,1.814069580E-1
7.566992125E0,1.359022921E-3,-3.816422075E-3,-1.864565015E-1,1.865005066E-1
7.576948125E0,4.701608792E-3,9.754579514E-4,-1.856580824E-1,1.857201664E-1
7.586904125E0,-7.671923959E-4,3.221845254E-4,-1.785160303E-1,1.785179696E-1
7.596860125E0,2.062192652E-3,-7.890034467E-4,-1.711493582E-1,1.711636000E-1
7.606816125E0,-7.738075219E-4,1.718096435E-3,-1.723432541E-1,1.723535548E-1
7.616772125E0,-1.857341384E-3,-1.826062799E-4,-1.771552712E-1,1.771651014E-1
7.626728125E0,1.936864108E-3,-6.888899952E-5,-1.859631538E-1,1.859732528E-1
7.636684125E0,-4.323307658E-4,2.023953013E-3,-1.918727458E-1,1.918839072E-1
7.646640125E0,3.215134609E-3,-4.301499575E-4,-1.900833696E-1,1.901110452E-1
7.656596125E0,1.822262537E-3,-1.410161145E-3,-1.856901795E-1,1.857044748E-1
7.666552125E0,2.099497709E-3,4.900041968E-4,-1.784343868E-1,1.784474108E-1
7.676508125E0,1.858368632E-4,-1.885098405E-3,-1.755640805E-1,1.755742990E-1
7.686464125E0,-6.056545535E-4,3.093462437E-4,-1.756498367E-1,1.756511532E-1
7.696420125E0,3.270326648E-3,-1.224223524E-4,-1.777928919E-1,1.778230087E-1
7.706376125E0,-1.502057887E-3,-4.694322124E-4,-1.805197150E-1,1.805265743E-1
7.716332125E0,1.872789231E-3,-3.782361746E-4,-1.838793755E-1,1.838893013E-1
7.726287125E0,2.639247105E-3,3.328276798E-4,-1.832950711E-1,1.833143734E-1
7.736243125E0,1.340494491E-3,1.108273864E-6,-1.833338141E-1,1.833387148E-1
7.746199125E0,1.336499699E-3,-1.251642592E-3,-1.804016680E-1,1.804109604E-1
7.756155125E0,-1.261901460E-3,-2.689215355E-3,-1.756844074E-1,1.757095196E-1
7.766111125E0,1.317306887E-4,-1.264424063E-3,-1.745240539E-1,1.745286840E-1
7.776067125E0,1.107399468E-3,-9.215781465E-4,-1.759382635E-1,1.759441622E-1
7.786023125E0,1.930848928E-3,-1.596955582E-3,-1.784285903E-1,1.784461831E-1
7.795979125E0,1.433047932E-3,-2.337926999E-4,-1.839884371E-1,1.839941664E-1
7.805935125E0,1.320662675E-3,-1.598662697E-3,-1.859509200E-1,1.859624815E-1
7.815891125E0,-3.008614061E-3,3.990400583E-4,-1.856145263E-1,1.856393368E-1
7.825847125E0,1.397852320E-3,-1.035870984E-3,-1.842949390E-1,1.843031513E-1
7.835803125E0,7.850258844E-4,1.217631623E-3,-1.841729581E-1,1.841786562E-1
7.845759125E0,1.658542664E-3,-1.499325037E-3,-1.832552403E-1,1.832688785E-1
7.855715125E0,1.200007973E-3,-1.126348041E-3,-1.817784607E-1,1.817859111E-1
7.865671125E0,3.673818428E-3,-2.128762193E-3,-1.848011613E-1,1.848499331E-1
7.875627125E0,3.799254075E-3,1.298990101E-4,-1.840854883E-1,1.841247355E-1
7.885582125E0,2.620434971E-4,-1.298620366E-3,-1.834623069E-1,1.834670900E-1
7.895538125E0,-8.887867443E-5,1.137534156E-3,-1.786074936E-1,1.786111381E-1
7.905494125E0,4.528083082E-4,1.264034770E-3,-1.763403565E-1,1.763454682E-1
7.915450125E0,-1.203582971E-3,-5.007358268E-4,-1.752591580E-1,1.752640060E-1
7.925406125E0,5.173517275E-4,-4.509342834E-4,-1.807101071E-1,1.807114103E-1
7.935361833E0,8.881064714E-4,-7.575741038E-4,-1.812915653E-1,1.812953234E-1
7.945317833E0,2.216491150E-3,9.108958766E-4,-1.857616901E-1,1.857771463E-1
7.955273833E0,3.346930491E-3,1.355204731E-4,-1.851434708E-1,1.851737699E-1
7.965229833E0,1.067264704E-3,2.139282413E-3,-1.835567653E-1,1.835723336E-1
7.975185833E0,3.786158981E-3,-1.257478260E-3,-1.792637855E-1,1.793081734E-1
7.985141833E0,-2.218985464E-4,-2.928813919E-4,-1.765407026E-1,1.765410850E-1
7.995097833E0,1.114542363E-3,4.527019337E-4,-1.792147607E-1,1.792187981E-1
8.005053833E0,7.830641698E-5,-1.260509714E-3,-1.837605089E-1,1.837648488E-1
8.015009833E0,1.693820581E-3,4.785470665E-4,-1.888454705E-1,1.888536729E-1
8.024965833E0,-5.081621930E-5,2.713529393E-4,-1.872624755E-1,1.872626790E-1
8.034921833E0,-4.875099403E-4,-4.576891661E-4,-1.856906563E-1,1.856918603E-1
8.044877833E0,4.272858787E-4,7.733982056E-5,-1.773906499E-1,1.773911814E-1
8.054832833E0,2.941119252E-3,-1.435678452E-3,-1.757599711E-1,1.757904400E-1
8.064788833E0,1.320585841E-3,-2.115850337E-3,-1.765858233E-1,1.766034364E-1
8.074744833E0,1.794880023E-3,-2.741040662E-3,-1.794203818E-1,1.794502948E-1
8.084700833E0,1.705930568E-3,-2.223854885E-3,-1.814126968E-1,1.814343471E-1
8.094656833E0,-8.455879288E-5,-8.464325219E-4,-1.804379225E-1,1.804399276E-1
8.104612833E0,5.279682809E-4,-1.298903488E-3,-1.778272241E-1,1.778327516E-1
8.114568833E0,-9.163467330E-4,7.808394730E-5,-1.738574803E-1,1.738599127E-1
8.124524833E0,7.830163231E-4,-8.782576770E-4,-1.773981601E-1,1.774020622E-1
8.134480833E0,3.321232507E-3,-1.444251277E-3,-1.800534725E-1,1.800898926E-1
8.144436833E0,1.212807721E-3,-1.963834278E-3,-1.803711802E-1,1.803859479E-1
8.154392833E0,-6.562698400E-4,2.165166661E-4,-1.844852418E-1,1.844865361E-1
8.164348833E0,3.165632486E-3,-1.081241295E-3,-1.823970675E-1,1.824277407E-1
8.174304833E0,-7.918517804E-4,7.537780330E-4,-1.788344532E-1,1.788377949E-1
8.184260833E0,1.636951114E-3,-2.150796354E-4,-1.822259873E-1,1.822334665E-1
8.194216833E0,2.051572665E-5,3.050323576E-4,-1.825492680E-1,1.825495240E-1
8.204172833E0,8.761893841E-4,-2.907160670E-4,-1.858867407E-1,1.858890330E-1
8.214128833E0,2.032578923E-3,1.595501788E-3,-1.861019284E-1,1.861198666E-1
8.224083833E0,3.254703479E-3,1.793907955E-3,-1.837125272E-1,1.837501125E-1
8.234039833E0,1.954865875E-4,-1.237045974E-3,-1.795732081E-1,1.795775753E-1
8.243995833E0,-2.351465519E-4,-9.337114170E-4,-1.748412997E-1,1.748439509E-1
8.253951833E0,1.436686434E-4,9.486535564E-4,-1.760658324E-1,1.760684467E-1
8.263907833E0,1.646756660E-3,-3.616803326E-3,-1.785873175E-1,1.786315287E-1
8.273863833E0,1.051230356E-3,6.885500625E-4,-1.871058643E-1,1.871100843E-1
8.283819833E0,1.489853021E-3,9.034667164E-4,-1.895477176E-1,1.895557257E-1
8.293775833E0,1.640381757E-3,-4.506390542E-4,-1.866367012E-1,1.866444539E-1
8.303731833E0,9.082788019E-4,6.338004023E-4,-1.775947362E-1,1.775981898E-1
8.313687833E0,2.917011036E-3,-1.305820420E-3,-1.734570265E-1,1.734864668E-1
8.323643833E0,3.856574185E-3,-2.742595971E-3,-1.753617227E-1,1.754255648E-1
8.333599833E0,-2.468424500E-4,-8.966214955E-4,-1.829438508E-1,1.829462145E-1
8.343555833E0,3.507682122E-3,-7.823202759E-5,-1.878107786E-1,1.878435480E-1
8.353511833E0,2.330616117E-3,1.550560817E-3,-1.866046339E-1,1.866256290E-1
8.363467833E0,9.359185351E-4,-2.061948180E-6,-1.778119355E-1,1.778143987E-1
8.373423833E0,2.544814488E-3,-1.406940632E-3,-1.764091253E-1,1.764330895E-1
8.383379833E0,-2.681372687E-3,-1.117866486E-5,-1.769305766E-1,1.769508938E-1
8.393334833E0,1.132059610E-3,-3.105802462E-4,-1.844052225E-1,1.844089589E-1
8.403290833E0,2.099586185E-3,6.484240294E-4,-1.939297467E-1,1.939421960E-1
8.413246833E0,3.341690637E-3,-1.808354631E-3,-1.960494667E-1,1.960862832E-1
8.423202833E0,1.316356589E-3,8.774427697E-4,-1.900070161E-1,1.900136018E-1
8.433158833E0,1.617634902E-3,-1.229211688E-3,-1.804557294E-1,1.804671659E-1
8.443114833E0,1.433876809E-3,-1.347722486E-3,-1.733485609E-1,1.733597299E-1
8.453070833E0,-5.744636874E-4,1.143706031E-3,-1.748526245E-1,1.748573086E-1
8.463026833E0,2.271477570E-4,5.703270435E-4,-1.828160137E-1,1.828170444E-1
8.472982833E0,2.545503899E-3,9.176591411E-4,-1.906118244E-1,1.906310292E-1
8.482938833E0,1.866397681E-3,2.149903215E-3,-1.851318330E-1,1.851537229E-1
8.492894833E0,-9.177478496E-4,-5.466500297E-4,-1.803551316E-1,1.803582950E-1
8.502850833E0,1.709726872E-3,-2.387160435E-3,-1.762237698E-1,1.762482305E-1
8.512806833E0,1.054529333E-3,2.708015963E-4,-1.739844382E-1,1.739878447E-1
8.522762833E0,5.959330592E-4,-1.089541242E-3,-1.793118268E-1,1.793161272E-1
8.532718833E0,5.919535761E-4,1.132739708E-4,-1.823273897E-1,1.823283858E-1
8.542674833E0,4.084156826E-3,6.975717843E-4,-1.847375482E-1,1.847840055E-1
8.552630833E0,1.932281069E-3,6.548156962E-4,-1.813486069E-1,1.813600831E-1
8.562585833E0,2.113908529E-3,2.276450396E-4,-1.821062714E-1,1.821186825E-1
8.572541833E0,1.230573514E-3,-6.372099742E-4,-1.821267605E-1,1.821320324E-1
8.582497833E0,2.794115338E-3,-2.965908498E-4,-1.824508607E-1,1.824724955E-1
8.592453833E0,-5.895986105E-4,-3.220709041E-4,-1.812806576E-1,1.812819026E-1
8.602409833E0,2.550801029E-3,4.997290671E-5,-1.777423769E-1,1.777606864E-1
8.612365833E0,7.444401854E-5,1.223357394E-4,-1.776829511E-1,1.776830088E-1
8.622321833E0,1.646507997E-3,-3.410540521E-4,-1.804470420E-1,1.804548760E-1
8.632277833E0,2.941301093E-3,-1.641865820E-4,-1.882368475E-1,1.882598974E-1
8.642233833E0,2.989770379E-3,5.942815915E-4,-1.918350458E-1,1.918592627E-1
8.652189833E0,6.549815647E-3,-2.193204127E-3,-1.926834434E-1,1.928072084E-1
8.662145833E0,-3.783977591E-4,2.007111907E-4,-1.814031005E-1,1.814036062E-1
8.672101833E0,4.315602710E-4,-1.716831699E-3,-1.698690355E-1,1.698782593E-1
8.682057833E0,1.186300069E-3,-3.727339208E-4,-1.696509272E-1,1.696554842E-1
8.692013833E0,1.109465724E-3,-2.837547101E-3,-1.800207943E-1,1.800465744E-1
8.701969833E0,2.110015135E-3,1.158791594E-3,-1.901501417E-1,1.901653790E-1
8.711925833E0,2.744644880E-3,7.777689025E-4,-1.953464299E-1,1.953672585E-1
8.721881833E0,3.012558911E-3,4.089213908E-4,-1.892845482E-1,1.893089615E-1
8.731836833E0,1.913923305E-3,8.448027074E-4,-1.775494516E-1,1.775617767E-1
8.741792833E0,6.364049041E-4,-5.075503141E-4,-1.687636971E-1,1.687656603E-1
8.751748833E0,2.980298130E-3,-8.620088920E-4,-1.689628363E-1,1.689913172E-1
8.761704833E0,2.142467536E-3,-1.653234474E-3,-1.779001355E-1,1.779207171E-1
8.771660833E0,3.156685270E-3,-3.170836717E-4,-1.866670251E-1,1.866939835E-1
8.781616833E0,3.236146295E-4,1.375888474E-3,-1.906045079E-1,1.906097485E-1
8.791572833E0,3.562215716E-3,9.800512344E-4,-1.862812489E-1,1.863178832E-1
8.801528833E0,3.336656955E-4,-1.693761908E-3,-1.805685014E-1,1.805767533E-1
8.811484833E0,-7.667783648E-4,-2.697100863E-4,-1.739355922E-1,1.739374914E-1
8.821440833E0,2.119289245E-3,-8.454853669E-4,-1.756980717E-1,1.757128869E-1
8.831396833E0,1.375414897E-3,-1.431459561E-3,-1.820926219E-1,1.821034426E-1
8.841352833E0,2.583424794E-3,6.553931162E-4,-1.839009076E-1,1.839202203E-1
8.851308833E0,2.691920381E-3,4.919432104E-4,-1.896022111E-1,1.896219579E-1
8.861264833E0,3.496702411E-4,-3.256471828E-4,-1.867598295E-1,1.867604408E-1
8.871220833E0,2.101604128E-3,8.526071906E-4,-1.785004437E-1,1.785148511E-1
8.881176833E0,7.467225078E-5,3.031967208E-4,-1.731064767E-1,1.731067583E-1
8.891132833E0,2.831739839E-3,-2.067822032E-3,-1.727183610E-1,1.727539489E-1
8.901087833E0,2.906841226E-3,-8.813841268E-4,-1.777173877E-1,1.777433443E-1
8.911043833E0,1.263397280E-3,-1.161115244E-3,-1.832483709E-1,1.832564045E-1
8.920999833E0,2.223999705E-3,4.247976467E-4,-1.885192990E-1,1.885328956E-1
8.930955833E0,1.962438691E-4,-1.143928617E-3,-1.907985508E-1,1.908020809E-1
8.940911750E0,-4.290663637E-4,-1.540323719E-4,-1.840181500E-1,1.840187147E-1
8.950867750E0,3.061829135E-3,4.098005593E-5,-1.748489738E-1,1.748757848E-1
8.960823750E0,3.406112082E-4,-3.140186891E-4,-1.723471880E-1,1.723478106E-1
8.970779750E0,3.484683111E-3,-1.022080891E-3,-1.745438874E-1,1.745816608E-1
8.980735750E0,-5.183144240E-4,-1.324350014E-3,-1.814971268E-1,1.815026986E-1
8.990691750E0,-3.405165044E-4,-3.414796665E-4,-1.930455863E-1,1.930461887E-1
9.000647750E0,1.684284885E-3,1.202620566E-3,-1.910780370E-1,1.910892445E-1
9.010603750E0,3.387113102E-3,-1.555574127E-3,-1.851750165E-1,1.852125241E-1
9.020559750E0,-4.249355407E-4,1.240212470E-3,-1.768414527E-1,1.768463121E-1
9.030515750E0,2.063973341E-3,-1.464948989E-3,-1.733276248E-1,1.733461034E-1
9.040471750E0,1.773156109E-3,-1.187212765E-4,-1.787623465E-1,1.787711797E-1
9.050427750E0,3.508731490E-3,3.853701055E-4,-1.879661381E-1,1.879992787E-1
9.060383750E0,1.990729943E-3,1.786725596E-3,-1.916295737E-1,1.916482427E-1
9.070339750E0,1.765811234E-3,6.079878658E-4,-1.849398017E-1,1.849492308E-1
9.080295750E0,-9.175898740E-4,2.247962169E-3,-1.777982563E-1,1.778148341E-1
9.090250750E0,-1.273920061E-4,-2.821434289E-3,-1.693943143E-1,1.694178575E-1
9.100206750E0,2.406339627E-3,-9.284606203E-4,-1.727813184E-1,1.728005686E-1
9.110162750E0,-1.162124099E-3,-4.668617621E-4,-1.843051016E-1,1.843093567E-1
9.120118750E0,3.782482527E-4,-7.888386026E-4,-1.947404295E-1,1.947423945E-1
9.130074750E0,7.095571491E-4,-3.290977329E-4,-1.945411116E-1,1.945426839E-1
9.140030750E0,-2.398618264E-3,7.516127080E-4,-1.837033778E-1,1.837205740E-1
9.149986750E0,7.535013137E-4,1.036990434E-4,-1.733071506E-1,1.733088196E-1
9.159942750E0,-3.051051754E-4,-1.303249039E-3,-1.656239331E-1,1.656293415E-1
9.169898750E0,-1.497790334E-3,-2.162020653E-3,-1.690016389E-1,1.690221040E-1
9.179854750E0,5.198204890E-4,-6.448179483E-4,-1.838514209E-1,1.838532865E-1
9.189810750E0,2.614537254E-3,2.547604032E-3,-1.956977248E-1,1.957317695E-1
9.199766750E0,3.461688757E-3,2.161446027E-3,-1.949011832E-1,1.949439057E-1
9.209722750E0,7.400820032E-4,-6.466824561E-5,-1.851815432E-1,1.851830334E-1
9.219678750E0,5.818902282E-4,4.112385213E-4,-1.756391674E-1,1.756406128E-1
9.229634750E0,1.404074603E-3,-3.004521132E-4,-1.684447825E-1,1.684509022E-1
9.239590750E0,2.491443185E-3,-3.706570715E-5,-1.726927906E-1,1.727107657E-1
9.249546750E0,1.033138367E-3,-1.640227623E-3,-1.789712608E-1,1.789817586E-1
9.259501750E0,6.614456652E-5,-2.053156495E-4,-1.864376962E-1,1.864378210E-1
9.269457750E0,2.944056178E-3,2.911929041E-4,-1.892360151E-1,1.892591389E-1
9.279413750E0,3.273489187E-3,-2.758925781E-3,-1.843328774E-1,1.843825835E-1
9.289369750E0,1.413730904E-3,-2.251978964E-3,-1.777122319E-1,1.777321226E-1
9.299325750E0,1.062460011E-3,-3.012130037E-4,-1.759420335E-1,1.759454993E-1
9.309281750E0,1.547127031E-3,1.405021176E-4,-1.785588413E-1,1.785655991E-1
9.319237750E0,9.537747828E-4,-1.401734538E-3,-1.816712767E-1,1.816791879E-1
9.329193750E0,3.568233689E-3,1.119596884E-3,-1.843015701E-1,1.843395088E-1
9.339149750E0,1.687085605E-4,-2.814922482E-4,-1.815105677E-1,1.815108643E-1
9.349105750E0,1.225656830E-3,2.384465188E-5,-1.831615716E-1,1.831656740E-1
9.359061750E0,1.022723969E-3,-1.238493249E-3,-1.841762364E-1,1.841832400E-1
9.369017750E0,-2.052311786E-3,6.688870490E-4,-1.829524040E-1,1.829651375E-1
9.378973750E0,1.706207404E-3,1.389272511E-3,-1.827553362E-1,1.827685808E-1
9.388929750E0,4.510325962E-4,8.289702237E-6,-1.843710691E-1,1.843716209E-1
9.398885750E0,1.448386465E-3,-4.066303372E-4,-1.815220267E-1,1.815282604E-1
9.408841750E0,-2.756217960E-3,5.137929693E-4,-1.833623350E-1,1.833837687E-1
9.418797750E0,1.893128501E-3,-6.422856823E-4,-1.846449226E-1,1.846557443E-1
9.428753750E0,-4.697643453E-4,-2.256007865E-4,-1.867239475E-1,1.867246747E-1
9.438708750E0,6.064190529E-4,7.856013253E-4,-1.815672666E-1,1.815699788E-1
9.448664750E0,1.296121394E-3,3.197668120E-4,-1.740772426E-1,1.740823615E-1
9.458620750E0,1.192704658E-4,-4.115374759E-4,-1.665096134E-1,1.665101647E-1
9.468576750E0,3.455594124E-4,4.388485104E-4,-1.706848443E-1,1.706857582E-1
9.478532750E0,3.468909999E-4,3.099516034E-4,-1.772236973E-1,1.772243078E-1
9.488488750E0,1.424034592E-3,6.034122780E-4,-1.915420741E-1,1.915483180E-1
9.498444750E0,-4.630814074E-4,6.446912885E-4,-1.940121651E-1,1.940137889E-1
9.508400750E0,1.400718116E-3,1.573021524E-3,-1.841828972E-1,1.841949403E-1
9.518356750E0,8.671448450E-5,-1.782828011E-3,-1.744434386E-1,1.744525703E-1
9.528312750E0,3.623939119E-3,-1.527657732E-3,-1.684878618E-1,1.685337540E-1
9.538268750E0,1.533091418E-3,-1.107144170E-3,-1.730650365E-1,1.730753680E-1
9.548224750E0,9.610204143E-5,5.549779162E-4,-1.816383302E-1,1.816392035E-1
9.558180750E0,2.386953216E-3,4.524458200E-4,-1.914377064E-1,1.914531213E-1
9.568136750E0,2.143184887E-3,-6.419578567E-4,-1.906864345E-1,1.906995586E-1
9.578092750E0,-8.126575267E-4,-1.312275417E-3,-1.875593513E-1,1.875657025E-1
9.588048750E0,2.151174005E-3,4.011578858E-5,-1.834388822E-1,1.834514995E-1
9.598004750E0,-1.076577348E-3,1.317900605E-3,-1.750507206E-1,1.750589919E-1
9.607960750E0,-3.235311015E-4,-6.021633744E-4,-1.719334871E-1,1.719348459E-1
9.617916750E0,-8.204769110E-4,-1.956380904E-3,-1.780086905E-1,1.780213316E-1
9.627871750E0,1.645990764E-3,1.044039614E-3,-1.837548912E-1,1.837652288E-1
9.637827750E0,2.892083954E-3,8.043553680E-4,-1.868880987E-1,1.869122055E-1
9.647783750E0,1.598713105E-3,-4.368629307E-4,-1.868250370E-1,1.868323879E-1
9.657739750E0,2.006176859E-3,-8.094124496E-6,-1.869411469E-1,1.869519115E-1
9.667695750E0,1.352041960E-3,-2.247914672E-4,-1.826798767E-1,1.826850183E-1
9.677651750E0,3.429702192E-4,-6.200047210E-4,-1.789439917E-1,1.789453944E-1
9.687607750E0,1.683531096E-3,1.234334894E-3,-1.763626337E-1,1.763749881E-1
9.697563750E0,2.313901205E-3,1.294522546E-3,-1.754656881E-1,1.754857192E-1
9.707519750E0,1.623922959E-3,-2.972114831E-3,-1.790855527E-1,1.791175753E-1
9.717475750E0,2.436986193E-3,-3.840550780E-4,-1.868204474E-1,1.868367362E-1
9.727431750E0,2.833802253E-3,-2.398528159E-5,-1.910063773E-1,1.910273991E-1
9.737387750E0,3.109899408E-4,1.356064342E-3,-1.861463636E-1,1.861515627E-1
9.747343750E0,1.311870990E-3,6.704395637E-4,-1.842728257E-1,1.842787150E-1
9.757299750E0,2.666621003E-3,-1.508292742E-3,-1.758511066E-1,1.758777914E-1
9.767255750E0,2.010488883E-3,1.731412485E-3,-1.716224700E-1,1.716429785E-1
9.777211750E0,1.843775040E-3,-3.376531415E-3,-1.760683507E-1,1.761103761E-1
9.787167750E0,7.988235448E-4,1.175427809E-3,-1.794802547E-1,1.794858812E-1
9.797123750E0,6.925633643E-4,1.028421335E-3,-1.835916489E-1,1.835958356E-1
9.807078750E0,3.273343667E-3,-2.218279988E-4,-1.818285435E-1,1.818581404E-1
9.817034750E0,2.066931687E-3,-6.801579148E-4,-1.812170744E-1,1.812301379E-1
9.826990750E0,9.609587723E-4,-2.808116376E-3,-1.735613644E-1,1.735867396E-1
9.836946750E0,1.627814258E-3,6.257640198E-4,-1.749656498E-1,1.749743409E-1
9.846902750E0,-7.490019198E-5,-2.465561032E-3,-1.761831641E-1,1.762004311E-1
9.856858750E0,3.032686946E-4,-8.815713227E-5,-1.826612949E-1,1.826615680E-1
9.866814750E0,-2.574510290E-4,-1.841917634E-3,-1.852726638E-1,1.852819983E-1
9.876770750E0,4.589392920E-4,1.843631268E-3,-1.848699898E-1,1.848797520E-1
9.886726750E0,1.086391159E-3,-3.176890314E-4,-1.859377474E-1,1.859411925E-1
9.896682750E0,8.799961652E-4,-9.680334479E-4,-1.813507080E-1,1.813554267E-1
9.906638750E0,2.966960659E-3,6.333012134E-4,-1.802300662E-1,1.802555982E-1
9.916594750E0,5.264736246E-3,1.256480813E-3,-1.785384268E-1,1.786204524E-1
9.926550750E0,5.037864321E-5,-1.470452175E-3,-1.809099466E-1,1.809159295E-1
9.936506958E0,2.679717727E-3,-1.474980265E-3,-1.873217672E-1,1.873467398E-1
9.946462958E0,-6.141114281E-4,-9.443126619E-4,-1.872976124E-1,1.873009997E-1
9.956418958E0,1.073267427E-3,-7.517663762E-4,-1.907911450E-1,1.907956447E-1
9.966374958E0,2.142926212E-3,6.410283968E-4,-1.862755269E-1,1.862889556E-1
9.976330958E0,1.556754723E-4,1.233847812E-3,-1.789089590E-1,1.789132813E-1
9.986286958E0,-1.237386023E-4,-5.186935887E-4,-1.732475609E-1,1.732483815E-1
9.996241958E0,-5.359959323E-4,-2.678232267E-4,-1.740228087E-1,1.740238402E-1
1.000619796E1,-1.937079942E-4,-9.302077815E-4,-1.808066964E-1,1.808091930E-1
1.001615396E1,1.305651618E-3,-1.589572057E-4,-1.856003851E-1,1.856050455E-1
1.002610996E1,9.226843249E-4,-4.334487021E-4,-1.872140020E-1,1.872167775E-1
1.003606596E1,5.423849216E-4,-9.232042357E-4,-1.872912347E-1,1.872942954E-1
1.004602196E1,7.058959454E-4,-1.171885990E-3,-1.807325184E-1,1.807376962E-1
1.005597796E1,-1.182817854E-3,-5.761999637E-5,-1.752501428E-1,1.752541438E-1
1.006593396E1,1.038454066E-4,8.049281314E-4,-1.795170307E-1,1.795188653E-1
1.007588996E1,1.014485606E-4,-1.535434276E-4,-1.808336973E-1,1.808337910E-1
1.008584596E1,2.414293558E-4,5.907900631E-4,-1.888979673E-1,1.888990455E-1
1.009580196E1,6.400788203E-3,-2.792490646E-3,-1.919336915E-1,1.920606936E-1
1.010575796E1,3.911249805E-3,-1.805635169E-3,-1.884555668E-1,1.885047979E-1
1.011571396E1,3.751044278E-4,8.508674800E-4,-1.788303703E-1,1.788327879E-1
1.012566996E1,4.600310232E-3,-2.574883401E-3,-1.721525490E-1,1.722332518E-1
1.013562596E1,-5.441180547E-4,2.709701657E-4,-1.725722551E-1,1.725733257E-1
1.014558196E1,-8.745460073E-4,-2.974772826E-3,-1.834652424E-1,1.834914419E-1
1.015553796E1,3.658420406E-3,-4.884451628E-4,-1.921681911E-1,1.922036323E-1
1.016549396E1,1.248877496E-3,3.872113302E-4,-1.969218105E-1,1.969261513E-1
1.017544896E1,5.892125773E-4,-1.053825021E-3,-1.894236803E-1,1.894275280E-1
1.018540496E1,7.017054595E-4,-1.377883367E-3,-1.772335768E-1,1.772403218E-1
1.019536096E1,3.008996719E-4,7.646298036E-4,-1.735717356E-1,1.735736806E-1
1.020531696E1,-6.764389109E-4,-7.946370170E-4,-1.759330183E-1,1.759361133E-1
1.021527296E1,9.661988006E-4,1.807271503E-3,-1.799517274E-1,1.799633962E-1
1.022522896E1,2.012033481E-3,8.464455605E-4,-1.833386421E-1,1.833516361E-1
1.023518496E1,1.610695035E-3,-8.702278137E-4,-1.865245849E-1,1.865335691E-1
1.024514096E1,4.320615553E-4,-4.442036152E-4,-1.817543805E-1,1.817554368E-1
1.025509696E1,1.013429603E-3,-1.368746161E-4,-1.788430065E-1,1.788459302E-1
1.026505296E1,2.530537546E-3,-1.669114456E-3,-1.789804846E-1,1.790061547E-1
1.027500896E1,8.439576486E-4,-4.025148228E-4,-1.783114970E-1,1.783139485E-1
1.028496496E1,-8.553912630E-4,-2.746153623E-3,-1.858679652E-1,1.858902191E-1
1.029492096E1,1.471678959E-3,-7.708864287E-4,-1.829217076E-1,1.829292520E-1
1.030487696E1,4.748331849E-4,-1.092871651E-3,-1.845058054E-1,1.845096530E-1
1.031483296E1,7.603240665E-4,-4.752846435E-4,-1.827766150E-1,1.827788144E-1
1.032478896E1,1.594981528E-3,9.480603039E-4,-1.803913116E-1,1.804008539E-1
1.033474496E1,2.859450411E-3,-2.765452489E-3,-1.815543175E-1,1.815978920E-1
1.034470096E1,3.007663880E-3,1.344931312E-3,-1.805395186E-1,1.805695784E-1
1.035465696E1,1.360764843E-3,-2.523043193E-3,-1.795727909E-1,1.795956699E-1
1.036461196E1,4.885631148E-3,-1.077280380E-3,-1.810831875E-1,1.811522860E-1
1.037456796E1,8.352294681E-4,-2.491951920E-3,-1.812269986E-1,1.812460550E-1
1.038452396E1,-8.534422377E-4,7.526949048E-5,-1.867236942E-1,1.867256597E-1
1.039447996E1,2.738895826E-3,6.301887333E-5,-1.835212409E-1,1.835416885E-1
1.040443596E1,1.254881732E-3,1.637244597E-3,-1.822680980E-1,1.822797708E-1
1.041439196E1,1.417068299E-3,-6.970167160E-4,-1.738671511E-1,1.738743229E-1
1.042434796E1,1.170563977E-3,4.777414724E-4,-1.748569757E-1,1.748615464E-1
1.043430396E1,2.123442944E-3,-4.048300907E-4,-1.788333356E-1,1.788464001E-1
1.044425996E1,1.205112319E-3,-6.201630458E-4,-1.828056425E-1,1.828106666E-1
1.045421596E1,2.562259324E-3,-3.786142915E-4,-1.873977333E-1,1.874156316E-1
1.046417196E1,2.377617348E-4,2.024939284E-3,-1.877381802E-1,1.877492509E-1
1.047412796E1,-8.059310494E-4,1.184179448E-3,-1.831886917E-1,1.831942919E-1
1.048408396E1,2.649030881E-3,-1.364271156E-3,-1.778528690E-1,1.778778278E-1
1.049403996E1,-3.150002332E-3,-1.648430713E-3,-1.711462289E-1,1.711831519E-1
1.050399596E1,1.436045743E-3,-1.169621013E-3,-1.790950149E-1,1.791045913E-1
1.051395196E1,2.068280242E-3,-3.035608679E-4,-1.821901351E-1,1.822021275E-1
1.052390796E1,-4.716205876E-4,-1.676495187E-3,-1.882591546E-1,1.882672099E-1
1.053386396E1,1.344388933E-3,9.834701195E-4,-1.890016496E-1,1.890089896E-1
1.054381996E1,5.646490026E-4,-1.225967892E-3,-1.858755201E-1,1.858804207E-1
1.055377496E1,3.175076272E-4,1.252901740E-3,-1.772679090E-1,1.772726210E-1
1.056373096E1,2.197589260E-3,-6.184140220E-4,-1.742588580E-1,1.742738116E-1
1.057368696E1,3.001597710E-3,-1.091124490E-3,-1.759542376E-1,1.759832204E-1
1.058364296E1,1.400285400E-3,-2.551553771E-4,-1.831770241E-1,1.831825539E-1
1.059359896E1,7.589536835E-5,5.483627319E-5,-1.836518645E-1,1.836518884E-1
1.060355496E1,3.072760534E-3,1.161928289E-3,-1.846647561E-1,1.846939741E-1
1.061351096E1,8.868378936E-4,1.434103586E-3,-1.803983599E-1,1.804062399E-1
1.062346696E1,2.737262985E-3,1.592795365E-3,-1.769396961E-1,1.769680357E-1
1.063342296E1,1.054145163E-3,1.586137339E-3,-1.731404215E-1,1.731508955E-1
1.064337896E1,2.235621447E-3,-1.240652986E-3,-1.749782413E-1,1.749969204E-1
1.065333496E1,1.965843141E-3,-1.195378602E-3,-1.810547858E-1,1.810694037E-1
1.066329096E1,7.139951922E-4,-1.460934989E-3,-1.862381250E-1,1.862452236E-1
1.067324696E1,1.353420201E-3,1.197698526E-3,-1.869566590E-1,1.869653940E-1
1.068320296E1,2.371991286E-5,2.173501998E-3,-1.816129088E-1,1.816259159E-1
1.069315896E1,3.181163687E-3,-2.124235034E-4,-1.779670417E-1,1.779955979E-1
1.070311496E1,8.449273882E-4,-3.264872357E-4,-1.731203347E-1,1.731227045E-1
1.071307096E1,2.409800887E-3,-3.513786942E-5,-1.784562469E-1,1.784725201E-1
1.072302696E1,-1.907487167E-4,3.413194790E-4,-1.816276908E-1,1.816281117E-1
1.073298296E1,2.303035231E-3,1.983074471E-4,-1.833923012E-1,1.834068686E-1
1.074293896E1,7.946025580E-4,8.281776682E-4,-1.849445999E-1,1.849481611E-1
1.075289396E1,2.299022395E-3,-2.563358285E-3,-1.829075515E-1,1.829399593E-1
1.076284996E1,8.590563084E-4,-4.434902221E-4,-1.808000654E-1,1.808026502E-1
1.077280596E1,3.306851722E-4,-1.204355620E-3,-1.778817624E-1,1.778861468E-1
1.078276196E1,4.609540920E-4,-1.014843583E-3,-1.746005267E-1,1.746040845E-1
1.079271796E1,7.009048713E-4,-2.229777165E-3,-1.752775013E-1,1.752930850E-1
1.080267396E1,8.368928684E-4,-1.288407482E-3,-1.824781299E-1,1.824845973E-1
1.081262996E1,3.122417722E-3,-2.307066694E-3,-1.891829073E-1,1.892227377E-1
1.082258596E1,6.820347044E-4,7.162326947E-4,-1.874145269E-1,1.874171365E-1
1.083254196E1,1.078046742E-3,-1.575509086E-4,-1.851409823E-1,1.851441879E-1
1.084249796E1,4.536143970E-4,-2.239095047E-4,-1.799882054E-1,1.799889163E-1
1.085245396E1,2.257373417E-3,-7.714554667E-4,-1.737923622E-1,1.738087341E-1
1.086240996E1,1.595169451E-4,-8.382126689E-4,-1.708112210E-1,1.708133521E-1
1.087236596E1,-8.756538155E-4,-7.226318121E-4,-1.734078079E-1,1.734115245E-1
1.088232196E1,1.614602166E-3,1.079247333E-3,-1.792482585E-1,1.792587791E-1
1.089227796E1,3.733945545E-3,1.773000695E-3,-1.822573692E-1,1.823042361E-1
1.090223396E1,2.246612217E-3,2.816262655E-3,-1.873174906E-1,1.873521307E-1
1.091218996E1,1.090001431E-3,-2.538291737E-4,-1.875406653E-1,1.875440046E-1
1.092214596E1,9.361605626E-4,-2.146564424E-3,-1.847606748E-1,1.847755154E-1
1.093210196E1,2.825939562E-3,-2.762553282E-3,-1.804756373E-1,1.805189001E-1
1.094205783E1,3.847506363E-3,5.626864731E-4,-1.768573225E-1,1.769000634E-1
1.095201283E1,1.756125945E-3,-5.393298343E-4,-1.751507670E-1,1.751604008E-1
1.096196883E1,4.688490881E-4,-3.062952310E-4,-1.744005084E-1,1.744014076E-1
1.097192483E1,1.646232558E-3,8.862679824E-4,-1.819282025E-1,1.819378092E-1
1.098188083E1,1.502960222E-3,-3.436068073E-4,-1.882878244E-1,1.882941363E-1
1.099183683E1,1.846954401E-4,-7.638530806E-4,-1.890846342E-1,1.890862673E-1
1.100179283E1,2.791492501E-3,1.601737924E-3,-1.862799972E-1,1.863077974E-1
1.101174883E1,2.141414909E-3,2.802768722E-4,-1.756542474E-1,1.756675236E-1
1.102170483E1,1.288817497E-3,-9.625721723E-4,-1.698591262E-1,1.698667429E-1
1.103166083E1,2.523151925E-4,-1.385215670E-3,-1.702181250E-1,1.702239483E-1
1.104161683E1,5.980691640E-4,1.176756807E-3,-1.799650043E-1,1.799698453E-1
1.105157283E1,-3.074056003E-4,1.061442308E-3,-1.850939989E-1,1.850972976E-1
1.106152883E1,1.736304373E-3,2.112104557E-3,-1.867022514E-1,1.867222708E-1
1.107148483E1,9.791676421E-4,1.684667543E-3,-1.815530211E-1,1.815634774E-1
1.108144083E1,3.798943071E-4,5.803070962E-4,-1.790137589E-1,1.790151026E-1
1.109139683E1,2.582594752E-3,-2.831734717E-3,-1.763748378E-1,1.764164729E-1
1.110135283E1,1.058351249E-3,-1.574440859E-3,-1.776883453E-1,1.776984722E-1
1.111130883E1,2.369691618E-3,-3.674970940E-4,-1.868016720E-1,1.868170633E-1
1.112126483E1,-7.027125685E-4,-1.891624182E-3,-1.927470714E-1,1.927576343E-1
1.113122083E1,-1.028949744E-3,-1.066310331E-3,-1.878537834E-1,1.878596276E-1
1.114117683E1,-1.083319075E-4,1.106903888E-3,-1.795511395E-1,1.795545841E-1
1.115113283E1,9.654546157E-4,5.375202745E-4,-1.749012619E-1,1.749047525E-1
1.116108783E1,9.694301407E-4,-2.500163391E-3,-1.662176847E-1,1.662393134E-1
1.117104383E1,-2.651403658E-3,-1.123309135E-3,-1.718004793E-1,1.718246096E-1
1.118099983E1,4.481682554E-4,-6.871419027E-4,-1.822446883E-1,1.822465347E-1
1.119095583E1,2.635954879E-3,1.671619713E-3,-1.853768378E-1,1.854031137E-1
1.120091183E1,1.980917063E-3,-6.642593071E-4,-1.867159158E-1,1.867276050E-1
1.121086783E1,-6.928966613E-4,2.280930988E-3,-1.785978079E-1,1.786137165E-1
1.122082383E1,2.149706474E-3,-1.795854419E-3,-1.760665625E-1,1.760888434E-1
1.123077983E1,-1.884183497E-3,-1.744722016E-3,-1.794732809E-1,1.794916510E-1
1.124073583E1,9.931154782E-4,1.275756396E-3,-1.863353550E-1,1.863423687E-1
1.125069183E1,1.314292662E-3,-1.216962002E-3,-1.876541525E-1,1.876627009E-1
1.126064783E1,3.045578953E-3,1.289760694E-4,-1.823954135E-1,1.824208844E-1
1.127060383E1,3.098842222E-3,1.491183415E-3,-1.777628362E-1,1.777960978E-1
1.128055983E1,1.079892274E-3,-1.840245910E-3,-1.748569757E-1,1.748699935E-1
1.129051583E1,2.003476489E-3,2.157691866E-3,-1.747003943E-1,1.747252051E-1
1.130047183E1,2.165836282E-3,-2.158617601E-3,-1.822578162E-1,1.822834662E-1
1.131042783E1,6.808575708E-4,-4.715053365E-4,-1.892086715E-1,1.892104839E-1
1.132038383E1,4.360713065E-4,2.862224355E-3,-1.868489087E-1,1.868713385E-1
1.133033983E1,3.796714358E-3,8.302321658E-4,-1.804208457E-1,1.804626995E-1
1.134029583E1,-1.101113157E-3,4.397425801E-5,-1.717936397E-1,1.717971740E-1
1.135025183E1,-2.699405886E-4,3.505041823E-4,-1.727092415E-1,1.727098081E-1
1.136020683E1,1.604378922E-3,1.038392074E-3,-1.800163090E-1,1.800264531E-1
1.137016283E1,-2.034031786E-3,1.190724783E-3,-1.846350282E-1,1.846500711E-1
1.138011883E1,7.213351200E-4,-5.552405491E-4,-1.872711331E-1,1.872733454E-1
1.139007483E1,2.480885480E-3,-1.040468924E-3,-1.846551001E-1,1.846746961E-1
1.140003083E1,-2.340534469E-3,-1.206976362E-3,-1.801440716E-1,1.801633187E-1
1.140998683E1,1.700812369E-3,-5.829976872E-4,-1.763858199E-1,1.763949832E-1
1.141994283E1,1.601832919E-3,-3.960002214E-4,-1.778391004E-1,1.778467551E-1
1.142989883E1,2.524351934E-3,2.255812287E-4,-1.835422665E-1,1.835597636E-1
1.143985483E1,1.021201839E-3,-8.446723223E-5,-1.836607903E-1,1.836636488E-1
1.144981083E1,1.603635144E-3,-2.538440749E-4,-1.820410490E-1,1.820482892E-1
1.145976683E1,8.381324005E-5,-5.778232589E-4,-1.812205762E-1,1.812215167E-1
1.146972283E1,1.021245960E-3,-1.064436510E-4,-1.820594668E-1,1.820623622E-1
1.147967883E1,9.739629459E-4,1.062393188E-3,-1.854744405E-1,1.854800403E-1
1.148963483E1,1.285020146E-3,-2.255113795E-4,-1.823143363E-1,1.823190044E-1
1.149959083E1,2.685806714E-3,-6.250785664E-4,-1.800750047E-1,1.800961177E-1
1.150954683E1,3.361450974E-3,-5.837995559E-4,-1.838782579E-1,1.839099070E-1
1.151950283E1,1.660627429E-3,5.856603384E-4,-1.874562502E-1,1.874645204E-1
1.152945883E1,-3.418033593E-4,-6.247460842E-4,-1.848271787E-1,1.848285506E-1
1.153941483E1,2.698502503E-3,-8.867969736E-4,-1.860895157E-1,1.861111930E-1
1.154937083E1,-6.639142521E-5,6.895279512E-4,-1.819837242E-1,1.819850426E-1
1.155932683E1,1.877759350E-3,9.029572830E-4,-1.741675436E-1,1.741800062E-1
1.156928283E1,-1.720437547E-3,5.652690306E-4,-1.729587466E-1,1.729682267E-1
1.157923783E1,-1.811471593E-4,-4.625422880E-4,-1.770856529E-1,1.770863497E-1
1.158919383E1,8.036898216E-4,-1.610098407E-3,-1.829755008E-1,1.829843497E-1
1.159914983E1,1.845605904E-3,6.126044318E-4,-1.877677739E-1,1.877778433E-1
1.160910583E1,2.512461506E-3,5.041062832E-5,-1.888626069E-1,1.888793247E-1
1.161906183E1,3.909067251E-3,-1.088682562E-3,-1.813730001E-1,1.814183872E-1
1.162901783E1,-6.201706710E-4,-5.869437009E-4,-1.750477254E-1,1.750498080E-1
1.163897383E1,3.649955324E-4,-2.305971459E-3,-1.724838465E-1,1.724996465E-1
1.164892983E1,1.559689641E-3,1.808889210E-4,-1.719205827E-1,1.719277525E-1
1.165888583E1,-4.755046102E-4,5.791522563E-5,-1.830852181E-1,1.830858447E-1
1.166884183E1,-2.350902651E-3,7.226401940E-4,-1.911812276E-1,1.911970469E-1
1.167879783E1,3.218380967E-3,3.634048626E-4,-1.878673881E-1,1.878953048E-1
1.168875383E1,2.067362890E-3,-7.050549611E-4,-1.840784997E-1,1.840914586E-1
1.169870983E1,8.838605718E-4,-1.377056353E-3,-1.781238765E-1,1.781313921E-1
1.170866583E1,6.044949987E-4,-6.095329300E-4,-1.754615009E-1,1.754636009E-1
1.171862183E1,-3.100624308E-4,-1.860356890E-3,-1.771879345E-1,1.771979718E-1
1.172857783E1,4.085218534E-3,-2.060011029E-4,-1.809094250E-1,1.809556617E-1
1.173853383E1,2.028125338E-3,1.514945179E-4,-1.838412881E-1,1.838525372E-1
1.174848983E1,1.562871272E-3,9.816009551E-4,-1.863688976E-1,1.863780354E-1
1.175844583E1,6.971186667E-5,-7.643233985E-4,-1.843865514E-1,1.843881487E-1
1.176840183E1,1.330984989E-3,-1.215463504E-3,-1.796349287E-1,1.796439715E-1
1.177835783E1,5.205277703E-4,-2.661583945E-3,-1.775279194E-1,1.775486332E-1
1.178831283E1,1.910964143E-3,-1.541991718E-3,-1.767143160E-1,1.767313753E-1
1.179826883E1,-4.473925219E-4,-1.029783860E-3,-1.822399795E-1,1.822434381E-1
1.180822483E1,6.180389028E-5,-2.821292728E-3,-1.846165806E-1,1.846381471E-1
1.181818083E1,8.800323121E-4,1.226595603E-3,-1.829247177E-1,1.829309469E-1
1.182813683E1,3.643860808E-3,-5.611842498E-4,-1.829612106E-1,1.829983531E-1
1.183809283E1,1.290296321E-3,1.657549292E-4,-1.797092110E-1,1.797139195E-1
1.184804883E1,1.882583369E-3,-1.046516001E-3,-1.793400943E-1,1.793530283E-1
1.185800483E1,8.703396888E-4,-1.310820691E-3,-1.831381619E-1,1.831449210E-1
1.186796083E1,2.074887510E-3,6.095841527E-4,-1.871262491E-1,1.871387449E-1
1.187791683E1,6.271831226E-4,-1.846973784E-3,-1.872055233E-1,1.872156847E-1
1.188787283E1,1.488715759E-3,-7.144454867E-5,-1.831751019E-1,1.831811653E-1
1.189782883E1,1.525784726E-3,-1.279918477E-3,-1.804244965E-1,1.804354875E-1
1.190778483E1,3.416362684E-3,-8.748508990E-4,-1.817387640E-1,1.817729772E-1
1.191774083E1,1.306188293E-3,-1.331185922E-4,-1.847459525E-1,1.847506179E-1
1.192769683E1,-1.359369606E-3,1.022160053E-3,-1.849427521E-1,1.849505725E-1
1.193765333E1,2.060252940E-3,5.229953676E-4,-1.819166243E-1,1.819290421E-1
1.194760933E1,2.205412457E-4,-6.815521047E-4,-1.792228371E-1,1.792242687E-1
1.195756533E1,2.408165950E-3,-8.574109524E-4,-1.833402812E-1,1.833581008E-1
1.196752133E1,3.724832786E-3,1.770064235E-3,-1.830667704E-1,1.831132162E-1
1.197747733E1,7.384831551E-4,9.795892984E-4,-1.831235588E-1,1.831276678E-1
1.198743333E1,3.379273694E-3,7.835812867E-4,-1.831999868E-1,1.832328264E-1
1.199738833E1,-1.019958640E-3,-1.294703223E-3,-1.778966635E-1,1.779042986E-1
1.200734433E1,3.702358576E-3,-5.934927613E-4,-1.740638465E-1,1.741042284E-1
1.201730033E1,3.146572271E-5,-1.031607389E-3,-1.778620631E-1,1.778650575E-1
1.202725633E1,4.121282138E-3,9.596375749E-4,-1.807318926E-1,1.807814229E-1
1.203721233E1,3.668041900E-4,-7.445486262E-4,-1.848013699E-1,1.848032338E-1
1.204716833E1,2.913584933E-3,3.513414413E-4,-1.815019846E-1,1.815257085E-1
1.205712433E1,1.568981912E-3,-1.314357854E-3,-1.850569993E-1,1.850683178E-1
1.206708033E1,2.240631264E-3,3.961911425E-4,-1.856431663E-1,1.856571103E-1
1.207703633E1,-1.038845628E-3,7.542138919E-4,-1.891044825E-1,1.891088400E-1
1.208699233E1,4.257116467E-3,2.073277719E-3,-1.903543025E-1,1.904131876E-1
1.209694833E1,7.851806004E-4,8.041560650E-4,-1.838870794E-1,1.838905140E-1
1.210690433E1,5.944982404E-4,1.289117150E-3,-1.773125380E-1,1.773182207E-1
1.211686033E1,1.397122280E-3,-5.983477458E-4,-1.756445318E-1,1.756511074E-1
1.212681633E1,-1.273761969E-3,1.554285176E-3,-1.776778549E-1,1.776892186E-1
1.213677233E1,-4.990804591E-4,1.273115166E-3,-1.859761178E-1,1.859811450E-1
1.214672833E1,2.793918364E-3,1.231627539E-4,-1.868195534E-1,1.868404846E-1
1.215668433E1,6.806033198E-4,1.222683117E-3,-1.866006404E-1,1.866058873E-1
1.216664033E1,3.947769292E-3,-2.909478731E-3,-1.793049127E-1,1.793719645E-1
1.217659633E1,1.544995233E-3,1.958915964E-4,-1.731577665E-1,1.731647697E-1
1.218655233E1,2.299735090E-3,-9.905463085E-4,-1.711268425E-1,1.711451612E-1
1.219650833E1,2.590533113E-3,-9.955512360E-4,-1.751980036E-1,1.752199831E-1
1.220646433E1,1.296236878E-3,1.156548969E-3,-1.877446920E-1,1.877527289E-1
1.221641933E1,3.682049573E-4,2.067685127E-3,-1.887799352E-1,1.887916175E-1
1.222637533E1,4.238044377E-3,4.639299586E-4,-1.844560206E-1,1.845052839E-1
1.223633133E1,1.826191088E-3,-1.149023883E-3,-1.733425409E-1,1.733559682E-1
1.224628733E1,4.132488742E-3,-2.744258381E-3,-1.731715649E-1,1.732426025E-1
1.225624333E1,9.909045184E-4,-1.682730392E-3,-1.763202697E-1,1.763310834E-1
1.226619933E1,3.825040534E-3,-2.073416486E-3,-1.885332614E-1,1.885834581E-1
1.227615533E1,1.839336037E-4,-3.116531298E-4,-1.907812953E-1,1.907816385E-1
1.228611133E1,1.680363785E-3,-1.454415731E-3,-1.869998723E-1,1.870130776E-1
1.229606733E1,1.100176712E-3,-3.694957122E-4,-1.806103438E-1,1.806140726E-1
1.230602333E1,-3.179523163E-3,-2.768170089E-4,-1.731596291E-1,1.731890388E-1
1.231597933E1,-1.216703909E-3,-1.438499428E-3,-1.746955365E-1,1.747056957E-1
1.232593533E1,1.087462995E-3,-2.986667678E-4,-1.804461032E-1,1.804496272E-1
1.233589133E1,4.023404326E-3,-1.358155161E-3,-1.888929605E-1,1.889406862E-1
1.234584733E1,2.097576507E-4,-1.066005789E-3,-1.895901859E-1,1.895932988E-1
1.235580333E1,1.476392965E-3,-1.177908853E-4,-1.835797429E-1,1.835857174E-1
1.236575933E1,5.956856185E-4,3.648921847E-6,-1.743673384E-1,1.743683560E-1
1.237571533E1,-9.381154086E-4,-1.330014318E-3,-1.726460308E-1,1.726537024E-1
1.238567133E1,9.806922171E-4,-1.352119260E-3,-1.782048494E-1,1.782126772E-1